"subject","version","assignmentId","trial","trial_type","word","value","alt","choice","rt","resp","resp2","stamp","id"
"A3O2NOP1NUWCWL","cs_wg_v3_real2","3EJJQNKU9R668TZ8EV9H90QZUCXHRF","0","0","HELICOPTER","0","5","0","4160","Helicopter","0","2017-03-27 14:55:50","7146"
"A3O2NOP1NUWCWL","cs_wg_v3_real2","3EJJQNKU9R668TZ8EV9H90QZUCXHRF","1","0","WEDDING","9","5","0","2618","Wedding","9","2017-03-27 14:56:03","7147"
"A3O2NOP1NUWCWL","cs_wg_v3_real2","3EJJQNKU9R668TZ8EV9H90QZUCXHRF","2","0","STRUCTURE","10","5","0","1668","Structure","10","2017-03-27 14:56:19","7148"
"A3O2NOP1NUWCWL","cs_wg_v3_real2","3EJJQNKU9R668TZ8EV9H90QZUCXHRF","3","0","MACHINE","9","5","0","1471","Machine","9","2017-03-27 14:56:30","7149"
"A2BW6WD7LZ9EGV","cs_wg_v3_real2","3Q5ZZ9ZEVOGOAV0HEK28TMS4ZBI58A","0","0","MACHINE","9","5","0","2598","MACHINE","9","2017-03-27 14:56:45","7150"
"A3DDFEQ9K0H93C","cs_wg_v3_real2","3TEM0PF1Q5Y1WJA7YM7CYJAETU40DQ","0","0","UMBRELLA","8","5","0","6447","Umbrella","8","2017-03-27 14:56:45","7151"
"A3O2NOP1NUWCWL","cs_wg_v3_real2","3EJJQNKU9R668TZ8EV9H90QZUCXHRF","4","0","KEYBOARD","0","5","0","1084","Keyboard","0","2017-03-27 14:56:49","7152"
"AEF74ZYJTTEIA","cs_wg_v3_real2","3QAVNHZ3EM5GV8WH352T62UWBPIAL7","0","0","DOORWAY","10","5","0","2918","Doorway","10","2017-03-27 14:56:50","7153"
"A2BW6WD7LZ9EGV","cs_wg_v3_real2","3Q5ZZ9ZEVOGOAV0HEK28TMS4ZBI58A","1","0","BASKET","1","5","0","1304","BASKET","1","2017-03-27 14:56:55","7154"
"AZIY6IFOS4CVC","cs_wg_v3_real2","3CP1TO84PT2DOGYSY3T7JVF1DBQ254","0","0","COMMUNITY","10","5","0","2483","Community","10","2017-03-27 14:57:00","7155"
"AEF74ZYJTTEIA","cs_wg_v3_real2","3QAVNHZ3EM5GV8WH352T62UWBPIAL7","1","0","FOOTBALL","0","5","0","2028","Football","0","2017-03-27 14:57:01","7156"
"A1U8HCXVACOGJ8","cs_wg_v3_real2","32Z9ZLUT1LL3BG7SM3SDF5LUJPDHO6","0","0","BOOKSHELF","0","5","0","4505","bookshelf","0","2017-03-27 14:57:03","7157"
"A2BW6WD7LZ9EGV","cs_wg_v3_real2","3Q5ZZ9ZEVOGOAV0HEK28TMS4ZBI58A","2","0","BASKET","1","5","0","1797","BASKET","1","2017-03-27 14:57:04","7158"
"A3O2NOP1NUWCWL","cs_wg_v3_real2","3EJJQNKU9R668TZ8EV9H90QZUCXHRF","5","0","TRAFFIC","1","5","0","987","Traffic","1","2017-03-27 14:57:05","7159"
"AEF74ZYJTTEIA","cs_wg_v3_real2","3QAVNHZ3EM5GV8WH352T62UWBPIAL7","2","0","DOORWAY","10","5","0","1347","Doorway","10","2017-03-27 14:57:09","7160"
"AEF74ZYJTTEIA","cs_wg_v3_real2","3QAVNHZ3EM5GV8WH352T62UWBPIAL7","3","0","STOMACH","10","5","0","1652","Stomach","10","2017-03-27 14:57:18","7161"
"A2BW6WD7LZ9EGV","cs_wg_v3_real2","3Q5ZZ9ZEVOGOAV0HEK28TMS4ZBI58A","3","0","BASKET","1","5","1","4141","BASKET","1","2017-03-27 14:57:18","7162"
"A3O2NOP1NUWCWL","cs_wg_v3_real2","3EJJQNKU9R668TZ8EV9H90QZUCXHRF","6","0","MACHINE","9","5","0","5365","Machine","9","2017-03-27 14:57:20","7163"
"AZIY6IFOS4CVC","cs_wg_v3_real2","3CP1TO84PT2DOGYSY3T7JVF1DBQ254","1","0","DOORWAY","9","5","0","3069","Doorway","9","2017-03-27 14:57:21","7164"
"A1U8HCXVACOGJ8","cs_wg_v3_real2","32Z9ZLUT1LL3BG7SM3SDF5LUJPDHO6","1","0","KEYBOARD","0","5","1","4605","keyboard","0","2017-03-27 14:57:23","7165"
"A2BW6WD7LZ9EGV","cs_wg_v3_real2","3Q5ZZ9ZEVOGOAV0HEK28TMS4ZBI58A","4","0","TRAFFIC","9","5","0","1154","TRAFFIC","9","2017-03-27 14:57:26","7166"
"AEF74ZYJTTEIA","cs_wg_v3_real2","3QAVNHZ3EM5GV8WH352T62UWBPIAL7","4","0","BOOKSHELF","0","5","0","1829","Bookshelf","0","2017-03-27 14:57:28","7167"
"A3O2NOP1NUWCWL","cs_wg_v3_real2","3EJJQNKU9R668TZ8EV9H90QZUCXHRF","7","0","MACHINE","9","5","0","683","Machine","9","2017-03-27 14:57:28","7168"
"A2BW6WD7LZ9EGV","cs_wg_v3_real2","3Q5ZZ9ZEVOGOAV0HEK28TMS4ZBI58A","5","0","LADDER","0","5","0","1497","LADDER","0","2017-03-27 14:57:34","7169"
"AEF74ZYJTTEIA","cs_wg_v3_real2","3QAVNHZ3EM5GV8WH352T62UWBPIAL7","5","0","COMMUNITY","8","5","0","1842","Community","8","2017-03-27 14:57:37","7170"
"AZIY6IFOS4CVC","cs_wg_v3_real2","3CP1TO84PT2DOGYSY3T7JVF1DBQ254","2","0","STOMACH","0","5","0","2784","STOMACH","0","2017-03-27 14:57:40","7171"
"A3O2NOP1NUWCWL","cs_wg_v3_real2","3EJJQNKU9R668TZ8EV9H90QZUCXHRF","8","0","DOORWAY","8","5","0","1117","Doorway","8","2017-03-27 14:57:41","7172"
"A1U8HCXVACOGJ8","cs_wg_v3_real2","32Z9ZLUT1LL3BG7SM3SDF5LUJPDHO6","2","0","KEYBOARD","0","5","1","3268","keyboard","0","2017-03-27 14:57:42","7173"
"A2BW6WD7LZ9EGV","cs_wg_v3_real2","3Q5ZZ9ZEVOGOAV0HEK28TMS4ZBI58A","6","0","WEDDING","2","5","0","2291","WEDDING","2","2017-03-27 14:57:44","7174"
"AEF74ZYJTTEIA","cs_wg_v3_real2","3QAVNHZ3EM5GV8WH352T62UWBPIAL7","6","0","UMBRELLA","1","5","0","1302","Umbrella","1","2017-03-27 14:57:46","7175"
"AB1X97ASE626Q","cs_wg_v3_real2","33OOO72IVHMS701KWS0BYOU155PCTE","0","0","HELICOPTER","2","5","0","6781","helicopter ","2","2017-03-27 14:57:52","7176"
"AEF74ZYJTTEIA","cs_wg_v3_real2","3QAVNHZ3EM5GV8WH352T62UWBPIAL7","7","0","LADDER","1","5","0","1236","Ladder","1","2017-03-27 14:57:54","7177"
"A3O2NOP1NUWCWL","cs_wg_v3_real2","3EJJQNKU9R668TZ8EV9H90QZUCXHRF","9","0","LADDER","1","5","0","4327","Ladder","1","2017-03-27 14:57:54","7178"
"AZIY6IFOS4CVC","cs_wg_v3_real2","3CP1TO84PT2DOGYSY3T7JVF1DBQ254","3","0","KEYBOARD","10","5","0","1619","KEYBOARD","10","2017-03-27 14:57:55","7179"
"A2BW6WD7LZ9EGV","cs_wg_v3_real2","3Q5ZZ9ZEVOGOAV0HEK28TMS4ZBI58A","7","0","FOOTBALL","0","5","0","1242","FOOTBALL","2","2017-03-27 14:57:55","7180"
"A1U8HCXVACOGJ8","cs_wg_v3_real2","32Z9ZLUT1LL3BG7SM3SDF5LUJPDHO6","3","0","TRAFFIC","9","5","0","2095","traffic","9","2017-03-27 14:58:00","7181"
"A22IQZRDAMSNDE","cs_wg_v3_real2","3VHHR074H3IYC6YJW2Q9WBS6AHC7LD","0","0","BASKET","8","5","0","4516","basket","8","2017-03-27 14:58:00","7182"
"AEF74ZYJTTEIA","cs_wg_v3_real2","3QAVNHZ3EM5GV8WH352T62UWBPIAL7","8","0","LADDER","1","5","1","1707","Ladder","1","2017-03-27 14:58:02","7183"
"A2BW6WD7LZ9EGV","cs_wg_v3_real2","3Q5ZZ9ZEVOGOAV0HEK28TMS4ZBI58A","8","0","BOOKSHELF","2","5","0","1273","BOOKSHELF","2","2017-03-27 14:58:04","7184"
"A3O2NOP1NUWCWL","cs_wg_v3_real2","3EJJQNKU9R668TZ8EV9H90QZUCXHRF","10","0","HELICOPTER","0","5","1","4793","Helicopter","0","2017-03-27 14:58:08","7185"
"AZIY6IFOS4CVC","cs_wg_v3_real2","3CP1TO84PT2DOGYSY3T7JVF1DBQ254","4","0","LADDER","10","5","0","1591","LADDER","10","2017-03-27 14:58:08","7186"
"AEF74ZYJTTEIA","cs_wg_v3_real2","3QAVNHZ3EM5GV8WH352T62UWBPIAL7","9","0","HELICOPTER","2","5","0","1386","Helicopter","2","2017-03-27 14:58:11","7187"
"A2S3SV1LQTKJ8K","cs_wg_v3_real2","3CP1TO84PT2DOGYSY3T7JVF1DBQ527","0","0","STOMACH","9","5","0","3204","stomach","9","2017-03-27 14:58:13","7188"
"A2BW6WD7LZ9EGV","cs_wg_v3_real2","3Q5ZZ9ZEVOGOAV0HEK28TMS4ZBI58A","9","0","FOOTBALL","0","5","1","1369","Football","0","2017-03-27 14:58:14","7189"
"A395K5HZYPN0S7","cs_wg_v3_real2","38F5OAUN5NDWQAFT5HBB4JZZT037H6","0","0","STRUCTURE","8","5","0","6101","structure","8","2017-03-27 14:58:15","7190"
"AB1X97ASE626Q","cs_wg_v3_real2","33OOO72IVHMS701KWS0BYOU155PCTE","1","0","BASKET","10","5","1","8239","basket","10","2017-03-27 14:58:16","7191"
"A3O2NOP1NUWCWL","cs_wg_v3_real2","3EJJQNKU9R668TZ8EV9H90QZUCXHRF","11","0","STOMACH","10","5","0","1347","Stomach","10","2017-03-27 14:58:18","7192"
"AEF74ZYJTTEIA","cs_wg_v3_real2","3QAVNHZ3EM5GV8WH352T62UWBPIAL7","10","0","FOOTBALL","0","5","1","1610","Football","0","2017-03-27 14:58:20","7193"
"A22IQZRDAMSNDE","cs_wg_v3_real2","3VHHR074H3IYC6YJW2Q9WBS6AHC7LD","1","0","KEYBOARD","10","5","0","7418","keyboard","10","2017-03-27 14:58:22","7194"
"A1U8HCXVACOGJ8","cs_wg_v3_real2","32Z9ZLUT1LL3BG7SM3SDF5LUJPDHO6","4","0","FOOTBALL","10","5","0","2209","football","10","2017-03-27 14:58:22","7195"
"A2BW6WD7LZ9EGV","cs_wg_v3_real2","3Q5ZZ9ZEVOGOAV0HEK28TMS4ZBI58A","10","0","COMMUNITY","8","5","0","2024","COMMUNITY","8","2017-03-27 14:58:26","7196"
"AEF74ZYJTTEIA","cs_wg_v3_real2","3QAVNHZ3EM5GV8WH352T62UWBPIAL7","11","0","KEYBOARD","9","5","0","1155","Keyboard","9","2017-03-27 14:58:28","7197"
"AZIY6IFOS4CVC","cs_wg_v3_real2","3CP1TO84PT2DOGYSY3T7JVF1DBQ254","5","0","DOORWAY","9","5","1","5064","DOORWAY","9","2017-03-27 14:58:28","7198"
"A22IQZRDAMSNDE","cs_wg_v3_real2","3VHHR074H3IYC6YJW2Q9WBS6AHC7LD","2","0","WEDDING","8","5","0","1469","wedding","8","2017-03-27 14:58:32","7199"
"A2S3SV1LQTKJ8K","cs_wg_v3_real2","3CP1TO84PT2DOGYSY3T7JVF1DBQ527","1","0","MACHINE","9","5","0","9469","machine","9","2017-03-27 14:58:33","7200"
"A18SXC3JEN1O0U","cs_wg_v3_real2","37C0GNLMHF4WAUWM0BNT7KK56XQD64","0","0","HELICOPTER","10","5","0","9277","Helicopter","10","2017-03-27 14:58:34","7201"
"AEF74ZYJTTEIA","cs_wg_v3_real2","3QAVNHZ3EM5GV8WH352T62UWBPIAL7","12","0","STOMACH","10","5","0","1946","Stomach","10","2017-03-27 14:58:36","7202"
"A2BW6WD7LZ9EGV","cs_wg_v3_real2","3Q5ZZ9ZEVOGOAV0HEK28TMS4ZBI58A","11","0","COMMUNITY","8","5","0","1538","COMMUNITY","8","2017-03-27 14:58:36","7203"
"AB1X97ASE626Q","cs_wg_v3_real2","33OOO72IVHMS701KWS0BYOU155PCTE","2","0","UMBRELLA","1","5","0","4514","umbrella","1","2017-03-27 14:58:36","7204"
"AZIY6IFOS4CVC","cs_wg_v3_real2","3CP1TO84PT2DOGYSY3T7JVF1DBQ254","6","0","STRUCTURE","0","5","0","1308","STRUCTURE","0","2017-03-27 14:58:39","7205"
"A395K5HZYPN0S7","cs_wg_v3_real2","38F5OAUN5NDWQAFT5HBB4JZZT037H6","1","0","BOOKSHELF","10","5","1","8868","bookshelf","10","2017-03-27 14:58:40","7206"
"A3O2NOP1NUWCWL","cs_wg_v3_real2","3EJJQNKU9R668TZ8EV9H90QZUCXHRF","12","0","BOOKSHELF","0","5","0","1121","Bookshelf","0","2017-03-27 14:58:40","7207"
"AEF74ZYJTTEIA","cs_wg_v3_real2","3QAVNHZ3EM5GV8WH352T62UWBPIAL7","13","0","WEDDING","10","5","0","1022","Wedding","10","2017-03-27 14:58:43","7208"
"A22IQZRDAMSNDE","cs_wg_v3_real2","3VHHR074H3IYC6YJW2Q9WBS6AHC7LD","3","0","COMMUNITY","1","5","0","1450","community ","1","2017-03-27 14:58:44","7209"
"A2S3SV1LQTKJ8K","cs_wg_v3_real2","3CP1TO84PT2DOGYSY3T7JVF1DBQ527","2","0","STOMACH","9","5","0","1878","stomach","9","2017-03-27 14:58:44","7210"
"A2BW6WD7LZ9EGV","cs_wg_v3_real2","3Q5ZZ9ZEVOGOAV0HEK28TMS4ZBI58A","12","0","STRUCTURE","1","5","0","1697","STRUCTURE","1","2017-03-27 14:58:45","7211"
"A1U8HCXVACOGJ8","cs_wg_v3_real2","32Z9ZLUT1LL3BG7SM3SDF5LUJPDHO6","5","0","HELICOPTER","9","5","0","3553","helicopter","9","2017-03-27 14:58:47","7212"
"AEF74ZYJTTEIA","cs_wg_v3_real2","3QAVNHZ3EM5GV8WH352T62UWBPIAL7","14","0","COMMUNITY","8","5","1","1406","Community","8","2017-03-27 14:58:50","7213"
"A3O2NOP1NUWCWL","cs_wg_v3_real2","3EJJQNKU9R668TZ8EV9H90QZUCXHRF","13","0","BOOKSHELF","0","5","1","2579","Bookshelf","0","2017-03-27 14:58:51","7214"
"A2S3SV1LQTKJ8K","cs_wg_v3_real2","3CP1TO84PT2DOGYSY3T7JVF1DBQ527","3","0","KEYBOARD","2","5","0","1369","keyboard","2","2017-03-27 14:58:53","7215"
"A2BW6WD7LZ9EGV","cs_wg_v3_real2","3Q5ZZ9ZEVOGOAV0HEK28TMS4ZBI58A","13","0","BASKET","1","5","1","2341","BASKET","1","2017-03-27 14:58:54","7216"
"AW0MG225VXWCN","cs_wg_v3_real2","3N2BF7Y2VQVFBDMG9ND0N1WPOPYHMR","0","0","WEDDING","9","5","0","5622","Wedding","9","2017-03-27 14:58:54","7217"
"A395K5HZYPN0S7","cs_wg_v3_real2","38F5OAUN5NDWQAFT5HBB4JZZT037H6","2","0","LADDER","0","5","1","2886","ladder","0","2017-03-27 14:58:55","7218"
"AEF74ZYJTTEIA","cs_wg_v3_real2","3QAVNHZ3EM5GV8WH352T62UWBPIAL7","15","0","FOOTBALL","0","5","1","1126","Football","0","2017-03-27 14:58:58","7219"
"A22IQZRDAMSNDE","cs_wg_v3_real2","3VHHR074H3IYC6YJW2Q9WBS6AHC7LD","4","0","HELICOPTER","10","5","0","1555","helicopter","10","2017-03-27 14:58:58","7220"
"AB1X97ASE626Q","cs_wg_v3_real2","33OOO72IVHMS701KWS0BYOU155PCTE","3","0","BASKET","10","5","0","3789","basket ","10","2017-03-27 14:59:00","7221"
"A2S3SV1LQTKJ8K","cs_wg_v3_real2","3CP1TO84PT2DOGYSY3T7JVF1DBQ527","4","0","MACHINE","9","5","0","1166","machine","9","2017-03-27 14:59:02","7222"
"A2BW6WD7LZ9EGV","cs_wg_v3_real2","3Q5ZZ9ZEVOGOAV0HEK28TMS4ZBI58A","14","0","COMMUNITY","8","5","0","3453","COMMUNITY","8","2017-03-27 14:59:04","7223"
"A1U8HCXVACOGJ8","cs_wg_v3_real2","32Z9ZLUT1LL3BG7SM3SDF5LUJPDHO6","6","0","BOOKSHELF","0","5","1","3804","bookshelf","0","2017-03-27 14:59:04","7224"
"AEF74ZYJTTEIA","cs_wg_v3_real2","3QAVNHZ3EM5GV8WH352T62UWBPIAL7","16","0","KEYBOARD","9","5","0","1020","Keyboard","9","2017-03-27 14:59:05","7225"
"A22IQZRDAMSNDE","cs_wg_v3_real2","3VHHR074H3IYC6YJW2Q9WBS6AHC7LD","5","0","LADDER","2","5","0","1178","ladder","2","2017-03-27 14:59:08","7226"
"A395K5HZYPN0S7","cs_wg_v3_real2","38F5OAUN5NDWQAFT5HBB4JZZT037H6","3","0","STOMACH","0","5","0","2974","stomach","0","2017-03-27 14:59:10","7227"
"A2S3SV1LQTKJ8K","cs_wg_v3_real2","3CP1TO84PT2DOGYSY3T7JVF1DBQ527","5","0","BASKET","8","5","0","953","basket","8","2017-03-27 14:59:11","7228"
"AW0MG225VXWCN","cs_wg_v3_real2","3N2BF7Y2VQVFBDMG9ND0N1WPOPYHMR","1","0","STRUCTURE","10","5","0","1760","Structure","10","2017-03-27 14:59:11","7229"
"A3O2NOP1NUWCWL","cs_wg_v3_real2","3EJJQNKU9R668TZ8EV9H90QZUCXHRF","14","0","STRUCTURE","10","5","0","12143","STRUCTURE","10","2017-03-27 14:59:11","7230"
"A18SXC3JEN1O0U","cs_wg_v3_real2","37C0GNLMHF4WAUWM0BNT7KK56XQD64","1","0","UMBRELLA","8","5","1","9007","umbrella","8","2017-03-27 14:59:12","7231"
"A2BW6WD7LZ9EGV","cs_wg_v3_real2","3Q5ZZ9ZEVOGOAV0HEK28TMS4ZBI58A","15","0","MACHINE","9","5","0","1437","MACHINE","9","2017-03-27 14:59:13","7232"
"AEF74ZYJTTEIA","cs_wg_v3_real2","3QAVNHZ3EM5GV8WH352T62UWBPIAL7","17","0","BOOKSHELF","0","5","0","1332","Bookshelf","0","2017-03-27 14:59:13","7233"
"AZIY6IFOS4CVC","cs_wg_v3_real2","3CP1TO84PT2DOGYSY3T7JVF1DBQ254","7","0","COMMUNITY","10","5","0","1238","COMMUNITY","10","2017-03-27 14:59:14","7234"
"A22IQZRDAMSNDE","cs_wg_v3_real2","3VHHR074H3IYC6YJW2Q9WBS6AHC7LD","6","0","MACHINE","0","5","0","1229","machine","0","2017-03-27 14:59:17","7235"
"AEF74ZYJTTEIA","cs_wg_v3_real2","3QAVNHZ3EM5GV8WH352T62UWBPIAL7","18","0","KEYBOARD","9","5","0","1077","Keyboard","9","2017-03-27 14:59:20","7236"
"A2S3SV1LQTKJ8K","cs_wg_v3_real2","3CP1TO84PT2DOGYSY3T7JVF1DBQ527","6","0","TRAFFIC","0","5","0","1693","traffic","0","2017-03-27 14:59:20","7237"
"A1U8HCXVACOGJ8","cs_wg_v3_real2","32Z9ZLUT1LL3BG7SM3SDF5LUJPDHO6","7","0","HELICOPTER","9","5","0","2304","helicopter","9","2017-03-27 14:59:21","7238"
"AW0MG225VXWCN","cs_wg_v3_real2","3N2BF7Y2VQVFBDMG9ND0N1WPOPYHMR","2","0","KEYBOARD","10","5","0","1283","Keyboard","10","2017-03-27 14:59:23","7239"
"A2BW6WD7LZ9EGV","cs_wg_v3_real2","3Q5ZZ9ZEVOGOAV0HEK28TMS4ZBI58A","16","0","HELICOPTER","10","5","0","3127","HELICOPTER","10","2017-03-27 14:59:24","7240"
"AB1X97ASE626Q","cs_wg_v3_real2","33OOO72IVHMS701KWS0BYOU155PCTE","4","0","MACHINE","0","5","1","8233","machine ","0","2017-03-27 14:59:26","7241"
"A395K5HZYPN0S7","cs_wg_v3_real2","38F5OAUN5NDWQAFT5HBB4JZZT037H6","4","0","FOOTBALL","10","5","0","1629","football","10","2017-03-27 14:59:27","7242"
"AEF74ZYJTTEIA","cs_wg_v3_real2","3QAVNHZ3EM5GV8WH352T62UWBPIAL7","19","0","HELICOPTER","2","5","0","1227","Helicopter","2","2017-03-27 14:59:28","7243"
"A3CFBT2CBQQIZY","cs_wg_v3_real2","35K3O9HUABEXLT3XXZ1H78F3Z8UFE2","0","0","WEDDING","1","5","1","6152","Wedding","1","2017-03-27 14:59:30","7244"
"AZIY6IFOS4CVC","cs_wg_v3_real2","3CP1TO84PT2DOGYSY3T7JVF1DBQ254","8","0","UMBRELLA","8","5","0","1397","UMBRELLA","8","2017-03-27 14:59:30","7245"
"A22IQZRDAMSNDE","cs_wg_v3_real2","3VHHR074H3IYC6YJW2Q9WBS6AHC7LD","7","0","STRUCTURE","2","5","0","1349","structure","2","2017-03-27 14:59:32","7246"
"A2BW6WD7LZ9EGV","cs_wg_v3_real2","3Q5ZZ9ZEVOGOAV0HEK28TMS4ZBI58A","17","0","LADDER","0","5","0","2846","LADDER","0","2017-03-27 14:59:33","7247"
"AW0MG225VXWCN","cs_wg_v3_real2","3N2BF7Y2VQVFBDMG9ND0N1WPOPYHMR","3","0","UMBRELLA","9","5","0","860","Umbrella","9","2017-03-27 14:59:35","7248"
"AEF74ZYJTTEIA","cs_wg_v3_real2","3QAVNHZ3EM5GV8WH352T62UWBPIAL7","20","0","DOORWAY","10","5","0","892","Doorway","10","2017-03-27 14:59:35","7249"
"A2S3SV1LQTKJ8K","cs_wg_v3_real2","3CP1TO84PT2DOGYSY3T7JVF1DBQ527","7","0","KEYBOARD","2","5","1","3108","keyboard","2","2017-03-27 14:59:35","7250"
"A22IQZRDAMSNDE","cs_wg_v3_real2","3VHHR074H3IYC6YJW2Q9WBS6AHC7LD","8","0","STOMACH","0","5","0","922","stomach","0","2017-03-27 14:59:41","7251"
"A2BW6WD7LZ9EGV","cs_wg_v3_real2","3Q5ZZ9ZEVOGOAV0HEK28TMS4ZBI58A","18","0","BOOKSHELF","2","5","1","981","BOOKSHELF","2","2017-03-27 14:59:41","7252"
"A18SXC3JEN1O0U","cs_wg_v3_real2","37C0GNLMHF4WAUWM0BNT7KK56XQD64","2","0","UMBRELLA","8","5","0","12460","UMBRELLA","8","2017-03-27 14:59:41","7253"
"AEF74ZYJTTEIA","cs_wg_v3_real2","3QAVNHZ3EM5GV8WH352T62UWBPIAL7","21","0","WEDDING","10","5","0","1430","Wedding","10","2017-03-27 14:59:42","7254"
"A395K5HZYPN0S7","cs_wg_v3_real2","38F5OAUN5NDWQAFT5HBB4JZZT037H6","5","0","BASKET","10","5","1","1935","basket","10","2017-03-27 14:59:43","7255"
"A2S3SV1LQTKJ8K","cs_wg_v3_real2","3CP1TO84PT2DOGYSY3T7JVF1DBQ527","8","0","STRUCTURE","10","5","0","1213","structure","10","2017-03-27 14:59:44","7256"
"A1U8HCXVACOGJ8","cs_wg_v3_real2","32Z9ZLUT1LL3BG7SM3SDF5LUJPDHO6","8","0","MACHINE","10","5","0","9226","machine","10","2017-03-27 14:59:45","7257"
"AZIY6IFOS4CVC","cs_wg_v3_real2","3CP1TO84PT2DOGYSY3T7JVF1DBQ254","9","0","FOOTBALL","0","5","0","1608","FOOTBALL","0","2017-03-27 14:59:45","7258"
"A2BW6WD7LZ9EGV","cs_wg_v3_real2","3Q5ZZ9ZEVOGOAV0HEK28TMS4ZBI58A","19","0","STOMACH","0","5","0","1190","STOMACH","0","2017-03-27 14:59:47","7259"
"AEF74ZYJTTEIA","cs_wg_v3_real2","3QAVNHZ3EM5GV8WH352T62UWBPIAL7","22","0","MACHINE","8","5","0","731","Machine","8","2017-03-27 14:59:48","7260"
"AW0MG225VXWCN","cs_wg_v3_real2","3N2BF7Y2VQVFBDMG9ND0N1WPOPYHMR","4","0","KEYBOARD","10","5","0","2144","Keyboard","10","2017-03-27 14:59:49","7261"
"A3CFBT2CBQQIZY","cs_wg_v3_real2","35K3O9HUABEXLT3XXZ1H78F3Z8UFE2","1","0","STOMACH","10","5","1","5729","Stomach","10","2017-03-27 14:59:52","7262"
"AB1X97ASE626Q","cs_wg_v3_real2","33OOO72IVHMS701KWS0BYOU155PCTE","5","0","BOOKSHELF","0","5","1","7909","bookshelf ","0","2017-03-27 14:59:53","7263"
"A2S3SV1LQTKJ8K","cs_wg_v3_real2","3CP1TO84PT2DOGYSY3T7JVF1DBQ527","9","0","WEDDING","1","5","0","1898","wedding","1","2017-03-27 14:59:54","7264"
"AEF74ZYJTTEIA","cs_wg_v3_real2","3QAVNHZ3EM5GV8WH352T62UWBPIAL7","23","0","BASKET","0","5","0","720","Basket","0","2017-03-27 14:59:55","7265"
"A2BW6WD7LZ9EGV","cs_wg_v3_real2","3Q5ZZ9ZEVOGOAV0HEK28TMS4ZBI58A","20","0","STRUCTURE","1","5","0","2305","STRUCTURE","1","2017-03-27 14:59:56","7266"
"A395K5HZYPN0S7","cs_wg_v3_real2","38F5OAUN5NDWQAFT5HBB4JZZT037H6","6","0","UMBRELLA","1","5","0","3524","umbrella","1","2017-03-27 15:00:00","7267"
"A22IQZRDAMSNDE","cs_wg_v3_real2","3VHHR074H3IYC6YJW2Q9WBS6AHC7LD","9","0","BOOKSHELF","9","5","0","1469","bookshelf","9","2017-03-27 15:00:01","7268"
"A23KAJRDVCVGOE
","cs_wg_v3_real2","3BWI6RSP7GAK60ORFG35JG2M1KB7EQ","0","0","LADDER","9","5","0","3909","ladder","9","2017-03-27 15:00:02","7269"
"A1U8HCXVACOGJ8","cs_wg_v3_real2","32Z9ZLUT1LL3BG7SM3SDF5LUJPDHO6","9","0","HELICOPTER","9","5","0","3089","helicopter","9","2017-03-27 15:00:03","7270"
"AEF74ZYJTTEIA","cs_wg_v3_real2","3QAVNHZ3EM5GV8WH352T62UWBPIAL7","24","0","HELICOPTER","2","5","0","1589","Helicopter","2","2017-03-27 15:00:03","7271"
"A2BW6WD7LZ9EGV","cs_wg_v3_real2","3Q5ZZ9ZEVOGOAV0HEK28TMS4ZBI58A","21","0","WEDDING","2","5","1","1462","WEDDING","2","2017-03-27 15:00:03","7272"
"A2S3SV1LQTKJ8K","cs_wg_v3_real2","3CP1TO84PT2DOGYSY3T7JVF1DBQ527","10","0","BOOKSHELF","2","5","0","775","bookshelf","2","2017-03-27 15:00:04","7273"
"AW0MG225VXWCN","cs_wg_v3_real2","3N2BF7Y2VQVFBDMG9ND0N1WPOPYHMR","5","0","COMMUNITY","0","5","0","1792","Community","0","2017-03-27 15:00:04","7274"
"A3CFBT2CBQQIZY","cs_wg_v3_real2","35K3O9HUABEXLT3XXZ1H78F3Z8UFE2","2","0","UMBRELLA","2","5","0","2315","Umbrella","2","2017-03-27 15:00:06","7275"
"A19WXS1CLVLEEX","cs_wg_v3_real2","3QAPZX2QN4EET9CR1XNV20JAW3F20J","0","0","HELICOPTER","2","5","0","5407","helicopter","2","2017-03-27 15:00:10","7276"
"A2BW6WD7LZ9EGV","cs_wg_v3_real2","3Q5ZZ9ZEVOGOAV0HEK28TMS4ZBI58A","22","0","WEDDING","2","5","1","750","WEDDING","2","2017-03-27 15:00:10","7277"
"AW0MG225VXWCN","cs_wg_v3_real2","3N2BF7Y2VQVFBDMG9ND0N1WPOPYHMR","6","0","BASKET","1","5","0","776","Basket","1","2017-03-27 15:00:11","7278"
"A2S3SV1LQTKJ8K","cs_wg_v3_real2","3CP1TO84PT2DOGYSY3T7JVF1DBQ527","11","0","DOORWAY","8","5","0","1102","doorway","8","2017-03-27 15:00:12","7279"
"AEF74ZYJTTEIA","cs_wg_v3_real2","3QAVNHZ3EM5GV8WH352T62UWBPIAL7","25","0","COMMUNITY","8","5","0","1157","Community","8
","2017-03-27 15:00:12","7280"
"A18SXC3JEN1O0U","cs_wg_v3_real2","37C0GNLMHF4WAUWM0BNT7KK56XQD64","3","0","HELICOPTER","10","5","0","12982","HELICOPTER ","10","2017-03-27 15:00:12","7281"
"A23KAJRDVCVGOE
","cs_wg_v3_real2","3BWI6RSP7GAK60ORFG35JG2M1KB7EQ","1","0","BOOKSHELF","8","5","0","1604","bookshelf","8","2017-03-27 15:00:13","7282"
"A3CFBT2CBQQIZY","cs_wg_v3_real2","35K3O9HUABEXLT3XXZ1H78F3Z8UFE2","3","0","MACHINE","0","5","0","2164","Machine","0","2017-03-27 15:00:15","7283"
"AB1X97ASE626Q","cs_wg_v3_real2","33OOO72IVHMS701KWS0BYOU155PCTE","6","0","HELICOPTER","2","5","1","4965","helicopter ","2","2017-03-27 15:00:16","7284"
"AZIY6IFOS4CVC","cs_wg_v3_real2","3CP1TO84PT2DOGYSY3T7JVF1DBQ254","10","0","STRUCTURE","0","5","0","1842","STRUCTURE","0","2017-03-27 15:00:17","7285"
"A22IQZRDAMSNDE","cs_wg_v3_real2","3VHHR074H3IYC6YJW2Q9WBS6AHC7LD","10","0","MACHINE","0","5","1","6941","machine","0","2017-03-27 15:00:18","7286"
"AW0MG225VXWCN","cs_wg_v3_real2","3N2BF7Y2VQVFBDMG9ND0N1WPOPYHMR","7","0","TRAFFIC","2","5","0","1061","Traffic","2","2017-03-27 15:00:18","7287"
"AEF74ZYJTTEIA","cs_wg_v3_real2","3QAVNHZ3EM5GV8WH352T62UWBPIAL7","26","0","BOOKSHELF","0","5","0","813","Bookshelf","0","2017-03-27 15:00:20","7288"
"A1U8HCXVACOGJ8","cs_wg_v3_real2","32Z9ZLUT1LL3BG7SM3SDF5LUJPDHO6","10","0","FOOTBALL","10","5","0","2815","football","10","2017-03-27 15:00:20","7289"
"A395K5HZYPN0S7","cs_wg_v3_real2","38F5OAUN5NDWQAFT5HBB4JZZT037H6","7","0","DOORWAY","8","5","1","4026","doorway","8","2017-03-27 15:00:21","7290"
"A2S3SV1LQTKJ8K","cs_wg_v3_real2","3CP1TO84PT2DOGYSY3T7JVF1DBQ527","12","0","UMBRELLA","0","5","0","972","umbrella","0","2017-03-27 15:00:21","7291"
"A2BW6WD7LZ9EGV","cs_wg_v3_real2","3Q5ZZ9ZEVOGOAV0HEK28TMS4ZBI58A","23","0","STOMACH","0","5","1","5012","STOMACH","0","2017-03-27 15:00:23","7292"
"A23KAJRDVCVGOE
","cs_wg_v3_real2","3BWI6RSP7GAK60ORFG35JG2M1KB7EQ","2","0","BASKET","0","5","1","3144","basket","0","2017-03-27 15:00:24","7293"
"A3CFBT2CBQQIZY","cs_wg_v3_real2","35K3O9HUABEXLT3XXZ1H78F3Z8UFE2","4","0","BASKET","8","5","1","2747","Basket","8","2017-03-27 15:00:25","7294"
"AEF74ZYJTTEIA","cs_wg_v3_real2","3QAVNHZ3EM5GV8WH352T62UWBPIAL7","27","0","COMMUNITY","8","5","0","1188","Community","8","2017-03-27 15:00:27","7295"
"AW0MG225VXWCN","cs_wg_v3_real2","3N2BF7Y2VQVFBDMG9ND0N1WPOPYHMR","8","0","DOORWAY","8","5","0","607","Doorway","8","2017-03-27 15:00:29","7296"
"AZIY6IFOS4CVC","cs_wg_v3_real2","3CP1TO84PT2DOGYSY3T7JVF1DBQ254","11","0","TRAFFIC","8","5","0","2988","TRAFFIC","8","2017-03-27 15:00:31","7297"
"A2S3SV1LQTKJ8K","cs_wg_v3_real2","3CP1TO84PT2DOGYSY3T7JVF1DBQ527","13","0","LADDER","1","5","0","959","ladder","1","2017-03-27 15:00:31","7298"
"A2BW6WD7LZ9EGV","cs_wg_v3_real2","3Q5ZZ9ZEVOGOAV0HEK28TMS4ZBI58A","24","0","TRAFFIC","9","5","1","2413","TRAFFIC","9","2017-03-27 15:00:31","7299"
"A19WXS1CLVLEEX","cs_wg_v3_real2","3QAPZX2QN4EET9CR1XNV20JAW3F20J","1","0","DOORWAY","2","5","1","9673","doorway","2","2017-03-27 15:00:32","7300"
"A22IQZRDAMSNDE","cs_wg_v3_real2","3VHHR074H3IYC6YJW2Q9WBS6AHC7LD","11","0","DOORWAY","9","5","0","1249","doorway","9","2017-03-27 15:00:33","7301"
"AEF74ZYJTTEIA","cs_wg_v3_real2","3QAVNHZ3EM5GV8WH352T62UWBPIAL7","28","0","FOOTBALL","0","5","1","1005","Football","0","2017-03-27 15:00:34","7302"
"AW0MG225VXWCN","cs_wg_v3_real2","3N2BF7Y2VQVFBDMG9ND0N1WPOPYHMR","9","0","MACHINE","0","5","0","671","Machine","0","2017-03-27 15:00:36","7303"
"A23KAJRDVCVGOE
","cs_wg_v3_real2","3BWI6RSP7GAK60ORFG35JG2M1KB7EQ","3","0","UMBRELLA","9","5","0","2650","umbrella",,"2017-03-27 15:00:37","7304"
"A18SXC3JEN1O0U","cs_wg_v3_real2","37C0GNLMHF4WAUWM0BNT7KK56XQD64","4","0","COMMUNITY","10","5","0","9983","COMMUNITY","10","2017-03-27 15:00:37","7305"
"A1U8HCXVACOGJ8","cs_wg_v3_real2","32Z9ZLUT1LL3BG7SM3SDF5LUJPDHO6","11","0","TRAFFIC","9","5","0","5001","traffic","9","2017-03-27 15:00:38","7306"
"A2BW6WD7LZ9EGV","cs_wg_v3_real2","3Q5ZZ9ZEVOGOAV0HEK28TMS4ZBI58A","25","0","FOOTBALL","0","5","1","1992","FOOTBALL","0","2017-03-27 15:00:39","7307"
"A395K5HZYPN0S7","cs_wg_v3_real2","38F5OAUN5NDWQAFT5HBB4JZZT037H6","8","0","STOMACH","0","5","0","10566","stomach","0","2017-03-27 15:00:40","7308"
"AEF74ZYJTTEIA","cs_wg_v3_real2","3QAVNHZ3EM5GV8WH352T62UWBPIAL7","29","0","KEYBOARD","9","5","0","1092","Keyboard","9","2017-03-27 15:00:41","7309"
"A2S3SV1LQTKJ8K","cs_wg_v3_real2","3CP1TO84PT2DOGYSY3T7JVF1DBQ527","14","0","HELICOPTER","0","5","0","714","helicopter","0","2017-03-27 15:00:41","7310"
"AB1X97ASE626Q","cs_wg_v3_real2","33OOO72IVHMS701KWS0BYOU155PCTE","7","0","STRUCTURE","9","5","1","3658","structure","9","2017-03-27 15:00:43","7311"
"A3GIIL73GE2CBQ","cs_wg_v3_real2","3PEIJLRY6TU82FG9IT19ZLMAAHUXWQ","0","0","UMBRELLA","10","5","0","6719","umbrella","10","2017-03-27 15:00:45","7312"
"AW0MG225VXWCN","cs_wg_v3_real2","3N2BF7Y2VQVFBDMG9ND0N1WPOPYHMR","10","0","STRUCTURE","10","5","0","962","Structure","10","2017-03-27 15:00:46","7313"
"A22IQZRDAMSNDE","cs_wg_v3_real2","3VHHR074H3IYC6YJW2Q9WBS6AHC7LD","12","0","BOOKSHELF","9","5","0","4337","bookshelf","9","2017-03-27 15:00:47","7314"
"AEF74ZYJTTEIA","cs_wg_v3_real2","3QAVNHZ3EM5GV8WH352T62UWBPIAL7","30","0","TRAFFIC","2","5","0","911","Traffic","2","2017-03-27 15:00:48","7315"
"A19WXS1CLVLEEX","cs_wg_v3_real2","3QAPZX2QN4EET9CR1XNV20JAW3F20J","2","0","HELICOPTER","2","5","1","3813","helicopter","2","2017-03-27 15:00:48","7316"
"A2BW6WD7LZ9EGV","cs_wg_v3_real2","3Q5ZZ9ZEVOGOAV0HEK28TMS4ZBI58A","26","0","COMMUNITY","8","5","0","1086","COMMUNITY","8","2017-03-27 15:00:48","7317"
"A3CFBT2CBQQIZY","cs_wg_v3_real2","35K3O9HUABEXLT3XXZ1H78F3Z8UFE2","5","0","STRUCTURE","8","5","0","15532","Structure","8","2017-03-27 15:00:54","7318"
"AZIY6IFOS4CVC","cs_wg_v3_real2","3CP1TO84PT2DOGYSY3T7JVF1DBQ254","12","0","HELICOPTER","1","5","0","1843","HELICOPTER","1","2017-03-27 15:00:54","7319"
"A395K5HZYPN0S7","cs_wg_v3_real2","38F5OAUN5NDWQAFT5HBB4JZZT037H6","9","0","UMBRELLA","1","5","1","4054","umbrella","1","2017-03-27 15:00:54","7320"
"AW0MG225VXWCN","cs_wg_v3_real2","3N2BF7Y2VQVFBDMG9ND0N1WPOPYHMR","11","0","LADDER","8","5","0","729","Ladder","8","2017-03-27 15:00:55","7321"
"A2BW6WD7LZ9EGV","cs_wg_v3_real2","3Q5ZZ9ZEVOGOAV0HEK28TMS4ZBI58A","27","0","MACHINE","9","5","0","1461","MACHINE","9","2017-03-27 15:00:57","7322"
"A1U8HCXVACOGJ8","cs_wg_v3_real2","32Z9ZLUT1LL3BG7SM3SDF5LUJPDHO6","12","0","KEYBOARD","0","5","1","3299","keyboard","0","2017-03-27 15:00:57","7323"
"A23KAJRDVCVGOE
","cs_wg_v3_real2","3BWI6RSP7GAK60ORFG35JG2M1KB7EQ","4","0","DOORWAY","0","5","0","2758","doorway","9","2017-03-27 15:00:57","7324"
"AEF74ZYJTTEIA","cs_wg_v3_real2","3QAVNHZ3EM5GV8WH352T62UWBPIAL7","31","0","TRAFFIC","2","5","1","3644","Traffic","2","2017-03-27 15:00:58","7325"
"A18SXC3JEN1O0U","cs_wg_v3_real2","37C0GNLMHF4WAUWM0BNT7KK56XQD64","5","0","LADDER","9","5","0","7881","LADDER","9","2017-03-27 15:00:59","7326"
"A22IQZRDAMSNDE","cs_wg_v3_real2","3VHHR074H3IYC6YJW2Q9WBS6AHC7LD","13","0","COMMUNITY","1","5","1","2296","community","1","2017-03-27 15:00:59","7327"
"A19WXS1CLVLEEX","cs_wg_v3_real2","3QAPZX2QN4EET9CR1XNV20JAW3F20J","3","0","WEDDING","1","5","0","3173","wedding","1","2017-03-27 15:01:02","7328"
"A2S3SV1LQTKJ8K","cs_wg_v3_real2","3CP1TO84PT2DOGYSY3T7JVF1DBQ527","15","0","STRUCTURE","10","5","0","4451","structure","10","2017-03-27 15:01:03","7329"
"AB1X97ASE626Q","cs_wg_v3_real2","33OOO72IVHMS701KWS0BYOU155PCTE","8","0","TRAFFIC","1","5","1","6681","traffic","1","2017-03-27 15:01:04","7330"
"AEF74ZYJTTEIA","cs_wg_v3_real2","3QAVNHZ3EM5GV8WH352T62UWBPIAL7","32","0","UMBRELLA","1","5","0","1101","Umbrella","1","2017-03-27 15:01:06","7331"
"A2BW6WD7LZ9EGV","cs_wg_v3_real2","3Q5ZZ9ZEVOGOAV0HEK28TMS4ZBI58A","28","0","STRUCTURE","1","5","1","2423","STRUCTURE","1","2017-03-27 15:01:06","7332"
"A395K5HZYPN0S7","cs_wg_v3_real2","38F5OAUN5NDWQAFT5HBB4JZZT037H6","10","0","BASKET","10","5","0","2803","basket","10","2017-03-27 15:01:06","7333"
"A3CFBT2CBQQIZY","cs_wg_v3_real2","35K3O9HUABEXLT3XXZ1H78F3Z8UFE2","6","0","BASKET","8","5","1","4093","Basket","8","2017-03-27 15:01:06","7334"
"A23KAJRDVCVGOE
","cs_wg_v3_real2","3BWI6RSP7GAK60ORFG35JG2M1KB7EQ","5","0","FOOTBALL","10","5","0","5647","FOOTBALL","5","2017-03-27 15:01:11","7335"
"A22IQZRDAMSNDE","cs_wg_v3_real2","3VHHR074H3IYC6YJW2Q9WBS6AHC7LD","14","0","UMBRELLA","10","5","0","1561","umbrella","10","2017-03-27 15:01:12","7336"
"AW0MG225VXWCN","cs_wg_v3_real2","3N2BF7Y2VQVFBDMG9ND0N1WPOPYHMR","12","0","TRAFFIC","2","5","1","1858","Traffic","2","2017-03-27 15:01:12","7337"
"AEF74ZYJTTEIA","cs_wg_v3_real2","3QAVNHZ3EM5GV8WH352T62UWBPIAL7","33","0","WEDDING","10","5","0","1405","Wedding","9","2017-03-27 15:01:13","7338"
"AZIY6IFOS4CVC","cs_wg_v3_real2","3CP1TO84PT2DOGYSY3T7JVF1DBQ254","13","0","STRUCTURE","0","5","1","7370","STRUCTURE","0","2017-03-27 15:01:14","7339"
"A3CFBT2CBQQIZY","cs_wg_v3_real2","35K3O9HUABEXLT3XXZ1H78F3Z8UFE2","7","0","FOOTBALL","9","5","0","2053","Football","9","2017-03-27 15:01:14","7340"
"A3O2NOP1NUWCWL","cs_wg_v3_real2","3EJJQNKU9R668TZ8EV9H90QZUCXHRF","15","0","KEYBOARD","0","5","1","117239","KEYBOARD","0","2017-03-27 15:01:15","7341"
"A2BW6WD7LZ9EGV","cs_wg_v3_real2","3Q5ZZ9ZEVOGOAV0HEK28TMS4ZBI58A","29","0","BOOKSHELF","2","5","1","1919","BOOKSHELF","2","2017-03-27 15:01:16","7342"
"A2S3SV1LQTKJ8K","cs_wg_v3_real2","3CP1TO84PT2DOGYSY3T7JVF1DBQ527","16","0","BOOKSHELF","2","5","1","3191","bookshelf","2","2017-03-27 15:01:17","7343"
"A19WXS1CLVLEEX","cs_wg_v3_real2","3QAPZX2QN4EET9CR1XNV20JAW3F20J","4","0","STOMACH","1","5","1","5502","stomach","1","2017-03-27 15:01:18","7344"
"A395K5HZYPN0S7","cs_wg_v3_real2","38F5OAUN5NDWQAFT5HBB4JZZT037H6","11","0","STRUCTURE","8","5","0","2108","structure","8","2017-03-27 15:01:18","7345"
"A1U8HCXVACOGJ8","cs_wg_v3_real2","32Z9ZLUT1LL3BG7SM3SDF5LUJPDHO6","13","0","STOMACH","8","5","0","4151","stomach","8","2017-03-27 15:01:18","7346"
"AEF74ZYJTTEIA","cs_wg_v3_real2","3QAVNHZ3EM5GV8WH352T62UWBPIAL7","34","0","STRUCTURE","9","5","0","868","Structure","9","2017-03-27 15:01:20","7347"
"AB1X97ASE626Q","cs_wg_v3_real2","33OOO72IVHMS701KWS0BYOU155PCTE","9","0","BOOKSHELF","0","5","1","3242","bookshelf","0","2017-03-27 15:01:21","7348"
"A3GIIL73GE2CBQ","cs_wg_v3_real2","3PEIJLRY6TU82FG9IT19ZLMAAHUXWQ","1","0","TRAFFIC","2","5","0","4448","barrier","2","2017-03-27 15:01:23","7349"
"A22IQZRDAMSNDE","cs_wg_v3_real2","3VHHR074H3IYC6YJW2Q9WBS6AHC7LD","15","0","UMBRELLA","10","5","0","2827","umbrella","10","2017-03-27 15:01:24","7350"
"AW0MG225VXWCN","cs_wg_v3_real2","3N2BF7Y2VQVFBDMG9ND0N1WPOPYHMR","13","0","BASKET","1","5","1","1875","Basket ","1","2017-03-27 15:01:24","7351"
"A3CFBT2CBQQIZY","cs_wg_v3_real2","35K3O9HUABEXLT3XXZ1H78F3Z8UFE2","8","0","DOORWAY","2","5","1","2801","Doorway","2","2017-03-27 15:01:25","7352"
"A18SXC3JEN1O0U","cs_wg_v3_real2","37C0GNLMHF4WAUWM0BNT7KK56XQD64","6","0","HELICOPTER","10","5","0","7843","HELICOPTER","10","2017-03-27 15:01:25","7353"
"A2BW6WD7LZ9EGV","cs_wg_v3_real2","3Q5ZZ9ZEVOGOAV0HEK28TMS4ZBI58A","30","0","UMBRELLA","10","5","0","2862","UMBRELLA","10","2017-03-27 15:01:26","7354"
"AEF74ZYJTTEIA","cs_wg_v3_real2","3QAVNHZ3EM5GV8WH352T62UWBPIAL7","35","0","TRAFFIC","2","5","1","876","Traffic","2","2017-03-27 15:01:26","7355"
"A3O2NOP1NUWCWL","cs_wg_v3_real2","3EJJQNKU9R668TZ8EV9H90QZUCXHRF","16","0","FOOTBALL","2","5","0","2725","FOOTBALL","2","2017-03-27 15:01:28","7356"
"A23KAJRDVCVGOE
","cs_wg_v3_real2","3BWI6RSP7GAK60ORFG35JG2M1KB7EQ","6","0","COMMUNITY","2","5","1","3582","COMMUNITY

COMMUNITY

community","5","2017-03-27 15:01:28","7357"
"A395K5HZYPN0S7","cs_wg_v3_real2","38F5OAUN5NDWQAFT5HBB4JZZT037H6","12","0","TRAFFIC","9","5","0","1726","traffic","9","2017-03-27 15:01:29","7358"
"A19WXS1CLVLEEX","cs_wg_v3_real2","3QAPZX2QN4EET9CR1XNV20JAW3F20J","5","0","WEDDING","1","5","1","2442","wedding","1","2017-03-27 15:01:30","7359"
"A2S3SV1LQTKJ8K","cs_wg_v3_real2","3CP1TO84PT2DOGYSY3T7JVF1DBQ527","17","0","STOMACH","9","5","0","1799","stomach","9","2017-03-27 15:01:31","7360"
"AZIY6IFOS4CVC","cs_wg_v3_real2","3CP1TO84PT2DOGYSY3T7JVF1DBQ254","14","0","STOMACH","0","5","0","1699","STOMACH","0","2017-03-27 15:01:31","7361"
"A2F93SIUUV5HQH","cs_wg_v3_real2","3HL8HNGX452GQXCGPOLVFUES8BEF9S","0","0","KEYBOARD","10","5","0","9641","KEYBOARD","10","2017-03-27 15:01:32","7362"
"A2BW6WD7LZ9EGV","cs_wg_v3_real2","3Q5ZZ9ZEVOGOAV0HEK28TMS4ZBI58A","31","0","DOORWAY","8","5","0","1127","DOORWAY","8","2017-03-27 15:01:33","7363"
"AEF74ZYJTTEIA","cs_wg_v3_real2","3QAVNHZ3EM5GV8WH352T62UWBPIAL7","36","0","FOOTBALL","0","5","1","932","Football","0","2017-03-27 15:01:33","7364"
"A22IQZRDAMSNDE","cs_wg_v3_real2","3VHHR074H3IYC6YJW2Q9WBS6AHC7LD","16","0","UMBRELLA","10","5","0","1331","umbrella","10","2017-03-27 15:01:34","7365"
"A3CFBT2CBQQIZY","cs_wg_v3_real2","35K3O9HUABEXLT3XXZ1H78F3Z8UFE2","9","0","KEYBOARD","10","5","1","2530","Keyboard","10","2017-03-27 15:01:35","7366"
"A1U8HCXVACOGJ8","cs_wg_v3_real2","32Z9ZLUT1LL3BG7SM3SDF5LUJPDHO6","14","0","WEDDING","8","5","1","3280","wedding","8","2017-03-27 15:01:36","7367"
"AB1X97ASE626Q","cs_wg_v3_real2","33OOO72IVHMS701KWS0BYOU155PCTE","10","0","STRUCTURE","9","5","0","2805","structure","9","2017-03-27 15:01:37","7368"
"A2UHF7UL7G0Y78","cs_wg_v3_real2","39JEC7537U27KS591N0QZ6IM2Q5CVU","0","0","UMBRELLA","10","5","0","15919","Umbrella","10","2017-03-27 15:01:37","7369"
"AW0MG225VXWCN","cs_wg_v3_real2","3N2BF7Y2VQVFBDMG9ND0N1WPOPYHMR","14","0","HELICOPTER","2","5","0","767","Helicopter","1","2017-03-27 15:01:38","7370"
"A3O2NOP1NUWCWL","cs_wg_v3_real2","3EJJQNKU9R668TZ8EV9H90QZUCXHRF","17","0","LADDER","1","5","1","4599","LADDER","1","2017-03-27 15:01:40","7371"
"AEF74ZYJTTEIA","cs_wg_v3_real2","3QAVNHZ3EM5GV8WH352T62UWBPIAL7","37","0","WEDDING","10","5","0","972","Wedding","10","2017-03-27 15:01:40","7372"
"A23KAJRDVCVGOE
","cs_wg_v3_real2","3BWI6RSP7GAK60ORFG35JG2M1KB7EQ","7","0","KEYBOARD","1","5","1","4752","KEYBOARD","5","2017-03-27 15:01:42","7373"
"A395K5HZYPN0S7","cs_wg_v3_real2","38F5OAUN5NDWQAFT5HBB4JZZT037H6","13","0","TRAFFIC","9","5","0","2143","traffic","9","2017-03-27 15:01:42","7374"
"A2BW6WD7LZ9EGV","cs_wg_v3_real2","3Q5ZZ9ZEVOGOAV0HEK28TMS4ZBI58A","32","0","UMBRELLA","10","5","0","966","UMBRELLA","10","2017-03-27 15:01:42","7375"
"A19WXS1CLVLEEX","cs_wg_v3_real2","3QAPZX2QN4EET9CR1XNV20JAW3F20J","6","0","HELICOPTER","2","5","1","2193","helicopter","2","2017-03-27 15:01:42","7376"
"A2S3SV1LQTKJ8K","cs_wg_v3_real2","3CP1TO84PT2DOGYSY3T7JVF1DBQ527","18","0","WEDDING","1","5","1","2153","wedding","1","2017-03-27 15:01:43","7377"
"A22IQZRDAMSNDE","cs_wg_v3_real2","3VHHR074H3IYC6YJW2Q9WBS6AHC7LD","17","0","LADDER","2","5","1","1873","ladder","2","2017-03-27 15:01:44","7378"
"A2F93SIUUV5HQH","cs_wg_v3_real2","3HL8HNGX452GQXCGPOLVFUES8BEF9S","1","0","WEDDING","8","5","0","3488","WEDDING","8","2017-03-27 15:01:45","7379"
"A3GIIL73GE2CBQ","cs_wg_v3_real2","3PEIJLRY6TU82FG9IT19ZLMAAHUXWQ","2","0","BOOKSHELF","1","5","1","4240","bookshelf","2
","2017-03-27 15:01:46","7380"
"AZIY6IFOS4CVC","cs_wg_v3_real2","3CP1TO84PT2DOGYSY3T7JVF1DBQ254","15","0","COMMUNITY","10","5","0","3421","COMMUNITY","10","2017-03-27 15:01:46","7381"
"AEF74ZYJTTEIA","cs_wg_v3_real2","3QAVNHZ3EM5GV8WH352T62UWBPIAL7","38","0","BOOKSHELF","0","5","0","859","Bookshelf","0","2017-03-27 15:01:47","7382"
"A3CFBT2CBQQIZY","cs_wg_v3_real2","35K3O9HUABEXLT3XXZ1H78F3Z8UFE2","10","0","BASKET","8","5","0","4354","Basket","8","2017-03-27 15:01:47","7383"
"A1PZ1YZAQEXRSQ","cs_wg_v3_real2","3K2755HG5S4STNPX14QX1QXIZWTFD9","0","0","COMMUNITY","0","5","1","5495","Community","0","2017-03-27 15:01:49","7384"
"A18SXC3JEN1O0U","cs_wg_v3_real2","37C0GNLMHF4WAUWM0BNT7KK56XQD64","7","0","WEDDING","9","5","0","11280","WEDDING","9","2017-03-27 15:01:49","7385"
"A3O2NOP1NUWCWL","cs_wg_v3_real2","3EJJQNKU9R668TZ8EV9H90QZUCXHRF","18","0","TRAFFIC","1","5","1","3119","TRAFFIC","1","2017-03-27 15:01:51","7386"
"AB1X97ASE626Q","cs_wg_v3_real2","33OOO72IVHMS701KWS0BYOU155PCTE","11","0","STRUCTURE","9","5","0","2061","structure","9","2017-03-27 15:01:52","7387"
"A1U8HCXVACOGJ8","cs_wg_v3_real2","32Z9ZLUT1LL3BG7SM3SDF5LUJPDHO6","15","0","LADDER","0","5","0","4216","ladder","0","2017-03-27 15:01:53","7388"
"A23KAJRDVCVGOE
","cs_wg_v3_real2","3BWI6RSP7GAK60ORFG35JG2M1KB7EQ","8","0","MACHINE","0","5","1","2856","machine","0","2017-03-27 15:01:53","7389"
"AEF74ZYJTTEIA","cs_wg_v3_real2","3QAVNHZ3EM5GV8WH352T62UWBPIAL7","39","0","BOOKSHELF","0","5","1","645","Bookshelf","0","2017-03-27 15:01:54","7390"
"A2BW6WD7LZ9EGV","cs_wg_v3_real2","3Q5ZZ9ZEVOGOAV0HEK28TMS4ZBI58A","33","0","UMBRELLA","10","5","0","6053","UMBRELLA","10","2017-03-27 15:01:55","7391"
"A22IQZRDAMSNDE","cs_wg_v3_real2","3VHHR074H3IYC6YJW2Q9WBS6AHC7LD","18","0","STRUCTURE","2","5","1","2142","structure","2","2017-03-27 15:01:55","7392"
"A2S3SV1LQTKJ8K","cs_wg_v3_real2","3CP1TO84PT2DOGYSY3T7JVF1DBQ527","19","0","BASKET","8","5","1","4118","basket","8","2017-03-27 15:01:55","7393"
"A395K5HZYPN0S7","cs_wg_v3_real2","38F5OAUN5NDWQAFT5HBB4JZZT037H6","14","0","BOOKSHELF","10","5","0","3739","bookshelf","10","2017-03-27 15:01:56","7394"
"A19WXS1CLVLEEX","cs_wg_v3_real2","3QAPZX2QN4EET9CR1XNV20JAW3F20J","7","0","TRAFFIC","0","5","1","4612","traffic","0","2017-03-27 15:01:57","7395"
"A2F93SIUUV5HQH","cs_wg_v3_real2","3HL8HNGX452GQXCGPOLVFUES8BEF9S","2","0","WEDDING","8","5","0","2241","WEDDING","8","2017-03-27 15:01:57","7396"
"AW0MG225VXWCN","cs_wg_v3_real2","3N2BF7Y2VQVFBDMG9ND0N1WPOPYHMR","15","0","KEYBOARD","10","5","0","1907","keyboard","10","2017-03-27 15:01:58","7397"
"A3CFBT2CBQQIZY","cs_wg_v3_real2","35K3O9HUABEXLT3XXZ1H78F3Z8UFE2","11","0","TRAFFIC","0","5","1","4881","Traffic","0","2017-03-27 15:01:59","7398"
"A1PZ1YZAQEXRSQ","cs_wg_v3_real2","3K2755HG5S4STNPX14QX1QXIZWTFD9","1","0","STRUCTURE","9","5","1","3139","structure","9","2017-03-27 15:02:01","7399"
"AEF74ZYJTTEIA","cs_wg_v3_real2","3QAVNHZ3EM5GV8WH352T62UWBPIAL7","40","0","UMBRELLA","1","5","0","843","Umbrella","1","2017-03-27 15:02:01","7400"
"AZIY6IFOS4CVC","cs_wg_v3_real2","3CP1TO84PT2DOGYSY3T7JVF1DBQ254","16","0","BASKET","1","5","0","1127","BASKET","1","2017-03-27 15:02:04","7401"
"A3GIIL73GE2CBQ","cs_wg_v3_real2","3PEIJLRY6TU82FG9IT19ZLMAAHUXWQ","3","0","KEYBOARD","9","5","0","2279","keyboard","6","2017-03-27 15:02:05","7402"
"A22IQZRDAMSNDE","cs_wg_v3_real2","3VHHR074H3IYC6YJW2Q9WBS6AHC7LD","19","0","COMMUNITY","1","5","1","2578","community","1","2017-03-27 15:02:06","7403"
"AB1X97ASE626Q","cs_wg_v3_real2","33OOO72IVHMS701KWS0BYOU155PCTE","12","0","TRAFFIC","1","5","1","3156","traffic","1","2017-03-27 15:02:07","7404"
"A2F93SIUUV5HQH","cs_wg_v3_real2","3HL8HNGX452GQXCGPOLVFUES8BEF9S","3","0","DOORWAY","1","5","0","2124","DOORWAY","1","2017-03-27 15:02:08","7405"
"A3CFBT2CBQQIZY","cs_wg_v3_real2","35K3O9HUABEXLT3XXZ1H78F3Z8UFE2","12","0","WEDDING","1","5","0","2087","Wedding","1","2017-03-27 15:02:09","7406"
"AEF74ZYJTTEIA","cs_wg_v3_real2","3QAVNHZ3EM5GV8WH352T62UWBPIAL7","41","0","STRUCTURE","9","5","0","885","Structure","9","2017-03-27 15:02:10","7407"
"A19WXS1CLVLEEX","cs_wg_v3_real2","3QAPZX2QN4EET9CR1XNV20JAW3F20J","8","0","LADDER","9","5","1","1889","ladder","9","2017-03-27 15:02:10","7408"
"A18SXC3JEN1O0U","cs_wg_v3_real2","37C0GNLMHF4WAUWM0BNT7KK56XQD64","8","0","HELICOPTER","10","5","0","6718","HELICOPTER","10","2017-03-27 15:02:10","7409"
"A1U8HCXVACOGJ8","cs_wg_v3_real2","32Z9ZLUT1LL3BG7SM3SDF5LUJPDHO6","16","0","BOOKSHELF","0","5","0","4212","bookshelf","0","2017-03-27 15:02:11","7410"
"AW0MG225VXWCN","cs_wg_v3_real2","3N2BF7Y2VQVFBDMG9ND0N1WPOPYHMR","16","0","LADDER","8","5","1","1591","ladder","8","2017-03-27 15:02:11","7411"
"A395K5HZYPN0S7","cs_wg_v3_real2","38F5OAUN5NDWQAFT5HBB4JZZT037H6","15","0","DOORWAY","8","5","1","3832","doorway","8","2017-03-27 15:02:12","7412"
"A1PZ1YZAQEXRSQ","cs_wg_v3_real2","3K2755HG5S4STNPX14QX1QXIZWTFD9","2","0","WEDDING","8","5","1","2646","wedding","8","2017-03-27 15:02:12","7413"
"A23KAJRDVCVGOE
","cs_wg_v3_real2","3BWI6RSP7GAK60ORFG35JG2M1KB7EQ","9","0","BOOKSHELF","8","5","0","9935","bookshelf","5","2017-03-27 15:02:14","7414"
"AEF74ZYJTTEIA","cs_wg_v3_real2","3QAVNHZ3EM5GV8WH352T62UWBPIAL7","42","0","STRUCTURE","9","5","0","1109","Structure","9","2017-03-27 15:02:15","7415"
"A3CFBT2CBQQIZY","cs_wg_v3_real2","35K3O9HUABEXLT3XXZ1H78F3Z8UFE2","13","0","STOMACH","10","5","1","1713","Stomach","10","2017-03-27 15:02:17","7416"
"A2S3SV1LQTKJ8K","cs_wg_v3_real2","3CP1TO84PT2DOGYSY3T7JVF1DBQ527","20","0","LADDER","1","5","1","1307","ladder","1","2017-03-27 15:02:17","7417"
"AZIY6IFOS4CVC","cs_wg_v3_real2","3CP1TO84PT2DOGYSY3T7JVF1DBQ254","17","0","MACHINE","2","5","0","1074","MACHINE","2","2017-03-27 15:02:18","7418"
"A2QUQ0S2F6K3QJ","cs_wg_v3_real2","3Z7VU45IPYI4690LMN093GCRM4K1ZT","0","0","COMMUNITY","0","5","0","7227","Community","0","2017-03-27 15:02:18","7419"
"A2F93SIUUV5HQH","cs_wg_v3_real2","3HL8HNGX452GQXCGPOLVFUES8BEF9S","4","0","STOMACH","9","5","0","2075","STOMACH","9","2017-03-27 15:02:19","7420"
"A3GIIL73GE2CBQ","cs_wg_v3_real2","3PEIJLRY6TU82FG9IT19ZLMAAHUXWQ","4","0","LADDER","9","5","0","3246","ladder","9","2017-03-27 15:02:19","7421"
"AW0MG225VXWCN","cs_wg_v3_real2","3N2BF7Y2VQVFBDMG9ND0N1WPOPYHMR","17","0","STRUCTURE","10","5","0","1203","structure","10","2017-03-27 15:02:21","7422"
"A19WXS1CLVLEEX","cs_wg_v3_real2","3QAPZX2QN4EET9CR1XNV20JAW3F20J","9","0","FOOTBALL","10","5","1","2571","football","10","2017-03-27 15:02:23","7423"
"AEF74ZYJTTEIA","cs_wg_v3_real2","3QAVNHZ3EM5GV8WH352T62UWBPIAL7","43","0","COMMUNITY","8","5","0","1660","Community","8","2017-03-27 15:02:23","7424"
"A22IQZRDAMSNDE","cs_wg_v3_real2","3VHHR074H3IYC6YJW2Q9WBS6AHC7LD","20","0","BOOKSHELF","9","5","0","7356","bookshelf","9","2017-03-27 15:02:23","7425"
"AB1X97ASE626Q","cs_wg_v3_real2","33OOO72IVHMS701KWS0BYOU155PCTE","13","0","LADDER","10","5","1","3875","ladder","10","2017-03-27 15:02:25","7426"
"A1PZ1YZAQEXRSQ","cs_wg_v3_real2","3K2755HG5S4STNPX14QX1QXIZWTFD9","3","0","MACHINE","10","5","1","2662","machine","10","2017-03-27 15:02:26","7427"
"A3CFBT2CBQQIZY","cs_wg_v3_real2","35K3O9HUABEXLT3XXZ1H78F3Z8UFE2","14","0","COMMUNITY","0","5","1","1981","Community","0","2017-03-27 15:02:26","7428"
"A395K5HZYPN0S7","cs_wg_v3_real2","38F5OAUN5NDWQAFT5HBB4JZZT037H6","16","0","KEYBOARD","2","5","1","3798","keyboard","2","2017-03-27 15:02:27","7429"
"A1U8HCXVACOGJ8","cs_wg_v3_real2","32Z9ZLUT1LL3BG7SM3SDF5LUJPDHO6","17","0","LADDER","0","5","0","3868","ladder","0","2017-03-27 15:02:27","7430"
"A1LB9JOMFQ1UMG","cs_wg_v3_real2","3WMINLGALB4NS42BQS9U3J49HG4ACR","0","0","FOOTBALL","0","5","0","3574","football","0","2017-03-27 15:02:27","7431"
"A2F93SIUUV5HQH","cs_wg_v3_real2","3HL8HNGX452GQXCGPOLVFUES8BEF9S","5","0","COMMUNITY","0","5","0","1395","COMMUNITY","0","2017-03-27 15:02:30","7432"
"AEF74ZYJTTEIA","cs_wg_v3_real2","3QAVNHZ3EM5GV8WH352T62UWBPIAL7","44","0","LADDER","1","5","0","979","Ladder","1","2017-03-27 15:02:30","7433"
"AZIY6IFOS4CVC","cs_wg_v3_real2","3CP1TO84PT2DOGYSY3T7JVF1DBQ254","18","0","LADDER","10","5","0","1941","LADDER","10","2017-03-27 15:02:31","7434"
"AW0MG225VXWCN","cs_wg_v3_real2","3N2BF7Y2VQVFBDMG9ND0N1WPOPYHMR","18","0","HELICOPTER","2","5","1","1620","helicopter","2","2017-03-27 15:02:31","7435"
"A22IQZRDAMSNDE","cs_wg_v3_real2","3VHHR074H3IYC6YJW2Q9WBS6AHC7LD","21","0","FOOTBALL","0","5","0","1910","football","0","2017-03-27 15:02:34","7436"
"A2QUQ0S2F6K3QJ","cs_wg_v3_real2","3Z7VU45IPYI4690LMN093GCRM4K1ZT","1","0","HELICOPTER","10","5","0","4283","HELICOPTER","10","2017-03-27 15:02:34","7437"
"A19WXS1CLVLEEX","cs_wg_v3_real2","3QAPZX2QN4EET9CR1XNV20JAW3F20J","10","0","FOOTBALL","10","5","0","2208","football","10","2017-03-27 15:02:35","7438"
"A3CFBT2CBQQIZY","cs_wg_v3_real2","35K3O9HUABEXLT3XXZ1H78F3Z8UFE2","15","0","TRAFFIC","0","5","1","2212","Traffic","0","2017-03-27 15:02:35","7439"
"AEF74ZYJTTEIA","cs_wg_v3_real2","3QAVNHZ3EM5GV8WH352T62UWBPIAL7","45","0","UMBRELLA","1","5","1","1342","Umbrella","1","2017-03-27 15:02:37","7440"
"A3GIIL73GE2CBQ","cs_wg_v3_real2","3PEIJLRY6TU82FG9IT19ZLMAAHUXWQ","5","0","BOOKSHELF","1","5","1","6409","bookshelf","1","2017-03-27 15:02:39","7441"
"A23KAJRDVCVGOE
","cs_wg_v3_real2","3BWI6RSP7GAK60ORFG35JG2M1KB7EQ","10","0","KEYBOARD","1","5","1","19018","KEYBOARD","5","2017-03-27 15:02:40","7442"
"AW0MG225VXWCN","cs_wg_v3_real2","3N2BF7Y2VQVFBDMG9ND0N1WPOPYHMR","19","0","COMMUNITY","0","5","1","1140","community","0","2017-03-27 15:02:40","7443"
"A1LB9JOMFQ1UMG","cs_wg_v3_real2","3WMINLGALB4NS42BQS9U3J49HG4ACR","1","0","UMBRELLA","0","5","0","1971","umbrella","0","2017-03-27 15:02:41","7444"
"A1U8HCXVACOGJ8","cs_wg_v3_real2","32Z9ZLUT1LL3BG7SM3SDF5LUJPDHO6","18","0","LADDER","0","5","1","2751","ladder","0","2017-03-27 15:02:42","7445"
"A395K5HZYPN0S7","cs_wg_v3_real2","38F5OAUN5NDWQAFT5HBB4JZZT037H6","17","0","TRAFFIC","9","5","0","4980","traffic","9","2017-03-27 15:02:42","7446"
"A2F93SIUUV5HQH","cs_wg_v3_real2","3HL8HNGX452GQXCGPOLVFUES8BEF9S","6","0","STOMACH","9","5","0","4265","STOMACH","9","2017-03-27 15:02:42","7447"
"A3CFBT2CBQQIZY","cs_wg_v3_real2","35K3O9HUABEXLT3XXZ1H78F3Z8UFE2","16","0","DOORWAY","2","5","0","1653","Doorway","2","2017-03-27 15:02:43","7448"
"A1PZ1YZAQEXRSQ","cs_wg_v3_real2","3K2755HG5S4STNPX14QX1QXIZWTFD9","4","0","HELICOPTER","9","5","0","4905","helicopter","9","2017-03-27 15:02:43","7449"
"A22IQZRDAMSNDE","cs_wg_v3_real2","3VHHR074H3IYC6YJW2Q9WBS6AHC7LD","22","0","STOMACH","0","5","1","1873","stomach","0","2017-03-27 15:02:44","7450"
"AEF74ZYJTTEIA","cs_wg_v3_real2","3QAVNHZ3EM5GV8WH352T62UWBPIAL7","46","0","BASKET","0","5","0","1228","Basket","0","2017-03-27 15:02:44","7451"
"A19WXS1CLVLEEX","cs_wg_v3_real2","3QAPZX2QN4EET9CR1XNV20JAW3F20J","11","0","LADDER","9","5","0","2480","ladder","9","2017-03-27 15:02:46","7452"
"A2QUQ0S2F6K3QJ","cs_wg_v3_real2","3Z7VU45IPYI4690LMN093GCRM4K1ZT","2","0","COMMUNITY","0","5","1","3571","COMMUNITY ","0","2017-03-27 15:02:49","7453"
"A3CFBT2CBQQIZY","cs_wg_v3_real2","35K3O9HUABEXLT3XXZ1H78F3Z8UFE2","17","0","WEDDING","1","5","1","1351","Wedding","1","2017-03-27 15:02:50","7454"
"A18SXC3JEN1O0U","cs_wg_v3_real2","37C0GNLMHF4WAUWM0BNT7KK56XQD64","9","0","FOOTBALL","0","5","0","7967","FOOTBALL","0","2017-03-27 15:02:50","7455"
"A23KAJRDVCVGOE
","cs_wg_v3_real2","3BWI6RSP7GAK60ORFG35JG2M1KB7EQ","11","0","FOOTBALL","10","5","0","3716","FOOTBALL","5","2017-03-27 15:02:51","7456"
"AEF74ZYJTTEIA","cs_wg_v3_real2","3QAVNHZ3EM5GV8WH352T62UWBPIAL7","47","0","STOMACH","10","5","0","1491","Stomach","10","2017-03-27 15:02:52","7457"
"A2F93SIUUV5HQH","cs_wg_v3_real2","3HL8HNGX452GQXCGPOLVFUES8BEF9S","7","0","STRUCTURE","0","5","0","1145","STRUCTURE","0","2017-03-27 15:02:52","7458"
"A1LB9JOMFQ1UMG","cs_wg_v3_real2","3WMINLGALB4NS42BQS9U3J49HG4ACR","2","0","UMBRELLA","0","5","1","2347","umbrella","0","2017-03-27 15:02:52","7459"
"A395K5HZYPN0S7","cs_wg_v3_real2","38F5OAUN5NDWQAFT5HBB4JZZT037H6","18","0","TRAFFIC","9","5","0","2100","traffic","9","2017-03-27 15:02:53","7460"
"A22IQZRDAMSNDE","cs_wg_v3_real2","3VHHR074H3IYC6YJW2Q9WBS6AHC7LD","23","0","BOOKSHELF","9","5","0","1953","bookshelf","9","2017-03-27 15:02:54","7461"
"A1U8HCXVACOGJ8","cs_wg_v3_real2","32Z9ZLUT1LL3BG7SM3SDF5LUJPDHO6","19","0","BOOKSHELF","0","5","1","1806","bookshelf","0","2017-03-27 15:02:55","7462"
"AZIY6IFOS4CVC","cs_wg_v3_real2","3CP1TO84PT2DOGYSY3T7JVF1DBQ254","19","0","BASKET","1","5","1","3970","BASKET","0","2017-03-27 15:02:55","7463"
"AW0MG225VXWCN","cs_wg_v3_real2","3N2BF7Y2VQVFBDMG9ND0N1WPOPYHMR","20","0","UMBRELLA","9","5","0","5733","umbrella","9","2017-03-27 15:02:55","7464"
"A1PZ1YZAQEXRSQ","cs_wg_v3_real2","3K2755HG5S4STNPX14QX1QXIZWTFD9","5","0","DOORWAY","10","5","0","2410","doorway","10","2017-03-27 15:02:56","7465"
"A2UHF7UL7G0Y78","cs_wg_v3_real2","39JEC7537U27KS591N0QZ6IM2Q5CVU","1","0","COMMUNITY","0","5","0","10351","COMMUNITY","0","2017-03-27 15:02:57","7466"
"A3GIIL73GE2CBQ","cs_wg_v3_real2","3PEIJLRY6TU82FG9IT19ZLMAAHUXWQ","6","0","BASKET","10","5","0","2543","basket","10","2017-03-27 15:02:57","7467"
"AEF74ZYJTTEIA","cs_wg_v3_real2","3QAVNHZ3EM5GV8WH352T62UWBPIAL7","48","0","KEYBOARD","9","5","0","743","Keyboard","9","2017-03-27 15:02:59","7468"
"A19WXS1CLVLEEX","cs_wg_v3_real2","3QAPZX2QN4EET9CR1XNV20JAW3F20J","12","0","COMMUNITY","8","5","1","2750","community","8","2017-03-27 15:02:59","7469"
"A2QUQ0S2F6K3QJ","cs_wg_v3_real2","3Z7VU45IPYI4690LMN093GCRM4K1ZT","3","0","KEYBOARD","10","5","0","2680","KEYBOARD","10","2017-03-27 15:02:59","7470"
"A23KAJRDVCVGOE
","cs_wg_v3_real2","3BWI6RSP7GAK60ORFG35JG2M1KB7EQ","12","0","STRUCTURE","10","5","1","3690","STRUCTURE","5","2017-03-27 15:03:01","7471"
"A3CFBT2CBQQIZY","cs_wg_v3_real2","35K3O9HUABEXLT3XXZ1H78F3Z8UFE2","18","0","UMBRELLA","2","5","1","1540","Umbrella","1","2017-03-27 15:03:02","7472"
"AB1X97ASE626Q","cs_wg_v3_real2","33OOO72IVHMS701KWS0BYOU155PCTE","14","0","DOORWAY","8","5","1","8745","doorway","8","2017-03-27 15:03:02","7473"
"AW0MG225VXWCN","cs_wg_v3_real2","3N2BF7Y2VQVFBDMG9ND0N1WPOPYHMR","21","0","BOOKSHELF","1","5","0","996","bookshelf","1","2017-03-27 15:03:04","7474"
"A22IQZRDAMSNDE","cs_wg_v3_real2","3VHHR074H3IYC6YJW2Q9WBS6AHC7LD","24","0","DOORWAY","9","5","1","1628","doorway","9","2017-03-27 15:03:05","7475"
"A1LB9JOMFQ1UMG","cs_wg_v3_real2","3WMINLGALB4NS42BQS9U3J49HG4ACR","3","0","LADDER","9","5","0","1294","ladder","9","2017-03-27 15:03:06","7476"
"A36662QQDZ9J3R","cs_wg_v3_real2","3EWIJTFFVO86OPO7UHIW41SZT650EJ","0","0","UMBRELLA","9","5","0","5834","umbrella","9","2017-03-27 15:03:07","7477"
"A3GIIL73GE2CBQ","cs_wg_v3_real2","3PEIJLRY6TU82FG9IT19ZLMAAHUXWQ","7","0","DOORWAY","0","5","0","2414","doorway","0","2017-03-27 15:03:07","7478"
"A1PZ1YZAQEXRSQ","cs_wg_v3_real2","3K2755HG5S4STNPX14QX1QXIZWTFD9","6","0","BASKET","2","5","0","2125","basket","2","2017-03-27 15:03:08","7479"
"A3CFBT2CBQQIZY","cs_wg_v3_real2","35K3O9HUABEXLT3XXZ1H78F3Z8UFE2","19","0","FOOTBALL","9","5","1","1201","Football","9","2017-03-27 15:03:09","7480"
"A395K5HZYPN0S7","cs_wg_v3_real2","38F5OAUN5NDWQAFT5HBB4JZZT037H6","19","0","STOMACH","0","5","1","5936","stomach","0","2017-03-27 15:03:09","7481"
"A2F93SIUUV5HQH","cs_wg_v3_real2","3HL8HNGX452GQXCGPOLVFUES8BEF9S","8","0","COMMUNITY","0","5","1","3770","COMMUNITY","0","2017-03-27 15:03:09","7482"
"A2QUQ0S2F6K3QJ","cs_wg_v3_real2","3Z7VU45IPYI4690LMN093GCRM4K1ZT","4","0","DOORWAY","9","5","0","3283","DOORWAY","9","2017-03-27 15:03:10","7483"
"A2BW6WD7LZ9EGV","cs_wg_v3_real2","3Q5ZZ9ZEVOGOAV0HEK28TMS4ZBI58A","34","0","STRUCTURE","1","5","1","65222","STRUCTURE","1","2017-03-27 15:03:10","7484"
"A18SXC3JEN1O0U","cs_wg_v3_real2","37C0GNLMHF4WAUWM0BNT7KK56XQD64","10","0","STOMACH","10","5","0","6576","STOMACH","10","2017-03-27 15:03:11","7485"
"A1U8HCXVACOGJ8","cs_wg_v3_real2","32Z9ZLUT1LL3BG7SM3SDF5LUJPDHO6","20","0","DOORWAY","2","5","1","5001","doorway","2","2017-03-27 15:03:13","7486"
"A19WXS1CLVLEEX","cs_wg_v3_real2","3QAPZX2QN4EET9CR1XNV20JAW3F20J","13","0","STRUCTURE","10","5","1","2248","structure","10","2017-03-27 15:03:13","7487"
"AW0MG225VXWCN","cs_wg_v3_real2","3N2BF7Y2VQVFBDMG9ND0N1WPOPYHMR","22","0","MACHINE","0","5","1","1237","machine","0","2017-03-27 15:03:13","7488"
"A22IQZRDAMSNDE","cs_wg_v3_real2","3VHHR074H3IYC6YJW2Q9WBS6AHC7LD","25","0","DOORWAY","9","5","0","1460","doorway","9","2017-03-27 15:03:14","7489"
"AZIY6IFOS4CVC","cs_wg_v3_real2","3CP1TO84PT2DOGYSY3T7JVF1DBQ254","20","0","LADDER","10","5","0","3435","LADDER","10","2017-03-27 15:03:15","7490"
"A3CFBT2CBQQIZY","cs_wg_v3_real2","35K3O9HUABEXLT3XXZ1H78F3Z8UFE2","20","0","DOORWAY","2","5","1","1048","Doorway","2","2017-03-27 15:03:16","7491"
"A1LB9JOMFQ1UMG","cs_wg_v3_real2","3WMINLGALB4NS42BQS9U3J49HG4ACR","4","0","BASKET","2","5","0","1372","basket","2","2017-03-27 15:03:17","7492"
"A23KAJRDVCVGOE
","cs_wg_v3_real2","3BWI6RSP7GAK60ORFG35JG2M1KB7EQ","13","0","STOMACH","2","5","1","5623","stomach","2","2017-03-27 15:03:18","7493"
"A2F93SIUUV5HQH","cs_wg_v3_real2","3HL8HNGX452GQXCGPOLVFUES8BEF9S","9","0","COMMUNITY","0","5","1","1523","COMMUNITY","0","2017-03-27 15:03:18","7494"
"AEF74ZYJTTEIA","cs_wg_v3_real2","3QAVNHZ3EM5GV8WH352T62UWBPIAL7","49","0","FOOTBALL","0","5","1","14012","Football","0","2017-03-27 15:03:19","7495"
"A2QUQ0S2F6K3QJ","cs_wg_v3_real2","3Z7VU45IPYI4690LMN093GCRM4K1ZT","5","0","LADDER","8","5","0","3118","LADDER","8","2017-03-27 15:03:20","7496"
"A1PZ1YZAQEXRSQ","cs_wg_v3_real2","3K2755HG5S4STNPX14QX1QXIZWTFD9","7","0","BASKET","2","5","1","2200","basket","2","2017-03-27 15:03:21","7497"
"AW0MG225VXWCN","cs_wg_v3_real2","3N2BF7Y2VQVFBDMG9ND0N1WPOPYHMR","23","0","STOMACH","10","5","0","909","stomach","10","2017-03-27 15:03:21","7498"
"A395K5HZYPN0S7","cs_wg_v3_real2","38F5OAUN5NDWQAFT5HBB4JZZT037H6","20","0","BOOKSHELF","10","5","0","3254","bookshelf","10","2017-03-27 15:03:22","7499"
"A2BW6WD7LZ9EGV","cs_wg_v3_real2","3Q5ZZ9ZEVOGOAV0HEK28TMS4ZBI58A","35","0","LADDER","0","5","1","1125","LADDER","0","2017-03-27 15:03:22","7500"
"AB1X97ASE626Q","cs_wg_v3_real2","33OOO72IVHMS701KWS0BYOU155PCTE","15","0","BOOKSHELF","0","5","1","3166","bookshelf","0","2017-03-27 15:03:23","7501"
"A22IQZRDAMSNDE","cs_wg_v3_real2","3VHHR074H3IYC6YJW2Q9WBS6AHC7LD","26","0","COMMUNITY","1","5","1","1836","community","1","2017-03-27 15:03:23","7502"
"A36662QQDZ9J3R","cs_wg_v3_real2","3EWIJTFFVO86OPO7UHIW41SZT650EJ","1","0","WEDDING","10","5","0","4498","wedding","10","2017-03-27 15:03:24","7503"
"AEF74ZYJTTEIA","cs_wg_v3_real2","3QAVNHZ3EM5GV8WH352T62UWBPIAL7","50","0","KEYBOARD","9","5","0","933","Keyboard","9","2017-03-27 15:03:25","7504"
"A2UHF7UL7G0Y78","cs_wg_v3_real2","39JEC7537U27KS591N0QZ6IM2Q5CVU","2","0","LADDER","2","5","0","11489","LADDER","2","2017-03-27 15:03:26","7505"
"A3GIIL73GE2CBQ","cs_wg_v3_real2","3PEIJLRY6TU82FG9IT19ZLMAAHUXWQ","8","0","KEYBOARD","9","5","0","2360","keyboard","9","2017-03-27 15:03:26","7506"
"A19WXS1CLVLEEX","cs_wg_v3_real2","3QAPZX2QN4EET9CR1XNV20JAW3F20J","14","0","MACHINE","8","5","0","3090","machine","8","2017-03-27 15:03:26","7507"
"A3CFBT2CBQQIZY","cs_wg_v3_real2","35K3O9HUABEXLT3XXZ1H78F3Z8UFE2","21","0","DOORWAY","2","5","1","1152","Doorway","2","2017-03-27 15:03:27","7508"
"A1U8HCXVACOGJ8","cs_wg_v3_real2","32Z9ZLUT1LL3BG7SM3SDF5LUJPDHO6","21","0","DOORWAY","2","5","1","2026","doorway","2","2017-03-27 15:03:28","7509"
"A2BW6WD7LZ9EGV","cs_wg_v3_real2","3Q5ZZ9ZEVOGOAV0HEK28TMS4ZBI58A","36","0","MACHINE","9","5","0","814","MACHINE","9","2017-03-27 15:03:28","7510"
"AW0MG225VXWCN","cs_wg_v3_real2","3N2BF7Y2VQVFBDMG9ND0N1WPOPYHMR","24","0","DOORWAY","8","5","0","1921","doorway","8","2017-03-27 15:03:29","7511"
"AZIY6IFOS4CVC","cs_wg_v3_real2","3CP1TO84PT2DOGYSY3T7JVF1DBQ254","21","0","UMBRELLA","8","5","0","2691","UMBRELLA","8","2017-03-27 15:03:30","7512"
"A22IQZRDAMSNDE","cs_wg_v3_real2","3VHHR074H3IYC6YJW2Q9WBS6AHC7LD","27","0","DOORWAY","9","5","0","1529","doorway","9","2017-03-27 15:03:32","7513"
"AEF74ZYJTTEIA","cs_wg_v3_real2","3QAVNHZ3EM5GV8WH352T62UWBPIAL7","51","0","FOOTBALL","0","5","1","769","Football","0","2017-03-27 15:03:32","7514"
"A2F93SIUUV5HQH","cs_wg_v3_real2","3HL8HNGX452GQXCGPOLVFUES8BEF9S","10","0","HELICOPTER","8","5","0","1867","HELICOPTER","8","2017-03-27 15:03:32","7515"
"A395K5HZYPN0S7","cs_wg_v3_real2","38F5OAUN5NDWQAFT5HBB4JZZT037H6","21","0","KEYBOARD","2","5","0","2872","keyboard","2","2017-03-27 15:03:32","7516"
"A2QUQ0S2F6K3QJ","cs_wg_v3_real2","3Z7VU45IPYI4690LMN093GCRM4K1ZT","6","0","COMMUNITY","0","5","1","3131","COMMUNITY ","0","2017-03-27 15:03:33","7517"
"A1PZ1YZAQEXRSQ","cs_wg_v3_real2","3K2755HG5S4STNPX14QX1QXIZWTFD9","8","0","STOMACH","2","5","1","2405","stomach","2","2017-03-27 15:03:33","7518"
"A18SXC3JEN1O0U","cs_wg_v3_real2","37C0GNLMHF4WAUWM0BNT7KK56XQD64","11","0","WEDDING","9","5","0","11801","WEDDING","9","2017-03-27 15:03:33","7519"
"A3CFBT2CBQQIZY","cs_wg_v3_real2","35K3O9HUABEXLT3XXZ1H78F3Z8UFE2","22","0","BOOKSHELF","1","5","1","2313","Bookshelf","1","2017-03-27 15:03:36","7520"
"AW0MG225VXWCN","cs_wg_v3_real2","3N2BF7Y2VQVFBDMG9ND0N1WPOPYHMR","25","0","UMBRELLA","9","5","0","871","umbrella","9","2017-03-27 15:03:36","7521"
"AEF74ZYJTTEIA","cs_wg_v3_real2","3QAVNHZ3EM5GV8WH352T62UWBPIAL7","52","0","COMMUNITY","8","5","0","1428","Community","8","2017-03-27 15:03:39","7522"
"A3GIIL73GE2CBQ","cs_wg_v3_real2","3PEIJLRY6TU82FG9IT19ZLMAAHUXWQ","9","0","KEYBOARD","9","5","0","1979","keyboard ","9","2017-03-27 15:03:39","7523"
"A19WXS1CLVLEEX","cs_wg_v3_real2","3QAPZX2QN4EET9CR1XNV20JAW3F20J","15","0","UMBRELLA","0","5","1","2280","umbrella","0","2017-03-27 15:03:40","7524"
"AB1X97ASE626Q","cs_wg_v3_real2","33OOO72IVHMS701KWS0BYOU155PCTE","16","0","COMMUNITY","8","5","1","2583","community ","8","2017-03-27 15:03:40","7525"
"A303U3NB6DSHBF","cs_wg_v3_real2","3PM8NZGV8YH3IIKN6K237W4OMGDXQM","0","0","UMBRELLA","10","5","0","7157","unbrella","10","2017-03-27 15:03:41","7526"
"A36662QQDZ9J3R","cs_wg_v3_real2","3EWIJTFFVO86OPO7UHIW41SZT650EJ","2","0","UMBRELLA","9","5","0","2794","umbrella","9","2017-03-27 15:03:42","7527"
"A2UHF7UL7G0Y78","cs_wg_v3_real2","39JEC7537U27KS591N0QZ6IM2Q5CVU","3","0","MACHINE","0","5","0","6809","MACHINE","0","2017-03-27 15:03:42","7528"
"A2QUQ0S2F6K3QJ","cs_wg_v3_real2","3Z7VU45IPYI4690LMN093GCRM4K1ZT","7","0","MACHINE","2","5","0","1873","MACHINE","2","2017-03-27 15:03:42","7529"
"A2F93SIUUV5HQH","cs_wg_v3_real2","3HL8HNGX452GQXCGPOLVFUES8BEF9S","11","0","HELICOPTER","8","5","0","1823","HELICOPTER","8","2017-03-27 15:03:43","7530"
"A22IQZRDAMSNDE","cs_wg_v3_real2","3VHHR074H3IYC6YJW2Q9WBS6AHC7LD","28","0","MACHINE","0","5","1","1468","machine","0","2017-03-27 15:03:43","7531"
"A1U8HCXVACOGJ8","cs_wg_v3_real2","32Z9ZLUT1LL3BG7SM3SDF5LUJPDHO6","22","0","WEDDING","8","5","0","3353","wedding","8","2017-03-27 15:03:43","7532"
"A2BW6WD7LZ9EGV","cs_wg_v3_real2","3Q5ZZ9ZEVOGOAV0HEK28TMS4ZBI58A","37","0","UMBRELLA","10","5","0","8543","UMBRELLA","10","2017-03-27 15:03:43","7533"
"A395K5HZYPN0S7","cs_wg_v3_real2","38F5OAUN5NDWQAFT5HBB4JZZT037H6","22","0","KEYBOARD","2","5","1","1895","keyboard","2","2017-03-27 15:03:43","7534"
"A3CFBT2CBQQIZY","cs_wg_v3_real2","35K3O9HUABEXLT3XXZ1H78F3Z8UFE2","23","0","TRAFFIC","0","5","1","1167","Traffic","0","2017-03-27 15:03:45","7535"
"A1PZ1YZAQEXRSQ","cs_wg_v3_real2","3K2755HG5S4STNPX14QX1QXIZWTFD9","9","0","KEYBOARD","1","5","1","2623","keyboard","1","2017-03-27 15:03:45","7536"
"AW0MG225VXWCN","cs_wg_v3_real2","3N2BF7Y2VQVFBDMG9ND0N1WPOPYHMR","26","0","STOMACH","10","5","0","1756","stomach","10","2017-03-27 15:03:45","7537"
"A23KAJRDVCVGOE
","cs_wg_v3_real2","3BWI6RSP7GAK60ORFG35JG2M1KB7EQ","14","0","STOMACH","2","5","0","18464","STOMACH

stomach","5","2017-03-27 15:03:46","7538"
"AEF74ZYJTTEIA","cs_wg_v3_real2","3QAVNHZ3EM5GV8WH352T62UWBPIAL7","53","0","BASKET","0","5","1","650","basket","0","2017-03-27 15:03:46","7539"
"A2F93SIUUV5HQH","cs_wg_v3_real2","3HL8HNGX452GQXCGPOLVFUES8BEF9S","12","0","BASKET","9","5","0","1294","BASKET","9","2017-03-27 15:03:51","7540"
"A2BW6WD7LZ9EGV","cs_wg_v3_real2","3Q5ZZ9ZEVOGOAV0HEK28TMS4ZBI58A","38","0","FOOTBALL","0","5","1","1925","FOOTBALL","0","2017-03-27 15:03:52","7541"
"A173LV77LF3SHB","cs_wg_v3_real2","30JNVC0OR9L6WSK81GKH4AGUYQVHQE","0","0","FOOTBALL","0","5","1","7965","football","0","2017-03-27 15:03:52","7542"
"A22IQZRDAMSNDE","cs_wg_v3_real2","3VHHR074H3IYC6YJW2Q9WBS6AHC7LD","29","0","BOOKSHELF","9","5","0","1243","bookshelf","9","2017-03-27 15:03:53","7543"
"AZIY6IFOS4CVC","cs_wg_v3_real2","3CP1TO84PT2DOGYSY3T7JVF1DBQ254","22","0","STRUCTURE","0","5","1","10023","STRUCTURE","0","2017-03-27 15:03:53","7544"
"A3CFBT2CBQQIZY","cs_wg_v3_real2","35K3O9HUABEXLT3XXZ1H78F3Z8UFE2","24","0","UMBRELLA","2","5","1","994","Umbrella","2","2017-03-27 15:03:53","7545"
"A395K5HZYPN0S7","cs_wg_v3_real2","38F5OAUN5NDWQAFT5HBB4JZZT037H6","23","0","HELICOPTER","9","5","0","1464","helicopter","9","2017-03-27 15:03:53","7546"
"A1LB9JOMFQ1UMG","cs_wg_v3_real2","3WMINLGALB4NS42BQS9U3J49HG4ACR","5","0","FOOTBALL","0","5","1","2301","football","0","2017-03-27 15:03:53","7547"
"A2QUQ0S2F6K3QJ","cs_wg_v3_real2","3Z7VU45IPYI4690LMN093GCRM4K1ZT","8","0","KEYBOARD","10","5","0","3509","KEYBOARD","10","2017-03-27 15:03:53","7548"
"AEF74ZYJTTEIA","cs_wg_v3_real2","3QAVNHZ3EM5GV8WH352T62UWBPIAL7","54","0","DOORWAY","10","5","0","1212","doorway","10","2017-03-27 15:03:53","7549"
"AW0MG225VXWCN","cs_wg_v3_real2","3N2BF7Y2VQVFBDMG9ND0N1WPOPYHMR","27","0","COMMUNITY","0","5","1","1228","community","0","2017-03-27 15:03:53","7550"
"A19WXS1CLVLEEX","cs_wg_v3_real2","3QAPZX2QN4EET9CR1XNV20JAW3F20J","16","0","STOMACH","1","5","1","2078","stomach","1","2017-03-27 15:03:54","7551"
"A18SXC3JEN1O0U","cs_wg_v3_real2","37C0GNLMHF4WAUWM0BNT7KK56XQD64","12","0","COMMUNITY","10","5","0","10023","COMMUNITY","10","2017-03-27 15:03:55","7552"
"A3GIIL73GE2CBQ","cs_wg_v3_real2","3PEIJLRY6TU82FG9IT19ZLMAAHUXWQ","10","0","STRUCTURE","8","5","0","1588","structure","8","2017-03-27 15:03:55","7553"
"A303U3NB6DSHBF","cs_wg_v3_real2","3PM8NZGV8YH3IIKN6K237W4OMGDXQM","1","0","STOMACH","10","5","0","3355","stomach","10","2017-03-27 15:03:57","7554"
"A36662QQDZ9J3R","cs_wg_v3_real2","3EWIJTFFVO86OPO7UHIW41SZT650EJ","3","0","HELICOPTER","1","5","0","2503","helicopter","1","2017-03-27 15:03:58","7555"
"AB1X97ASE626Q","cs_wg_v3_real2","33OOO72IVHMS701KWS0BYOU155PCTE","17","0","HELICOPTER","2","5","0","4055","helicopter","2","2017-03-27 15:03:59","7556"
"A23KAJRDVCVGOE
","cs_wg_v3_real2","3BWI6RSP7GAK60ORFG35JG2M1KB7EQ","15","0","FOOTBALL","10","5","1","1766","football","10","2017-03-27 15:04:00","7557"
"A1U8HCXVACOGJ8","cs_wg_v3_real2","32Z9ZLUT1LL3BG7SM3SDF5LUJPDHO6","23","0","MACHINE","10","5","0","4464","machine","10","2017-03-27 15:04:00","7558"
"A1PZ1YZAQEXRSQ","cs_wg_v3_real2","3K2755HG5S4STNPX14QX1QXIZWTFD9","10","0","BOOKSHELF","8","5","1","2283","bookshelf","8","2017-03-27 15:04:00","7559"
"AEF74ZYJTTEIA","cs_wg_v3_real2","3QAVNHZ3EM5GV8WH352T62UWBPIAL7","55","0","MACHINE","8","5","0","894","machine","8","2017-03-27 15:04:01","7560"
"A3CFBT2CBQQIZY","cs_wg_v3_real2","35K3O9HUABEXLT3XXZ1H78F3Z8UFE2","25","0","BOOKSHELF","1","5","1","791","Bookshelf ","1","2017-03-27 15:04:01","7561"
"AW0MG225VXWCN","cs_wg_v3_real2","3N2BF7Y2VQVFBDMG9ND0N1WPOPYHMR","28","0","LADDER","8","5","0","1695","ladder","8","2017-03-27 15:04:01","7562"
"A2BW6WD7LZ9EGV","cs_wg_v3_real2","3Q5ZZ9ZEVOGOAV0HEK28TMS4ZBI58A","39","0","STRUCTURE","1","5","1","4141","STRUCTURE","1","2017-03-27 15:04:02","7563"
"A2QUQ0S2F6K3QJ","cs_wg_v3_real2","3Z7VU45IPYI4690LMN093GCRM4K1ZT","9","0","COMMUNITY","0","5","1","2010","COMMUNITY ","0","2017-03-27 15:04:03","7564"
"A2UHF7UL7G0Y78","cs_wg_v3_real2","39JEC7537U27KS591N0QZ6IM2Q5CVU","4","0","STRUCTURE","2","5","0","12242","STRUCTURE","2","2017-03-27 15:04:03","7565"
"A395K5HZYPN0S7","cs_wg_v3_real2","38F5OAUN5NDWQAFT5HBB4JZZT037H6","24","0","COMMUNITY","1","5","1","1997","community","1","2017-03-27 15:04:04","7566"
"A1LB9JOMFQ1UMG","cs_wg_v3_real2","3WMINLGALB4NS42BQS9U3J49HG4ACR","6","0","KEYBOARD","1","5","0","1598","keyboard","1","2017-03-27 15:04:04","7567"
"A22IQZRDAMSNDE","cs_wg_v3_real2","3VHHR074H3IYC6YJW2Q9WBS6AHC7LD","30","0","KEYBOARD","10","5","0","1435","keyboard","10","2017-03-27 15:04:04","7568"
"A2F93SIUUV5HQH","cs_wg_v3_real2","3HL8HNGX452GQXCGPOLVFUES8BEF9S","13","0","KEYBOARD","10","5","0","3211","KEYBOARD","10","2017-03-27 15:04:04","7569"
"AKCH7EGJBNV43","cs_wg_v3_real2","3VHP9MDGRNLIOVJJ18VMHKF0EWHFC9","0","0","DOORWAY","0","5","0","6175","doorway","0","2017-03-27 15:04:07","7570"
"AEF74ZYJTTEIA","cs_wg_v3_real2","3QAVNHZ3EM5GV8WH352T62UWBPIAL7","56","0","MACHINE","8","5","0","1077","machine","8","2017-03-27 15:04:07","7571"
"A19WXS1CLVLEEX","cs_wg_v3_real2","3QAPZX2QN4EET9CR1XNV20JAW3F20J","17","0","DOORWAY","2","5","1","4021","doorway","2","2017-03-27 15:04:08","7572"
"A3CFBT2CBQQIZY","cs_wg_v3_real2","35K3O9HUABEXLT3XXZ1H78F3Z8UFE2","26","0","STRUCTURE","8","5","1","976","Structure ","8","2017-03-27 15:04:09","7573"
"A3GIIL73GE2CBQ","cs_wg_v3_real2","3PEIJLRY6TU82FG9IT19ZLMAAHUXWQ","11","0","BOOKSHELF","1","5","0","1906","bookshelf","1","2017-03-27 15:04:10","7574"
"A23KAJRDVCVGOE
","cs_wg_v3_real2","3BWI6RSP7GAK60ORFG35JG2M1KB7EQ","16","0","UMBRELLA","9","5","0","4882","UMBRELLA","9","2017-03-27 15:04:11","7575"
"A2QUQ0S2F6K3QJ","cs_wg_v3_real2","3Z7VU45IPYI4690LMN093GCRM4K1ZT","10","0","WEDDING","9","5","0","2494","WEDDING","9","2017-03-27 15:04:12","7576"
"A303U3NB6DSHBF","cs_wg_v3_real2","3PM8NZGV8YH3IIKN6K237W4OMGDXQM","2","0","MACHINE","1","5","0","2539","machine","1","2017-03-27 15:04:12","7577"
"AW0MG225VXWCN","cs_wg_v3_real2","3N2BF7Y2VQVFBDMG9ND0N1WPOPYHMR","29","0","BOOKSHELF","1","5","1","1371","bookshelf","1","2017-03-27 15:04:13","7578"
"A36662QQDZ9J3R","cs_wg_v3_real2","3EWIJTFFVO86OPO7UHIW41SZT650EJ","4","0","STRUCTURE","1","5","0","1869","structure","1","2017-03-27 15:04:13","7579"
"A22IQZRDAMSNDE","cs_wg_v3_real2","3VHHR074H3IYC6YJW2Q9WBS6AHC7LD","31","0","STRUCTURE","2","5","1","1912","structure","2","2017-03-27 15:04:14","7580"
"A1LB9JOMFQ1UMG","cs_wg_v3_real2","3WMINLGALB4NS42BQS9U3J49HG4ACR","7","0","DOORWAY","2","5","0","2115","doorway","2","2017-03-27 15:04:14","7581"
"A1U8HCXVACOGJ8","cs_wg_v3_real2","32Z9ZLUT1LL3BG7SM3SDF5LUJPDHO6","24","0","FOOTBALL","10","5","0","2034","football","10","2017-03-27 15:04:14","7582"
"A1PZ1YZAQEXRSQ","cs_wg_v3_real2","3K2755HG5S4STNPX14QX1QXIZWTFD9","11","0","BOOKSHELF","8","5","0","2119","bookshelf","8","2017-03-27 15:04:15","7583"
"A2BW6WD7LZ9EGV","cs_wg_v3_real2","3Q5ZZ9ZEVOGOAV0HEK28TMS4ZBI58A","40","0","KEYBOARD","10","5","0","6830","KEYBOARD","10","2017-03-27 15:04:15","7584"
"AEF74ZYJTTEIA","cs_wg_v3_real2","3QAVNHZ3EM5GV8WH352T62UWBPIAL7","57","0","STOMACH","10","5","0","1108","stomach","10","2017-03-27 15:04:15","7585"
"A173LV77LF3SHB","cs_wg_v3_real2","30JNVC0OR9L6WSK81GKH4AGUYQVHQE","1","0","STRUCTURE","10","5","1","3511","structure ","10","2017-03-27 15:04:15","7586"
"A18SXC3JEN1O0U","cs_wg_v3_real2","37C0GNLMHF4WAUWM0BNT7KK56XQD64","13","0","MACHINE","2","5","0","7270","MACHINE","2","2017-03-27 15:04:17","7587"
"AZIY6IFOS4CVC","cs_wg_v3_real2","3CP1TO84PT2DOGYSY3T7JVF1DBQ254","23","0","BOOKSHELF","2","5","0","8075","BOOKSHELF","2","2017-03-27 15:04:17","7588"
"A3CFBT2CBQQIZY","cs_wg_v3_real2","35K3O9HUABEXLT3XXZ1H78F3Z8UFE2","27","0","KEYBOARD","10","5","1","954","Keyboard ","10","2017-03-27 15:04:17","7589"
"AB1X97ASE626Q","cs_wg_v3_real2","33OOO72IVHMS701KWS0BYOU155PCTE","18","0","UMBRELLA","1","5","1","1932","umbrella","1","2017-03-27 15:04:18","7590"
"A2F93SIUUV5HQH","cs_wg_v3_real2","3HL8HNGX452GQXCGPOLVFUES8BEF9S","14","0","KEYBOARD","10","5","0","1233","KEYBOARD","10","2017-03-27 15:04:19","7591"
"A395K5HZYPN0S7","cs_wg_v3_real2","38F5OAUN5NDWQAFT5HBB4JZZT037H6","25","0","UMBRELLA","1","5","1","7126","umbrella","1","2017-03-27 15:04:19","7592"
"A19WXS1CLVLEEX","cs_wg_v3_real2","3QAPZX2QN4EET9CR1XNV20JAW3F20J","18","0","FOOTBALL","10","5","0","2237","football","10","2017-03-27 15:04:19","7593"
"AW0MG225VXWCN","cs_wg_v3_real2","3N2BF7Y2VQVFBDMG9ND0N1WPOPYHMR","30","0","DOORWAY","8","5","0","1173","doorway","8","2017-03-27 15:04:19","7594"
"A2QUQ0S2F6K3QJ","cs_wg_v3_real2","3Z7VU45IPYI4690LMN093GCRM4K1ZT","11","0","STRUCTURE","0","5","0","2192","STRUCTURE","0","2017-03-27 15:04:21","7595"
"A3GIIL73GE2CBQ","cs_wg_v3_real2","3PEIJLRY6TU82FG9IT19ZLMAAHUXWQ","12","0","TRAFFIC","2","5","0","1692","traffic","2","2017-03-27 15:04:21","7596"
"AEF74ZYJTTEIA","cs_wg_v3_real2","3QAVNHZ3EM5GV8WH352T62UWBPIAL7","58","0","DOORWAY","10","5","0","852","doorway","10","2017-03-27 15:04:23","7597"
"A22IQZRDAMSNDE","cs_wg_v3_real2","3VHHR074H3IYC6YJW2Q9WBS6AHC7LD","32","0","TRAFFIC","1","5","0","1733","traffic","1","2017-03-27 15:04:23","7598"
"A303U3NB6DSHBF","cs_wg_v3_real2","3PM8NZGV8YH3IIKN6K237W4OMGDXQM","3","0","DOORWAY","0","5","0","3852","doorway","0","2017-03-27 15:04:25","7599"
"A3CFBT2CBQQIZY","cs_wg_v3_real2","35K3O9HUABEXLT3XXZ1H78F3Z8UFE2","28","0","LADDER","10","5","1","1067","Ladder","10","2017-03-27 15:04:25","7600"
"A1LB9JOMFQ1UMG","cs_wg_v3_real2","3WMINLGALB4NS42BQS9U3J49HG4ACR","8","0","MACHINE","8","5","0","1153","machine","8","2017-03-27 15:04:26","7601"
"AKCH7EGJBNV43","cs_wg_v3_real2","3VHP9MDGRNLIOVJJ18VMHKF0EWHFC9","1","0","DOORWAY","0","5","1","4925","doorway","0","2017-03-27 15:04:27","7602"
"A2BW6WD7LZ9EGV","cs_wg_v3_real2","3Q5ZZ9ZEVOGOAV0HEK28TMS4ZBI58A","41","0","TRAFFIC","9","5","0","7479","TRAFFIC","9","2017-03-27 15:04:29","7603"
"A2UHF7UL7G0Y78","cs_wg_v3_real2","39JEC7537U27KS591N0QZ6IM2Q5CVU","5","0","STOMACH","1","5","1","2852","STOMACH","1","2017-03-27 15:04:29","7604"
"A36662QQDZ9J3R","cs_wg_v3_real2","3EWIJTFFVO86OPO7UHIW41SZT650EJ","5","0","HELICOPTER","1","5","1","2626","helicopter","1","2017-03-27 15:04:30","7605"
"AEF74ZYJTTEIA","cs_wg_v3_real2","3QAVNHZ3EM5GV8WH352T62UWBPIAL7","59","0","LADDER","1","5","1","1201","ladder","1","2017-03-27 15:04:30","7606"
"A2F93SIUUV5HQH","cs_wg_v3_real2","3HL8HNGX452GQXCGPOLVFUES8BEF9S","15","0","BASKET","9","5","0","3313","BASKET","9","2017-03-27 15:04:30","7607"
"AW0MG225VXWCN","cs_wg_v3_real2","3N2BF7Y2VQVFBDMG9ND0N1WPOPYHMR","31","0","COMMUNITY","0","5","1","1557","community","0","2017-03-27 15:04:30","7608"
"A2QUQ0S2F6K3QJ","cs_wg_v3_real2","3Z7VU45IPYI4690LMN093GCRM4K1ZT","12","0","WEDDING","9","5","0","2856","WEDDING","9","2017-03-27 15:04:30","7609"
"A1PZ1YZAQEXRSQ","cs_wg_v3_real2","3K2755HG5S4STNPX14QX1QXIZWTFD9","12","0","STRUCTURE","9","5","0","6046","structure","9","2017-03-27 15:04:31","7610"
"A19WXS1CLVLEEX","cs_wg_v3_real2","3QAPZX2QN4EET9CR1XNV20JAW3F20J","19","0","MACHINE","8","5","0","2985","machine","8","2017-03-27 15:04:31","7611"
"A23KAJRDVCVGOE
","cs_wg_v3_real2","3BWI6RSP7GAK60ORFG35JG2M1KB7EQ","17","0","TRAFFIC","1","5","1","10800","TRAFFIC

traffic","1","2017-03-27 15:04:32","7612"
"A1U8HCXVACOGJ8","cs_wg_v3_real2","32Z9ZLUT1LL3BG7SM3SDF5LUJPDHO6","25","0","TRAFFIC","9","5","0","5262","traffic","9","2017-03-27 15:04:33","7613"
"A395K5HZYPN0S7","cs_wg_v3_real2","38F5OAUN5NDWQAFT5HBB4JZZT037H6","26","0","STOMACH","0","5","1","6500","stomach","0","2017-03-27 15:04:34","7614"
"AZIY6IFOS4CVC","cs_wg_v3_real2","3CP1TO84PT2DOGYSY3T7JVF1DBQ254","24","0","LADDER","10","5","0","2291","LADDER","10","2017-03-27 15:04:34","7615"
"A3GIIL73GE2CBQ","cs_wg_v3_real2","3PEIJLRY6TU82FG9IT19ZLMAAHUXWQ","13","0","COMMUNITY","2","5","0","1456","community","2","2017-03-27 15:04:35","7616"
"A18SXC3JEN1O0U","cs_wg_v3_real2","37C0GNLMHF4WAUWM0BNT7KK56XQD64","14","0","TRAFFIC","1","5","0","6364","TRAFFIC","1","2017-03-27 15:04:36","7617"
"A1LB9JOMFQ1UMG","cs_wg_v3_real2","3WMINLGALB4NS42BQS9U3J49HG4ACR","9","0","HELICOPTER","10","5","0","1595","helicopter","10","2017-03-27 15:04:37","7618"
"A3CFBT2CBQQIZY","cs_wg_v3_real2","35K3O9HUABEXLT3XXZ1H78F3Z8UFE2","29","0","HELICOPTER","9","5","1","1009","Helicopter","9","2017-03-27 15:04:37","7619"
"AEF74ZYJTTEIA","cs_wg_v3_real2","3QAVNHZ3EM5GV8WH352T62UWBPIAL7","60","0","KEYBOARD","9","5","0","965","keyboard","9","2017-03-27 15:04:37","7620"
"AW0MG225VXWCN","cs_wg_v3_real2","3N2BF7Y2VQVFBDMG9ND0N1WPOPYHMR","32","0","STOMACH","10","5","0","772","stomach","10","2017-03-27 15:04:39","7621"
"A2F93SIUUV5HQH","cs_wg_v3_real2","3HL8HNGX452GQXCGPOLVFUES8BEF9S","16","0","BOOKSHELF","0","5","0","1474","BOOKSHELF","0","2017-03-27 15:04:40","7622"
"A173LV77LF3SHB","cs_wg_v3_real2","30JNVC0OR9L6WSK81GKH4AGUYQVHQE","2","0","BOOKSHELF","0","5","1","4588","bookshelf","0","2017-03-27 15:04:40","7623"
"AB1X97ASE626Q","cs_wg_v3_real2","33OOO72IVHMS701KWS0BYOU155PCTE","19","0","DOORWAY","8","5","0","8497","doorway","8","2017-03-27 15:04:41","7624"
"A1PZ1YZAQEXRSQ","cs_wg_v3_real2","3K2755HG5S4STNPX14QX1QXIZWTFD9","13","0","DOORWAY","10","5","1","2507","doorway","10","2017-03-27 15:04:42","7625"
"A23KAJRDVCVGOE
","cs_wg_v3_real2","3BWI6RSP7GAK60ORFG35JG2M1KB7EQ","18","0","WEDDING","8","5","1","2882","wedding","8","2017-03-27 15:04:43","7626"
"A22IQZRDAMSNDE","cs_wg_v3_real2","3VHHR074H3IYC6YJW2Q9WBS6AHC7LD","33","0","FOOTBALL","0","5","1","12140","football","0","2017-03-27 15:04:43","7627"
"A303U3NB6DSHBF","cs_wg_v3_real2","3PM8NZGV8YH3IIKN6K237W4OMGDXQM","4","0","DOORWAY","0","5","1","5626","doorway","0","2017-03-27 15:04:43","7628"
"A19WXS1CLVLEEX","cs_wg_v3_real2","3QAPZX2QN4EET9CR1XNV20JAW3F20J","20","0","BOOKSHELF","9","5","0","2155","bookshelf","9","2017-03-27 15:04:44","7629"
"AEF74ZYJTTEIA","cs_wg_v3_real2","3QAVNHZ3EM5GV8WH352T62UWBPIAL7","61","0","HELICOPTER","2","5","0","1155","helicopter","2","2017-03-27 15:04:45","7630"
"A3CFBT2CBQQIZY","cs_wg_v3_real2","35K3O9HUABEXLT3XXZ1H78F3Z8UFE2","30","0","MACHINE","0","5","1","1015","Machine","0","2017-03-27 15:04:45","7631"
"A1LB9JOMFQ1UMG","cs_wg_v3_real2","3WMINLGALB4NS42BQS9U3J49HG4ACR","10","0","HELICOPTER","10","5","0","1427","helicopter","10","2017-03-27 15:04:45","7632"
"A36662QQDZ9J3R","cs_wg_v3_real2","3EWIJTFFVO86OPO7UHIW41SZT650EJ","6","0","LADDER","8","5","0","1944","ladder","8","2017-03-27 15:04:45","7633"
"AZIY6IFOS4CVC","cs_wg_v3_real2","3CP1TO84PT2DOGYSY3T7JVF1DBQ254","25","0","TRAFFIC","8","5","0","2382","TRAFFIC","8","2017-03-27 15:04:47","7634"
"A1U8HCXVACOGJ8","cs_wg_v3_real2","32Z9ZLUT1LL3BG7SM3SDF5LUJPDHO6","26","0","HELICOPTER","9","5","0","1766","helicopter","9","2017-03-27 15:04:47","7635"
"A395K5HZYPN0S7","cs_wg_v3_real2","38F5OAUN5NDWQAFT5HBB4JZZT037H6","27","0","DOORWAY","8","5","0","4445","doorway","8","2017-03-27 15:04:48","7636"
"AW0MG225VXWCN","cs_wg_v3_real2","3N2BF7Y2VQVFBDMG9ND0N1WPOPYHMR","33","0","BASKET","1","5","1","2560","basket","1","2017-03-27 15:04:48","7637"
"A2F93SIUUV5HQH","cs_wg_v3_real2","3HL8HNGX452GQXCGPOLVFUES8BEF9S","17","0","STOMACH","9","5","0","3064","STOMACH","9","2017-03-27 15:04:50","7638"
"A2UHF7UL7G0Y78","cs_wg_v3_real2","39JEC7537U27KS591N0QZ6IM2Q5CVU","6","0","TRAFFIC","9","5","1","8767","TRAFFIC","9","2017-03-27 15:04:50","7639"
"A1PZ1YZAQEXRSQ","cs_wg_v3_real2","3K2755HG5S4STNPX14QX1QXIZWTFD9","14","0","TRAFFIC","1","5","1","2237","traffic","1","2017-03-27 15:04:51","7640"
"A2QUQ0S2F6K3QJ","cs_wg_v3_real2","3Z7VU45IPYI4690LMN093GCRM4K1ZT","13","0","STRUCTURE","0","5","1","10058","STRUCTURE","0","2017-03-27 15:04:52","7641"
"A22IQZRDAMSNDE","cs_wg_v3_real2","3VHHR074H3IYC6YJW2Q9WBS6AHC7LD","34","0","COMMUNITY","1","5","1","2474","community","1","2017-03-27 15:04:54","7642"
"A303U3NB6DSHBF","cs_wg_v3_real2","3PM8NZGV8YH3IIKN6K237W4OMGDXQM","5","0","LADDER","8","5","0","2173","ladder","8","2017-03-27 15:04:55","7643"
"AB1X97ASE626Q","cs_wg_v3_real2","33OOO72IVHMS701KWS0BYOU155PCTE","20","0","WEDDING","0","5","1","1674","wedding","0","2017-03-27 15:04:55","7644"
"A19WXS1CLVLEEX","cs_wg_v3_real2","3QAPZX2QN4EET9CR1XNV20JAW3F20J","21","0","UMBRELLA","0","5","1","2316","umbrella","0","2017-03-27 15:04:56","7645"
"AW0MG225VXWCN","cs_wg_v3_real2","3N2BF7Y2VQVFBDMG9ND0N1WPOPYHMR","34","0","KEYBOARD","10","5","0","2068","keyboard","10","2017-03-27 15:04:56","7646"
"A18SXC3JEN1O0U","cs_wg_v3_real2","37C0GNLMHF4WAUWM0BNT7KK56XQD64","15","0","KEYBOARD","8","5","0","10301","KEYBOARD","8","2017-03-27 15:04:58","7647"
"A3GIIL73GE2CBQ","cs_wg_v3_real2","3PEIJLRY6TU82FG9IT19ZLMAAHUXWQ","14","0","FOOTBALL","0","5","0","4898","football","0","2017-03-27 15:04:58","7648"
"A3CFBT2CBQQIZY","cs_wg_v3_real2","35K3O9HUABEXLT3XXZ1H78F3Z8UFE2","31","0","COMMUNITY","0","5","1","881","Community","0","2017-03-27 15:04:58","7649"
"A173LV77LF3SHB","cs_wg_v3_real2","30JNVC0OR9L6WSK81GKH4AGUYQVHQE","3","0","LADDER","10","5","1","5289","ladder","10","2017-03-27 15:05:01","7650"
"A2QUQ0S2F6K3QJ","cs_wg_v3_real2","3Z7VU45IPYI4690LMN093GCRM4K1ZT","14","0","LADDER","8","5","0","2357","LADDER","8","2017-03-27 15:05:01","7651"
"A36662QQDZ9J3R","cs_wg_v3_real2","3EWIJTFFVO86OPO7UHIW41SZT650EJ","7","0","FOOTBALL","8","5","0","2321","football","8","2017-03-27 15:05:01","7652"
"A22IQZRDAMSNDE","cs_wg_v3_real2","3VHHR074H3IYC6YJW2Q9WBS6AHC7LD","35","0","STOMACH","0","5","1","1330","stomach","0","2017-03-27 15:05:03","7653"
"A395K5HZYPN0S7","cs_wg_v3_real2","38F5OAUN5NDWQAFT5HBB4JZZT037H6","28","0","BASKET","10","5","0","2338","basket","10","2017-03-27 15:05:03","7654"
"A1U8HCXVACOGJ8","cs_wg_v3_real2","32Z9ZLUT1LL3BG7SM3SDF5LUJPDHO6","27","0","HELICOPTER","9","5","0","2743","helicopter","9","2017-03-27 15:05:05","7655"
"AEF74ZYJTTEIA","cs_wg_v3_real2","3QAVNHZ3EM5GV8WH352T62UWBPIAL7","62","0","BASKET","0","5","1","940","basket","0","2017-03-27 15:05:06","7656"
"A2F93SIUUV5HQH","cs_wg_v3_real2","3HL8HNGX452GQXCGPOLVFUES8BEF9S","18","0","STRUCTURE","0","5","1","7371","STRUCTURE","0","2017-03-27 15:05:06","7657"
"A1LB9JOMFQ1UMG","cs_wg_v3_real2","3WMINLGALB4NS42BQS9U3J49HG4ACR","11","0","FOOTBALL","0","5","1","12598","football","0","2017-03-27 15:05:07","7658"
"A303U3NB6DSHBF","cs_wg_v3_real2","3PM8NZGV8YH3IIKN6K237W4OMGDXQM","6","0","FOOTBALL","8","5","1","2387","football","8","2017-03-27 15:05:07","7659"
"AW0MG225VXWCN","cs_wg_v3_real2","3N2BF7Y2VQVFBDMG9ND0N1WPOPYHMR","35","0","BOOKSHELF","1","5","1","1205","bookshelf","1","2017-03-27 15:05:07","7660"
"A19WXS1CLVLEEX","cs_wg_v3_real2","3QAPZX2QN4EET9CR1XNV20JAW3F20J","22","0","STRUCTURE","10","5","0","2361","structure","10","2017-03-27 15:05:08","7661"
"A3CFBT2CBQQIZY","cs_wg_v3_real2","35K3O9HUABEXLT3XXZ1H78F3Z8UFE2","32","0","HELICOPTER","9","5","1","2478","Helicopter","9","2017-03-27 15:05:08","7662"
"A3GIIL73GE2CBQ","cs_wg_v3_real2","3PEIJLRY6TU82FG9IT19ZLMAAHUXWQ","15","0","BASKET","10","5","0","1568","basket","10","2017-03-27 15:05:09","7663"
"A2BW6WD7LZ9EGV","cs_wg_v3_real2","3Q5ZZ9ZEVOGOAV0HEK28TMS4ZBI58A","42","0","BOOKSHELF","2","5","1","2397","BOOKSHELF","2","2017-03-27 15:05:09","7664"
"AZIY6IFOS4CVC","cs_wg_v3_real2","3CP1TO84PT2DOGYSY3T7JVF1DBQ254","26","0","DOORWAY","9","5","0","1907","DOORWAY","9","2017-03-27 15:05:09","7665"
"A2QUQ0S2F6K3QJ","cs_wg_v3_real2","3Z7VU45IPYI4690LMN093GCRM4K1ZT","15","0","UMBRELLA","8","5","0","1868","UMBRELLA","8","2017-03-27 15:05:10","7666"
"A1PZ1YZAQEXRSQ","cs_wg_v3_real2","3K2755HG5S4STNPX14QX1QXIZWTFD9","15","0","MACHINE","10","5","0","4543","machine","10","2017-03-27 15:05:11","7667"
"AW0MG225VXWCN","cs_wg_v3_real2","3N2BF7Y2VQVFBDMG9ND0N1WPOPYHMR","36","0","FOOTBALL","0","5","0","932","football","0","2017-03-27 15:05:12","7668"
"A23KAJRDVCVGOE
","cs_wg_v3_real2","3BWI6RSP7GAK60ORFG35JG2M1KB7EQ","19","0","COMMUNITY","2","5","1","19515","COMMUNITY

community","2","2017-03-27 15:05:13","7669"
"A3O2NOP1NUWCWL","cs_wg_v3_real2","3EJJQNKU9R668TZ8EV9H90QZUCXHRF","19","0","WEDDING","9","5","0","28895","WEDDING","9","2017-03-27 15:05:13","7670"
"A36662QQDZ9J3R","cs_wg_v3_real2","3EWIJTFFVO86OPO7UHIW41SZT650EJ","8","0","MACHINE","2","5","0","1558","machine","2","2017-03-27 15:05:13","7671"
"A22IQZRDAMSNDE","cs_wg_v3_real2","3VHHR074H3IYC6YJW2Q9WBS6AHC7LD","36","0","BASKET","8","5","1","2808","basket","8","2017-03-27 15:05:13","7672"
"A395K5HZYPN0S7","cs_wg_v3_real2","38F5OAUN5NDWQAFT5HBB4JZZT037H6","29","0","MACHINE","2","5","1","2671","machine","2","2017-03-27 15:05:14","7673"
"AEF74ZYJTTEIA","cs_wg_v3_real2","3QAVNHZ3EM5GV8WH352T62UWBPIAL7","63","0","BOOKSHELF","0","5","1","2179","bookshelf","0","2017-03-27 15:05:14","7674"
"A3CFBT2CBQQIZY","cs_wg_v3_real2","35K3O9HUABEXLT3XXZ1H78F3Z8UFE2","33","0","MACHINE","0","5","1","1313","Machine","0","2017-03-27 15:05:16","7675"
"A2BW6WD7LZ9EGV","cs_wg_v3_real2","3Q5ZZ9ZEVOGOAV0HEK28TMS4ZBI58A","43","0","BOOKSHELF","2","5","1","1272","BOOKSHELF","2","2017-03-27 15:05:16","7676"
"AB1X97ASE626Q","cs_wg_v3_real2","33OOO72IVHMS701KWS0BYOU155PCTE","21","0","FOOTBALL","9","5","1","1606","football","9","2017-03-27 15:05:16","7677"
"A18SXC3JEN1O0U","cs_wg_v3_real2","37C0GNLMHF4WAUWM0BNT7KK56XQD64","16","0","BASKET","0","5","0","7063","BASKET","0","2017-03-27 15:05:17","7678"
"A1LB9JOMFQ1UMG","cs_wg_v3_real2","3WMINLGALB4NS42BQS9U3J49HG4ACR","12","0","BOOKSHELF","1","5","0","1508","bookshelf","1","2017-03-27 15:05:18","7679"
"A2QUQ0S2F6K3QJ","cs_wg_v3_real2","3Z7VU45IPYI4690LMN093GCRM4K1ZT","16","0","LADDER","8","5","0","2137","LADDER","8","2017-03-27 15:05:18","7680"
"A173LV77LF3SHB","cs_wg_v3_real2","30JNVC0OR9L6WSK81GKH4AGUYQVHQE","4","0","BASKET","9","5","1","4105","basket","9","2017-03-27 15:05:19","7681"
"AW0MG225VXWCN","cs_wg_v3_real2","3N2BF7Y2VQVFBDMG9ND0N1WPOPYHMR","37","0","KEYBOARD","10","5","0","1028","keyboard","10","2017-03-27 15:05:20","7682"
"A2F93SIUUV5HQH","cs_wg_v3_real2","3HL8HNGX452GQXCGPOLVFUES8BEF9S","19","0","MACHINE","2","5","0","4946","MACHINE","2","2017-03-27 15:05:20","7683"
"AEF74ZYJTTEIA","cs_wg_v3_real2","3QAVNHZ3EM5GV8WH352T62UWBPIAL7","64","0","BASKET","0","5","1","805","basket","0","2017-03-27 15:05:20","7684"
"A303U3NB6DSHBF","cs_wg_v3_real2","3PM8NZGV8YH3IIKN6K237W4OMGDXQM","7","0","UMBRELLA","10","5","0","2893","unbrella","10","2017-03-27 15:05:20","7685"
"A1U8HCXVACOGJ8","cs_wg_v3_real2","32Z9ZLUT1LL3BG7SM3SDF5LUJPDHO6","28","0","FOOTBALL","10","5","0","1681","football","10","2017-03-27 15:05:21","7686"
"A3GIIL73GE2CBQ","cs_wg_v3_real2","3PEIJLRY6TU82FG9IT19ZLMAAHUXWQ","16","0","STOMACH","0","5","0","1763","stomach","0","2017-03-27 15:05:21","7687"
"A1PZ1YZAQEXRSQ","cs_wg_v3_real2","3K2755HG5S4STNPX14QX1QXIZWTFD9","16","0","WEDDING","8","5","0","2812","wedding","8","2017-03-27 15:05:22","7688"
"A19WXS1CLVLEEX","cs_wg_v3_real2","3QAPZX2QN4EET9CR1XNV20JAW3F20J","23","0","KEYBOARD","10","5","0","3678","keyboard","10","2017-03-27 15:05:22","7689"
"A22IQZRDAMSNDE","cs_wg_v3_real2","3VHHR074H3IYC6YJW2Q9WBS6AHC7LD","37","0","MACHINE","0","5","1","1238","machine","0","2017-03-27 15:05:22","7690"
"A3CFBT2CBQQIZY","cs_wg_v3_real2","35K3O9HUABEXLT3XXZ1H78F3Z8UFE2","34","0","STRUCTURE","8","5","1","1134","Structure","8","2017-03-27 15:05:23","7691"
"A395K5HZYPN0S7","cs_wg_v3_real2","38F5OAUN5NDWQAFT5HBB4JZZT037H6","30","0","DOORWAY","8","5","0","2981","doorway","8","2017-03-27 15:05:24","7692"
"A23KAJRDVCVGOE
","cs_wg_v3_real2","3BWI6RSP7GAK60ORFG35JG2M1KB7EQ","20","0","WEDDING","8","5","0","3134","wedding",,"2017-03-27 15:05:25","7693"
"A2BW6WD7LZ9EGV","cs_wg_v3_real2","3Q5ZZ9ZEVOGOAV0HEK28TMS4ZBI58A","44","0","STOMACH","0","5","1","3271","STOMACH","0","2017-03-27 15:05:25","7694"
"AKCH7EGJBNV43","cs_wg_v3_real2","3VHP9MDGRNLIOVJJ18VMHKF0EWHFC9","2","0","STRUCTURE","8","5","0","16760","structure","8
8","2017-03-27 15:05:26","7695"
"AEF74ZYJTTEIA","cs_wg_v3_real2","3QAVNHZ3EM5GV8WH352T62UWBPIAL7","65","0","LADDER","1","5","1","644","ladder","1","2017-03-27 15:05:27","7696"
"A36662QQDZ9J3R","cs_wg_v3_real2","3EWIJTFFVO86OPO7UHIW41SZT650EJ","9","0","BOOKSHELF","2","5","0","2433","bookshelf","2","2017-03-27 15:05:27","7697"
"AW0MG225VXWCN","cs_wg_v3_real2","3N2BF7Y2VQVFBDMG9ND0N1WPOPYHMR","38","0","STOMACH","10","5","0","684","stomach","10","2017-03-27 15:05:28","7698"
"A2QUQ0S2F6K3QJ","cs_wg_v3_real2","3Z7VU45IPYI4690LMN093GCRM4K1ZT","17","0","TRAFFIC","1","5","0","3710","TRAFFIC","1","2017-03-27 15:05:28","7699"
"A303U3NB6DSHBF","cs_wg_v3_real2","3PM8NZGV8YH3IIKN6K237W4OMGDXQM","8","0","WEDDING","2","5","0","1867","wedding","2","2017-03-27 15:05:30","7700"
"A3CFBT2CBQQIZY","cs_wg_v3_real2","35K3O9HUABEXLT3XXZ1H78F3Z8UFE2","35","0","LADDER","10","5","1","937","Ladder","10","2017-03-27 15:05:30","7701"
"A1LB9JOMFQ1UMG","cs_wg_v3_real2","3WMINLGALB4NS42BQS9U3J49HG4ACR","13","0","HELICOPTER","10","5","0","5333","helicopter","10","2017-03-27 15:05:31","7702"
"A2F93SIUUV5HQH","cs_wg_v3_real2","3HL8HNGX452GQXCGPOLVFUES8BEF9S","20","0","MACHINE","2","5","1","1894","MACHINE","2","2017-03-27 15:05:32","7703"
"A1PZ1YZAQEXRSQ","cs_wg_v3_real2","3K2755HG5S4STNPX14QX1QXIZWTFD9","17","0","TRAFFIC","1","5","1","2964","traffic","1","2017-03-27 15:05:32","7704"
"A2R794P3E8X0MK","cs_wg_v3_real2","3JZQSN0I3QBV57ZO3UR57B0FCO9FGJ","0","0","STOMACH","2","5","0","4498","stomach","2","2017-03-27 15:05:32","7705"
"A395K5HZYPN0S7","cs_wg_v3_real2","38F5OAUN5NDWQAFT5HBB4JZZT037H6","31","0","STOMACH","0","5","1","2407","stomach","0","2017-03-27 15:05:33","7706"
"AEF74ZYJTTEIA","cs_wg_v3_real2","3QAVNHZ3EM5GV8WH352T62UWBPIAL7","66","0","TRAFFIC","2","5","1","809","traffic","2","2017-03-27 15:05:33","7707"
"A22IQZRDAMSNDE","cs_wg_v3_real2","3VHHR074H3IYC6YJW2Q9WBS6AHC7LD","38","0","KEYBOARD","10","5","0","1670","keyboard","10","2017-03-27 15:05:33","7708"
"A3GIIL73GE2CBQ","cs_wg_v3_real2","3PEIJLRY6TU82FG9IT19ZLMAAHUXWQ","17","0","STOMACH","0","5","1","2420","stomach","0","2017-03-27 15:05:33","7709"
"A2BW6WD7LZ9EGV","cs_wg_v3_real2","3Q5ZZ9ZEVOGOAV0HEK28TMS4ZBI58A","45","0","WEDDING","2","5","1","2237","WEDDING","2","2017-03-27 15:05:34","7710"
"AB1X97ASE626Q","cs_wg_v3_real2","33OOO72IVHMS701KWS0BYOU155PCTE","22","0","DOORWAY","8","5","0","4051","doorway","8","2017-03-27 15:05:34","7711"
"A23KAJRDVCVGOE
","cs_wg_v3_real2","3BWI6RSP7GAK60ORFG35JG2M1KB7EQ","21","0","LADDER","9","5","0","1691","ladder","9","2017-03-27 15:05:35","7712"
"A19WXS1CLVLEEX","cs_wg_v3_real2","3QAPZX2QN4EET9CR1XNV20JAW3F20J","24","0","BASKET","0","5","0","2558","basket","0","2017-03-27 15:05:36","7713"
"AW0MG225VXWCN","cs_wg_v3_real2","3N2BF7Y2VQVFBDMG9ND0N1WPOPYHMR","39","0","STOMACH","10","5","0","1004","stomach","10","2017-03-27 15:05:36","7714"
"A1U8HCXVACOGJ8","cs_wg_v3_real2","32Z9ZLUT1LL3BG7SM3SDF5LUJPDHO6","29","0","WEDDING","8","5","0","2390","wedding","8","2017-03-27 15:05:36","7715"
"A173LV77LF3SHB","cs_wg_v3_real2","30JNVC0OR9L6WSK81GKH4AGUYQVHQE","5","0","UMBRELLA","9","5","1","3076","umbrella","9","2017-03-27 15:05:37","7716"
"A138BU1VWM2RKN","cs_wg_v3_real2","3OJSZ2ATDSXKAHVY4FA2FMW9ORC57N","0","0","TRAFFIC","1","5","0","4817","traffic","1","2017-03-27 15:05:37","7717"
"A3CFBT2CBQQIZY","cs_wg_v3_real2","35K3O9HUABEXLT3XXZ1H78F3Z8UFE2","36","0","FOOTBALL","9","5","1","905","Football","9","2017-03-27 15:05:39","7718"
"A2QUQ0S2F6K3QJ","cs_wg_v3_real2","3Z7VU45IPYI4690LMN093GCRM4K1ZT","18","0","MACHINE","2","5","0","1758","MACHINE","2","2017-03-27 15:05:39","7719"
"AEF74ZYJTTEIA","cs_wg_v3_real2","3QAVNHZ3EM5GV8WH352T62UWBPIAL7","67","0","STOMACH","10","5","0","1099","stomach","10","2017-03-27 15:05:40","7720"
"A1LB9JOMFQ1UMG","cs_wg_v3_real2","3WMINLGALB4NS42BQS9U3J49HG4ACR","14","0","HELICOPTER","10","5","0","1394","helicopter","10","2017-03-27 15:05:40","7721"
"A2BW6WD7LZ9EGV","cs_wg_v3_real2","3Q5ZZ9ZEVOGOAV0HEK28TMS4ZBI58A","46","0","KEYBOARD","10","5","1","454","KEYBOARD","10","2017-03-27 15:05:40","7722"
"A36662QQDZ9J3R","cs_wg_v3_real2","3EWIJTFFVO86OPO7UHIW41SZT650EJ","10","0","STRUCTURE","1","5","1","3641","structure","1","2017-03-27 15:05:40","7723"
"A2F93SIUUV5HQH","cs_wg_v3_real2","3HL8HNGX452GQXCGPOLVFUES8BEF9S","21","0","FOOTBALL","2","5","0","1116","FOOTBALL","2","2017-03-27 15:05:40","7724"
"A1PZ1YZAQEXRSQ","cs_wg_v3_real2","3K2755HG5S4STNPX14QX1QXIZWTFD9","18","0","WEDDING","8","5","0","2208","wedding","8","2017-03-27 15:05:42","7725"
"AW0MG225VXWCN","cs_wg_v3_real2","3N2BF7Y2VQVFBDMG9ND0N1WPOPYHMR","40","0","STRUCTURE","10","5","0","805","structure","10","2017-03-27 15:05:42","7726"
"A22IQZRDAMSNDE","cs_wg_v3_real2","3VHHR074H3IYC6YJW2Q9WBS6AHC7LD","39","0","DOORWAY","9","5","0","1448","doorway","9","2017-03-27 15:05:43","7727"
"A2R794P3E8X0MK","cs_wg_v3_real2","3JZQSN0I3QBV57ZO3UR57B0FCO9FGJ","1","0","LADDER","8","5","0","1989","ladder","8","2017-03-27 15:05:43","7728"
"A395K5HZYPN0S7","cs_wg_v3_real2","38F5OAUN5NDWQAFT5HBB4JZZT037H6","32","0","COMMUNITY","1","5","1","2171","community","1","2017-03-27 15:05:44","7729"
"A23KAJRDVCVGOE
","cs_wg_v3_real2","3BWI6RSP7GAK60ORFG35JG2M1KB7EQ","22","0","STRUCTURE","10","5","1","1654","structure","10","2017-03-27 15:05:45","7730"
"A303U3NB6DSHBF","cs_wg_v3_real2","3PM8NZGV8YH3IIKN6K237W4OMGDXQM","9","0","KEYBOARD","0","5","1","2191","keybaord","0
0
0","2017-03-27 15:05:46","7731"
"A3CFBT2CBQQIZY","cs_wg_v3_real2","35K3O9HUABEXLT3XXZ1H78F3Z8UFE2","37","0","BOOKSHELF","1","5","1","926","Bookshelf","1","2017-03-27 15:05:46","7732"
"A19WXS1CLVLEEX","cs_wg_v3_real2","3QAPZX2QN4EET9CR1XNV20JAW3F20J","25","0","KEYBOARD","10","5","0","1854","keyboard","10","2017-03-27 15:05:47","7733"
"A2QUQ0S2F6K3QJ","cs_wg_v3_real2","3Z7VU45IPYI4690LMN093GCRM4K1ZT","19","0","FOOTBALL","2","5","0","1897","FOOTBALL","2","2017-03-27 15:05:48","7734"
"AEF74ZYJTTEIA","cs_wg_v3_real2","3QAVNHZ3EM5GV8WH352T62UWBPIAL7","68","0","STRUCTURE","9","5","0","1902","structure","9","2017-03-27 15:05:48","7735"
"A3GIIL73GE2CBQ","cs_wg_v3_real2","3PEIJLRY6TU82FG9IT19ZLMAAHUXWQ","18","0","DOORWAY","0","5","0","2063","doorway","0","2017-03-27 15:05:48","7736"
"AKCH7EGJBNV43","cs_wg_v3_real2","3VHP9MDGRNLIOVJJ18VMHKF0EWHFC9","3","0","BASKET","0","5","0","6721","basket","0","2017-03-27 15:05:48","7737"
"A2BW6WD7LZ9EGV","cs_wg_v3_real2","3Q5ZZ9ZEVOGOAV0HEK28TMS4ZBI58A","47","0","DOORWAY","8","5","0","2135","DOORWAY","8","2017-03-27 15:05:48","7738"
"AB1X97ASE626Q","cs_wg_v3_real2","33OOO72IVHMS701KWS0BYOU155PCTE","23","0","STOMACH","2","5","1","1716","stomach","0","2017-03-27 15:05:49","7739"
"A138BU1VWM2RKN","cs_wg_v3_real2","3OJSZ2ATDSXKAHVY4FA2FMW9ORC57N","1","0","BOOKSHELF","2","5","0","2468","bookshelf","2","2017-03-27 15:05:49","7740"
"A2F93SIUUV5HQH","cs_wg_v3_real2","3HL8HNGX452GQXCGPOLVFUES8BEF9S","22","0","COMMUNITY","0","5","1","2056","COMMUNITY","0","2017-03-27 15:05:50","7741"
"A22IQZRDAMSNDE","cs_wg_v3_real2","3VHHR074H3IYC6YJW2Q9WBS6AHC7LD","40","0","STOMACH","0","5","1","1091","stomach","0","2017-03-27 15:05:51","7742"
"A18SXC3JEN1O0U","cs_wg_v3_real2","37C0GNLMHF4WAUWM0BNT7KK56XQD64","17","0","DOORWAY","0","5","0","10988","DOORWAY

DOORWAY

DOORWAY","0","2017-03-27 15:05:51","7743"
"AZIY6IFOS4CVC","cs_wg_v3_real2","3CP1TO84PT2DOGYSY3T7JVF1DBQ254","27","0","STRUCTURE","0","5","1","3996","STRUCTURE","0","2017-03-27 15:05:54","7744"
"A2R794P3E8X0MK","cs_wg_v3_real2","3JZQSN0I3QBV57ZO3UR57B0FCO9FGJ","2","0","BASKET","0","5","0","1301","basket","0","2017-03-27 15:05:54","7745"
"AW0MG225VXWCN","cs_wg_v3_real2","3N2BF7Y2VQVFBDMG9ND0N1WPOPYHMR","41","0","MACHINE","0","5","1","933","machine","0","2017-03-27 15:05:55","7746"
"A1LB9JOMFQ1UMG","cs_wg_v3_real2","3WMINLGALB4NS42BQS9U3J49HG4ACR","15","0","UMBRELLA","0","5","1","5278","umbrella","0","2017-03-27 15:05:55","7747"
"A395K5HZYPN0S7","cs_wg_v3_real2","38F5OAUN5NDWQAFT5HBB4JZZT037H6","33","0","HELICOPTER","9","5","0","1915","helicopter","9","2017-03-27 15:05:55","7748"
"A1PZ1YZAQEXRSQ","cs_wg_v3_real2","3K2755HG5S4STNPX14QX1QXIZWTFD9","19","0","BOOKSHELF","8","5","0","2515","bookshelf","8","2017-03-27 15:05:55","7749"
"A173LV77LF3SHB","cs_wg_v3_real2","30JNVC0OR9L6WSK81GKH4AGUYQVHQE","6","0","BASKET","9","5","0","4578","basket","9","2017-03-27 15:05:55","7750"
"A2QUQ0S2F6K3QJ","cs_wg_v3_real2","3Z7VU45IPYI4690LMN093GCRM4K1ZT","20","0","BOOKSHELF","0","5","0","1664","BOOKSHELF","0","2017-03-27 15:05:56","7751"
"AEF74ZYJTTEIA","cs_wg_v3_real2","3QAVNHZ3EM5GV8WH352T62UWBPIAL7","69","0","BASKET","0","5","1","802","basket","0","2017-03-27 15:05:56","7752"
"A3CFBT2CBQQIZY","cs_wg_v3_real2","35K3O9HUABEXLT3XXZ1H78F3Z8UFE2","38","0","COMMUNITY","0","5","1","971","Community","0","2017-03-27 15:05:56","7753"
"A36662QQDZ9J3R","cs_wg_v3_real2","3EWIJTFFVO86OPO7UHIW41SZT650EJ","11","0","WEDDING","10","5","0","4535","wedding","10","2017-03-27 15:05:56","7754"
"A1U8HCXVACOGJ8","cs_wg_v3_real2","32Z9ZLUT1LL3BG7SM3SDF5LUJPDHO6","30","0","COMMUNITY","2","5","1","5953","community","2","2017-03-27 15:05:56","7755"
"A2F93SIUUV5HQH","cs_wg_v3_real2","3HL8HNGX452GQXCGPOLVFUES8BEF9S","23","0","COMMUNITY","0","5","1","1125","COMMUNITY","0","2017-03-27 15:05:58","7756"
"A19WXS1CLVLEEX","cs_wg_v3_real2","3QAPZX2QN4EET9CR1XNV20JAW3F20J","26","0","BOOKSHELF","9","5","0","1777","bookshelf","9","2017-03-27 15:05:59","7757"
"A3GIIL73GE2CBQ","cs_wg_v3_real2","3PEIJLRY6TU82FG9IT19ZLMAAHUXWQ","19","0","WEDDING","8","5","0","1504","wedding","8","2017-03-27 15:05:59","7758"
"A23KAJRDVCVGOE
","cs_wg_v3_real2","3BWI6RSP7GAK60ORFG35JG2M1KB7EQ","23","0","HELICOPTER","10","5","0","2607","HELICOPTER","10","2017-03-27 15:05:59","7759"
"A22IQZRDAMSNDE","cs_wg_v3_real2","3VHHR074H3IYC6YJW2Q9WBS6AHC7LD","41","0","LADDER","2","5","1","1212","ladder","2","2017-03-27 15:05:59","7760"
"A138BU1VWM2RKN","cs_wg_v3_real2","3OJSZ2ATDSXKAHVY4FA2FMW9ORC57N","2","0","LADDER","1","5","0","1779","ladder","1","2017-03-27 15:06:00","7761"
"A2BW6WD7LZ9EGV","cs_wg_v3_real2","3Q5ZZ9ZEVOGOAV0HEK28TMS4ZBI58A","48","0","BOOKSHELF","2","5","1","5134","BOOKSHELF","2","2017-03-27 15:06:00","7762"
"AKCH7EGJBNV43","cs_wg_v3_real2","3VHP9MDGRNLIOVJJ18VMHKF0EWHFC9","4","0","DOORWAY","0","5","1","2706","doorway","0","2017-03-27 15:06:00","7763"
"AW0MG225VXWCN","cs_wg_v3_real2","3N2BF7Y2VQVFBDMG9ND0N1WPOPYHMR","42","0","UMBRELLA","9","5","0","811","umbrella","9","2017-03-27 15:06:02","7764"
"A16UAN46CNIRHY","cs_wg_v3_real2","3WOKGM4L71HS0G1WOVLS9DMDX8B0ON","0","0","COMMUNITY","1","5","0","3551","community","1","2017-03-27 15:06:02","7765"
"A303U3NB6DSHBF","cs_wg_v3_real2","3PM8NZGV8YH3IIKN6K237W4OMGDXQM","10","0","HELICOPTER","10","5","0","2002","hellicopter","10","2017-03-27 15:06:03","7766"
"A3O2NOP1NUWCWL","cs_wg_v3_real2","3EJJQNKU9R668TZ8EV9H90QZUCXHRF","20","0","UMBRELLA","2","5","0","3468","UMBRELLA","2","2017-03-27 15:06:04","7767"
"A2R794P3E8X0MK","cs_wg_v3_real2","3JZQSN0I3QBV57ZO3UR57B0FCO9FGJ","3","0","WEDDING","0","5","0","1509","wedding","0","2017-03-27 15:06:04","7768"
"A3CFBT2CBQQIZY","cs_wg_v3_real2","35K3O9HUABEXLT3XXZ1H78F3Z8UFE2","39","0","TRAFFIC","0","5","1","939","Traffic","0","2017-03-27 15:06:04","7769"
"AEF74ZYJTTEIA","cs_wg_v3_real2","3QAVNHZ3EM5GV8WH352T62UWBPIAL7","70","0","STRUCTURE","9","5","0","1395","structure","9","2017-03-27 15:06:04","7770"
"A1LB9JOMFQ1UMG","cs_wg_v3_real2","3WMINLGALB4NS42BQS9U3J49HG4ACR","16","0","STOMACH","9","5","0","1321","stomach","9","2017-03-27 15:06:05","7771"
"A2QUQ0S2F6K3QJ","cs_wg_v3_real2","3Z7VU45IPYI4690LMN093GCRM4K1ZT","21","0","KEYBOARD","10","5","0","1746","KEYBOARD","10","2017-03-27 15:06:05","7772"
"A1PZ1YZAQEXRSQ","cs_wg_v3_real2","3K2755HG5S4STNPX14QX1QXIZWTFD9","20","0","MACHINE","10","5","0","2021","machine","10","2017-03-27 15:06:06","7773"
"A395K5HZYPN0S7","cs_wg_v3_real2","38F5OAUN5NDWQAFT5HBB4JZZT037H6","34","0","COMMUNITY","1","5","1","2097","community","1","2017-03-27 15:06:06","7774"
"AW0MG225VXWCN","cs_wg_v3_real2","3N2BF7Y2VQVFBDMG9ND0N1WPOPYHMR","43","0","KEYBOARD","10","5","0","683","keyboard","10","2017-03-27 15:06:07","7775"
"A2F93SIUUV5HQH","cs_wg_v3_real2","3HL8HNGX452GQXCGPOLVFUES8BEF9S","24","0","LADDER","10","5","1","1965","LADDER","10","2017-03-27 15:06:07","7776"
"A2BW6WD7LZ9EGV","cs_wg_v3_real2","3Q5ZZ9ZEVOGOAV0HEK28TMS4ZBI58A","49","0","KEYBOARD","10","5","0","2054","KEYBOARD","10","2017-03-27 15:06:09","7777"
"A36662QQDZ9J3R","cs_wg_v3_real2","3EWIJTFFVO86OPO7UHIW41SZT650EJ","12","0","BASKET","0","5","0","1746","basket","0","2017-03-27 15:06:10","7778"
"A22IQZRDAMSNDE","cs_wg_v3_real2","3VHHR074H3IYC6YJW2Q9WBS6AHC7LD","42","0","HELICOPTER","10","5","0","1617","helicopter","10","2017-03-27 15:06:10","7779"
"A18SXC3JEN1O0U","cs_wg_v3_real2","37C0GNLMHF4WAUWM0BNT7KK56XQD64","18","0","HELICOPTER","10","5","0","6258","HELICOPTER","10","2017-03-27 15:06:11","7780"
"AEF74ZYJTTEIA","cs_wg_v3_real2","3QAVNHZ3EM5GV8WH352T62UWBPIAL7","71","0","TRAFFIC","2","5","1","811","traffic","2","2017-03-27 15:06:11","7781"
"A1U8HCXVACOGJ8","cs_wg_v3_real2","32Z9ZLUT1LL3BG7SM3SDF5LUJPDHO6","31","0","COMMUNITY","2","5","1","1976","community","2","2017-03-27 15:06:11","7782"
"A3GIIL73GE2CBQ","cs_wg_v3_real2","3PEIJLRY6TU82FG9IT19ZLMAAHUXWQ","20","0","BASKET","10","5","0","1627","basket","10","2017-03-27 15:06:11","7783"
"A3CFBT2CBQQIZY","cs_wg_v3_real2","35K3O9HUABEXLT3XXZ1H78F3Z8UFE2","40","0","LADDER","10","5","1","835","Ladder","10","2017-03-27 15:06:11","7784"
"AKCH7EGJBNV43","cs_wg_v3_real2","3VHP9MDGRNLIOVJJ18VMHKF0EWHFC9","5","0","BASKET","0","5","1","3438","BASKET","0","2017-03-27 15:06:12","7785"
"A138BU1VWM2RKN","cs_wg_v3_real2","3OJSZ2ATDSXKAHVY4FA2FMW9ORC57N","3","0","WEDDING","0","5","0","2419","wedding","0","2017-03-27 15:06:12","7786"
"A23KAJRDVCVGOE
","cs_wg_v3_real2","3BWI6RSP7GAK60ORFG35JG2M1KB7EQ","24","0","DOORWAY","0","5","1","3579","DOORWAY

","5","2017-03-27 15:06:12","7787"
"A173LV77LF3SHB","cs_wg_v3_real2","30JNVC0OR9L6WSK81GKH4AGUYQVHQE","7","0","DOORWAY","1","5","1","2291","doorway","0","2017-03-27 15:06:13","7788"
"A19WXS1CLVLEEX","cs_wg_v3_real2","3QAPZX2QN4EET9CR1XNV20JAW3F20J","27","0","WEDDING","1","5","1","5750","wedding","1","2017-03-27 15:06:13","7789"
"AZIY6IFOS4CVC","cs_wg_v3_real2","3CP1TO84PT2DOGYSY3T7JVF1DBQ254","28","0","UMBRELLA","8","5","0","4387","UMBRELLA","8","2017-03-27 15:06:14","7790"
"A2QUQ0S2F6K3QJ","cs_wg_v3_real2","3Z7VU45IPYI4690LMN093GCRM4K1ZT","22","0","UMBRELLA","8","5","0","1948","UMBRELLA","8","2017-03-27 15:06:14","7791"
"AW0MG225VXWCN","cs_wg_v3_real2","3N2BF7Y2VQVFBDMG9ND0N1WPOPYHMR","44","0","BASKET","1","5","1","1165","basket","1","2017-03-27 15:06:15","7792"
"A2BW6WD7LZ9EGV","cs_wg_v3_real2","3Q5ZZ9ZEVOGOAV0HEK28TMS4ZBI58A","50","0","BASKET","1","5","1","2093","BASKET","1","2017-03-27 15:06:16","7793"
"A2R794P3E8X0MK","cs_wg_v3_real2","3JZQSN0I3QBV57ZO3UR57B0FCO9FGJ","4","0","DOORWAY","9","5","0","1758","doorway","9","2017-03-27 15:06:16","7794"
"AB1X97ASE626Q","cs_wg_v3_real2","33OOO72IVHMS701KWS0BYOU155PCTE","24","0","HELICOPTER","2","5","1","3803","helicopter","2","2017-03-27 15:06:16","7795"
"AEF74ZYJTTEIA","cs_wg_v3_real2","3QAVNHZ3EM5GV8WH352T62UWBPIAL7","72","0","MACHINE","8","5","0","834","machine","8","2017-03-27 15:06:16","7796"
"A395K5HZYPN0S7","cs_wg_v3_real2","38F5OAUN5NDWQAFT5HBB4JZZT037H6","35","0","HELICOPTER","9","5","0","2123","helicopter","9","2017-03-27 15:06:17","7797"
"A303U3NB6DSHBF","cs_wg_v3_real2","3PM8NZGV8YH3IIKN6K237W4OMGDXQM","11","0","STRUCTURE","9","5","0","3581","structure","9
9","2017-03-27 15:06:19","7798"
"A3CFBT2CBQQIZY","cs_wg_v3_real2","35K3O9HUABEXLT3XXZ1H78F3Z8UFE2","41","0","HELICOPTER","9","5","0","2386","Helicopter","9","2017-03-27 15:06:20","7799"
"A16UAN46CNIRHY","cs_wg_v3_real2","3WOKGM4L71HS0G1WOVLS9DMDX8B0ON","1","0","WEDDING","0","5","0","5238","wedding","0","2017-03-27 15:06:21","7800"
"A22IQZRDAMSNDE","cs_wg_v3_real2","3VHHR074H3IYC6YJW2Q9WBS6AHC7LD","43","0","COMMUNITY","1","5","1","1373","community","1","2017-03-27 15:06:21","7801"
"A1PZ1YZAQEXRSQ","cs_wg_v3_real2","3K2755HG5S4STNPX14QX1QXIZWTFD9","21","0","UMBRELLA","10","5","0","2794","umbrella","10","2017-03-27 15:06:21","7802"
"A36662QQDZ9J3R","cs_wg_v3_real2","3EWIJTFFVO86OPO7UHIW41SZT650EJ","13","0","STOMACH","10","5","1","2486","stomach","10","2017-03-27 15:06:22","7803"
"A2UHF7UL7G0Y78","cs_wg_v3_real2","39JEC7537U27KS591N0QZ6IM2Q5CVU","7","0","UMBRELLA","10","5","0","58857","UMBRELLA","10","2017-03-27 15:06:22","7804"
"AEF74ZYJTTEIA","cs_wg_v3_real2","3QAVNHZ3EM5GV8WH352T62UWBPIAL7","73","0","COMMUNITY","8","5","0","652","community","8","2017-03-27 15:06:23","7805"
"A138BU1VWM2RKN","cs_wg_v3_real2","3OJSZ2ATDSXKAHVY4FA2FMW9ORC57N","4","0","STOMACH","2","5","0","1850","stomach","2","2017-03-27 15:06:23","7806"
"A2F93SIUUV5HQH","cs_wg_v3_real2","3HL8HNGX452GQXCGPOLVFUES8BEF9S","25","0","BOOKSHELF","0","5","1","6104","BOOKSHELF","0","2017-03-27 15:06:23","7807"
"A2BW6WD7LZ9EGV","cs_wg_v3_real2","3Q5ZZ9ZEVOGOAV0HEK28TMS4ZBI58A","51","0","UMBRELLA","10","5","0","1526","UMBRELLA","10","2017-03-27 15:06:24","7808"
"AW0MG225VXWCN","cs_wg_v3_real2","3N2BF7Y2VQVFBDMG9ND0N1WPOPYHMR","45","0","FOOTBALL","0","5","1","1559","football","0","2017-03-27 15:06:24","7809"
"A23KAJRDVCVGOE
","cs_wg_v3_real2","3BWI6RSP7GAK60ORFG35JG2M1KB7EQ","25","0","STRUCTURE","10","5","0","4566","STRUCTURE

","10","2017-03-27 15:06:27","7810"
"A1LB9JOMFQ1UMG","cs_wg_v3_real2","3WMINLGALB4NS42BQS9U3J49HG4ACR","17","0","BOOKSHELF","1","5","1","12935","bookshelf","1","2017-03-27 15:06:27","7811"
"A2R794P3E8X0MK","cs_wg_v3_real2","3JZQSN0I3QBV57ZO3UR57B0FCO9FGJ","5","0","STOMACH","2","5","0","535","stomach","2","2017-03-27 15:06:27","7812"
"A3GIIL73GE2CBQ","cs_wg_v3_real2","3PEIJLRY6TU82FG9IT19ZLMAAHUXWQ","21","0","BASKET","10","5","0","1491","basket","10","2017-03-27 15:06:27","7813"
