"subject","version","assignmentId","trial","trial_type","word","value","alt","choice","rt","resp","resp2","stamp","id"
"A317L37U2W6R4P","cs_wg_v6_pilot2","39O5D9O87TTN8J3QHDUKGBQ448H3CS","0","1","STRUCTURE","1","TINGER","0","3442","structure",NULL,"2017-09-26 20:05:27","94491"
"A317L37U2W6R4P","cs_wg_v6_pilot2","39O5D9O87TTN8J3QHDUKGBQ448H3CS","1","0","TRAFFIC","1","DUNCHED","1","989","traffic",NULL,"2017-09-26 20:05:38","94492"
"A317L37U2W6R4P","cs_wg_v6_pilot2","39O5D9O87TTN8J3QHDUKGBQ448H3CS","2","1","BOOKSHELF","1","CHAXED","1","1857","bookshelf",NULL,"2017-09-26 20:05:49","94493"
"A317L37U2W6R4P","cs_wg_v6_pilot2","39O5D9O87TTN8J3QHDUKGBQ448H3CS","3","0","BOOKSHELF","1","MEAKEN","1","2346","bookshelf",NULL,"2017-09-26 20:06:00","94494"
"A317L37U2W6R4P","cs_wg_v6_pilot2","39O5D9O87TTN8J3QHDUKGBQ448H3CS","4","1","BOOKSHELF","1","ZORING","1","1164","bookshelf",NULL,"2017-09-26 20:06:10","94495"
"A317L37U2W6R4P","cs_wg_v6_pilot2","39O5D9O87TTN8J3QHDUKGBQ448H3CS","5","0","BASKET","1","HOTCHACK","1","1532","basket",NULL,"2017-09-26 20:06:46","94496"
"A317L37U2W6R4P","cs_wg_v6_pilot2","39O5D9O87TTN8J3QHDUKGBQ448H3CS","6","0","BOOKSHELF","1","FIPPING","1","1439","bookshelf",NULL,"2017-09-26 20:06:55","94497"
"A317L37U2W6R4P","cs_wg_v6_pilot2","39O5D9O87TTN8J3QHDUKGBQ448H3CS","7","0","WEDDING","1","CHOOTH","1","1518","wedding",NULL,"2017-09-26 20:07:03","94498"
"A317L37U2W6R4P","cs_wg_v6_pilot2","39O5D9O87TTN8J3QHDUKGBQ448H3CS","8","1","STRUCTURE","1","NARDLY","1","1645","structure",NULL,"2017-09-26 20:07:12","94499"
"A317L37U2W6R4P","cs_wg_v6_pilot2","39O5D9O87TTN8J3QHDUKGBQ448H3CS","9","0","FOOTBALL","1","PLIBBERED","1","989","football",NULL,"2017-09-26 20:07:21","94500"
"A317L37U2W6R4P","cs_wg_v6_pilot2","39O5D9O87TTN8J3QHDUKGBQ448H3CS","10","0","STOMACH","1","ZORING","1","1842","stomach",NULL,"2017-09-26 20:07:34","94501"
"A317L37U2W6R4P","cs_wg_v6_pilot2","39O5D9O87TTN8J3QHDUKGBQ448H3CS","11","0","STOMACH","1","WUGGED","1","960","stomach",NULL,"2017-09-26 20:07:46","94502"
"A317L37U2W6R4P","cs_wg_v6_pilot2","39O5D9O87TTN8J3QHDUKGBQ448H3CS","12","0","UMBRELLA","1","NARDLY","1","1321","umbrella",NULL,"2017-09-26 20:07:56","94503"
"A317L37U2W6R4P","cs_wg_v6_pilot2","39O5D9O87TTN8J3QHDUKGBQ448H3CS","13","0","LADDER","1","GLUNDLE","1","1194","ladder",NULL,"2017-09-26 20:08:09","94504"
"A317L37U2W6R4P","cs_wg_v6_pilot2","39O5D9O87TTN8J3QHDUKGBQ448H3CS","14","1","UMBRELLA","1","NARDLY","1","2755","umbrella",NULL,"2017-09-26 20:08:20","94505"
"A317L37U2W6R4P","cs_wg_v6_pilot2","39O5D9O87TTN8J3QHDUKGBQ448H3CS","15","0","COMMUNITY","1","POATS","1","3656","community",NULL,"2017-09-26 20:08:31","94506"
"A317L37U2W6R4P","cs_wg_v6_pilot2","39O5D9O87TTN8J3QHDUKGBQ448H3CS","16","1","HELICOPTER","1","CLEEPERS","1","3001","helicopter",NULL,"2017-09-26 20:08:46","94507"
"A317L37U2W6R4P","cs_wg_v6_pilot2","39O5D9O87TTN8J3QHDUKGBQ448H3CS","17","1","UMBRELLA","1","FROPED","1","3425","umbrella",NULL,"2017-09-26 20:09:00","94508"
"A317L37U2W6R4P","cs_wg_v6_pilot2","39O5D9O87TTN8J3QHDUKGBQ448H3CS","18","1","HELICOPTER","1","SNAVE","1","1138","helicopter",NULL,"2017-09-26 20:09:09","94509"
"A317L37U2W6R4P","cs_wg_v6_pilot2","39O5D9O87TTN8J3QHDUKGBQ448H3CS","19","0","FOOTBALL","1","PLIBBERED","1","1995","football",NULL,"2017-09-26 20:09:18","94510"
"A317L37U2W6R4P","cs_wg_v6_pilot2","39O5D9O87TTN8J3QHDUKGBQ448H3CS","20","0","HELICOPTER","1","FLEMMERING","1","3162","helicopter",NULL,"2017-09-26 20:09:30","94511"
"A317L37U2W6R4P","cs_wg_v6_pilot2","39O5D9O87TTN8J3QHDUKGBQ448H3CS","21","1","LADDER","1","CHAXED","1","2386","ladder",NULL,"2017-09-26 20:09:41","94512"
"A317L37U2W6R4P","cs_wg_v6_pilot2","39O5D9O87TTN8J3QHDUKGBQ448H3CS","22","0","KEYBOARD","1","FROPED","1","1955","keyboard",NULL,"2017-09-26 20:09:52","94513"
"A317L37U2W6R4P","cs_wg_v6_pilot2","39O5D9O87TTN8J3QHDUKGBQ448H3CS","23","0","UMBRELLA","1","MUDLEY","1","3616","umbrella",NULL,"2017-09-26 20:10:06","94514"
"A317L37U2W6R4P","cs_wg_v6_pilot2","39O5D9O87TTN8J3QHDUKGBQ448H3CS","24","1","LADDER","1","CHOOTH","1","1699","ladder",NULL,"2017-09-26 20:10:14","94515"
"A317L37U2W6R4P","cs_wg_v6_pilot2","39O5D9O87TTN8J3QHDUKGBQ448H3CS","25","0","STRUCTURE","1","THOCKY","1","1917","structure",NULL,"2017-09-26 20:10:24","94516"
"A317L37U2W6R4P","cs_wg_v6_pilot2","39O5D9O87TTN8J3QHDUKGBQ448H3CS","26","0","UMBRELLA","1","CLEEPERS","1","992","umbrella",NULL,"2017-09-26 20:10:36","94517"
"A317L37U2W6R4P","cs_wg_v6_pilot2","39O5D9O87TTN8J3QHDUKGBQ448H3CS","27","0","COMMUNITY","1","FROPED","1","1506","community",NULL,"2017-09-26 20:10:44","94518"
"A1DIW2K1J89CMO","cs_wg_v6_pilot2","32ZKVD547FO4YEBK3DYP5RKMMNH3BL","0","1","TRAFFIC","1","STEAVES","1","3184","traffic",NULL,"2017-09-26 20:10:49","94519"
"A317L37U2W6R4P","cs_wg_v6_pilot2","39O5D9O87TTN8J3QHDUKGBQ448H3CS","28","1","TRAFFIC","1","MEAKEN","1","862","traffic",NULL,"2017-09-26 20:10:52","94520"
"A1DIW2K1J89CMO","cs_wg_v6_pilot2","32ZKVD547FO4YEBK3DYP5RKMMNH3BL","1","0","BASKET","1","CLEEPERS","1","2047","basket",NULL,"2017-09-26 20:11:00","94521"
"A317L37U2W6R4P","cs_wg_v6_pilot2","39O5D9O87TTN8J3QHDUKGBQ448H3CS","29","1","BASKET","1","DUNCHED","1","1595","basket",NULL,"2017-09-26 20:11:03","94522"
"A1DIW2K1J89CMO","cs_wg_v6_pilot2","32ZKVD547FO4YEBK3DYP5RKMMNH3BL","2","1","UMBRELLA","1","SURSED","1","2061","umbrella",NULL,"2017-09-26 20:11:10","94523"
"A317L37U2W6R4P","cs_wg_v6_pilot2","39O5D9O87TTN8J3QHDUKGBQ448H3CS","30","0","HELICOPTER","1","THOCKY","1","3531","helicopter",NULL,"2017-09-26 20:11:14","94524"
"A1DIW2K1J89CMO","cs_wg_v6_pilot2","32ZKVD547FO4YEBK3DYP5RKMMNH3BL","3","0","BOOKSHELF","1","PLIBBERED","1","1251","bookshelf",NULL,"2017-09-26 20:11:19","94525"
"A317L37U2W6R4P","cs_wg_v6_pilot2","39O5D9O87TTN8J3QHDUKGBQ448H3CS","31","1","BASKET","1","ROAKING","1","1139","basket",NULL,"2017-09-26 20:11:21","94526"
"A1DIW2K1J89CMO","cs_wg_v6_pilot2","32ZKVD547FO4YEBK3DYP5RKMMNH3BL","4","0","STOMACH","1","HOTCHACK","1","3332","stomach",NULL,"2017-09-26 20:11:30","94527"
"A317L37U2W6R4P","cs_wg_v6_pilot2","39O5D9O87TTN8J3QHDUKGBQ448H3CS","32","1","DOORWAY","1","DUNCHED","1","1687","doorway",NULL,"2017-09-26 20:11:33","94528"
"ATGUAXNWCW8NI","cs_wg_v6_pilot2","3KJYX6QCM9CUS6BFBFHCMAVILCIVJU","0","1","BASKET","1","NARDLY","1","5864","basket",NULL,"2017-09-26 20:11:37","94529"
"A1DIW2K1J89CMO","cs_wg_v6_pilot2","32ZKVD547FO4YEBK3DYP5RKMMNH3BL","5","0","STRUCTURE","1","ZORING","1","2384","structure",NULL,"2017-09-26 20:11:39","94530"
"A317L37U2W6R4P","cs_wg_v6_pilot2","39O5D9O87TTN8J3QHDUKGBQ448H3CS","33","0","STRUCTURE","1","NARDLY","1","1697","structure",NULL,"2017-09-26 20:11:41","94531"
"A1DIW2K1J89CMO","cs_wg_v6_pilot2","32ZKVD547FO4YEBK3DYP5RKMMNH3BL","6","0","FOOTBALL","1","FIPPING","1","1218","football",NULL,"2017-09-26 20:11:48","94532"
"ATGUAXNWCW8NI","cs_wg_v6_pilot2","3KJYX6QCM9CUS6BFBFHCMAVILCIVJU","1","0","BASKET","1","JADDEARED","1","3401","basket",NULL,"2017-09-26 20:11:49","94533"
"A317L37U2W6R4P","cs_wg_v6_pilot2","39O5D9O87TTN8J3QHDUKGBQ448H3CS","34","1","KEYBOARD","1","CHOOTH","1","1605","keyboard",NULL,"2017-09-26 20:11:51","94534"
"A1DIW2K1J89CMO","cs_wg_v6_pilot2","32ZKVD547FO4YEBK3DYP5RKMMNH3BL","7","1","MACHINE","1","PLIBBERED","1","1986","machine",NULL,"2017-09-26 20:11:57","94535"
"A317L37U2W6R4P","cs_wg_v6_pilot2","39O5D9O87TTN8J3QHDUKGBQ448H3CS","35","1","TRAFFIC","1","DROOFER","1","2872","traffic",NULL,"2017-09-26 20:12:01","94536"
"ATGUAXNWCW8NI","cs_wg_v6_pilot2","3KJYX6QCM9CUS6BFBFHCMAVILCIVJU","2","0","STRUCTURE","1","FROPED","1","4900","structure",NULL,"2017-09-26 20:12:02","94537"
"A1DIW2K1J89CMO","cs_wg_v6_pilot2","32ZKVD547FO4YEBK3DYP5RKMMNH3BL","8","0","BOOKSHELF","1","WUGGED","1","1231","bookshelf",NULL,"2017-09-26 20:12:05","94538"
"A317L37U2W6R4P","cs_wg_v6_pilot2","39O5D9O87TTN8J3QHDUKGBQ448H3CS","36","1","KEYBOARD","1","DROOFER","1","1301","keyboard",NULL,"2017-09-26 20:12:11","94539"
"ATGUAXNWCW8NI","cs_wg_v6_pilot2","3KJYX6QCM9CUS6BFBFHCMAVILCIVJU","3","0","FOOTBALL","1","ROAKING","1","3429","FOOTBALL",NULL,"2017-09-26 20:12:11","94540"
"A1DIW2K1J89CMO","cs_wg_v6_pilot2","32ZKVD547FO4YEBK3DYP5RKMMNH3BL","9","0","KEYBOARD","1","FLEMMERING","1","1655","keyboard",NULL,"2017-09-26 20:12:15","94541"
"A317L37U2W6R4P","cs_wg_v6_pilot2","39O5D9O87TTN8J3QHDUKGBQ448H3CS","37","0","BOOKSHELF","1","MEAKEN","1","959","bookshelf",NULL,"2017-09-26 20:12:19","94542"
"ATGUAXNWCW8NI","cs_wg_v6_pilot2","3KJYX6QCM9CUS6BFBFHCMAVILCIVJU","4","1","FOOTBALL","1","CHAXED","0","2624","FOOTBALL",NULL,"2017-09-26 20:12:20","94543"
"A1DIW2K1J89CMO","cs_wg_v6_pilot2","32ZKVD547FO4YEBK3DYP5RKMMNH3BL","10","0","BASKET","1","TINGER","1","1606","basket",NULL,"2017-09-26 20:12:24","94544"
"A317L37U2W6R4P","cs_wg_v6_pilot2","39O5D9O87TTN8J3QHDUKGBQ448H3CS","38","1","STOMACH","1","SCREEP","1","1179","stomach",NULL,"2017-09-26 20:12:28","94545"
"ATGUAXNWCW8NI","cs_wg_v6_pilot2","3KJYX6QCM9CUS6BFBFHCMAVILCIVJU","5","1","TRAFFIC","1","SCREEP","1","3841","TRAFFIC",NULL,"2017-09-26 20:12:30","94546"
"A1DIW2K1J89CMO","cs_wg_v6_pilot2","32ZKVD547FO4YEBK3DYP5RKMMNH3BL","11","1","UMBRELLA","1","BLICKET","1","1911","umbrella",NULL,"2017-09-26 20:12:33","94547"
"A317L37U2W6R4P","cs_wg_v6_pilot2","39O5D9O87TTN8J3QHDUKGBQ448H3CS","39","1","MACHINE","1","CHAXED","1","642","machine",NULL,"2017-09-26 20:12:35","94548"
"ATGUAXNWCW8NI","cs_wg_v6_pilot2","3KJYX6QCM9CUS6BFBFHCMAVILCIVJU","6","0","BASKET","1","FLEMMERING","1","2655","BASKET",NULL,"2017-09-26 20:12:38","94549"
"A1DIW2K1J89CMO","cs_wg_v6_pilot2","32ZKVD547FO4YEBK3DYP5RKMMNH3BL","12","0","BASKET","1","CHEEDLE","1","1935","basket",NULL,"2017-09-26 20:12:41","94550"
"A317L37U2W6R4P","cs_wg_v6_pilot2","39O5D9O87TTN8J3QHDUKGBQ448H3CS","40","1","LADDER","1","MICKERED","1","1032","ladder",NULL,"2017-09-26 20:12:47","94551"
"ATGUAXNWCW8NI","cs_wg_v6_pilot2","3KJYX6QCM9CUS6BFBFHCMAVILCIVJU","7","0","LADDER","1","CHAXED","1","4888","LADDER

",NULL,"2017-09-26 20:12:48","94552"
"A1DIW2K1J89CMO","cs_wg_v6_pilot2","32ZKVD547FO4YEBK3DYP5RKMMNH3BL","13","1","BOOKSHELF","1","SURSED","1","2044","bookshelf",NULL,"2017-09-26 20:12:50","94553"
"A317L37U2W6R4P","cs_wg_v6_pilot2","39O5D9O87TTN8J3QHDUKGBQ448H3CS","41","0","STRUCTURE","1","GLUNDLE","1","1107","structure",NULL,"2017-09-26 20:12:55","94554"
"A1DIW2K1J89CMO","cs_wg_v6_pilot2","32ZKVD547FO4YEBK3DYP5RKMMNH3BL","14","1","MACHINE","1","ZORING","1","1583","machine",NULL,"2017-09-26 20:12:58","94555"
"ATGUAXNWCW8NI","cs_wg_v6_pilot2","3KJYX6QCM9CUS6BFBFHCMAVILCIVJU","8","0","FOOTBALL","1","TINGER","1","5104","FOOTBALL",NULL,"2017-09-26 20:13:00","94556"
"A1DIW2K1J89CMO","cs_wg_v6_pilot2","32ZKVD547FO4YEBK3DYP5RKMMNH3BL","15","1","BASKET","1","CHAXED","1","1632","basket",NULL,"2017-09-26 20:13:05","94557"
"A317L37U2W6R4P","cs_wg_v6_pilot2","39O5D9O87TTN8J3QHDUKGBQ448H3CS","42","1","UMBRELLA","1","ZORING","1","4282","umbrella",NULL,"2017-09-26 20:13:06","94558"
"ATGUAXNWCW8NI","cs_wg_v6_pilot2","3KJYX6QCM9CUS6BFBFHCMAVILCIVJU","9","0","LADDER","1","CLEEPERS","1","2750","LADDER",NULL,"2017-09-26 20:13:08","94559"
"A1DIW2K1J89CMO","cs_wg_v6_pilot2","32ZKVD547FO4YEBK3DYP5RKMMNH3BL","16","0","STOMACH","1","SURSED","1","1266","stomach",NULL,"2017-09-26 20:13:13","94560"
"A317L37U2W6R4P","cs_wg_v6_pilot2","39O5D9O87TTN8J3QHDUKGBQ448H3CS","43","1","STRUCTURE","1","NARDLY","1","1389","structure",NULL,"2017-09-26 20:13:15","94561"
"ATGUAXNWCW8NI","cs_wg_v6_pilot2","3KJYX6QCM9CUS6BFBFHCMAVILCIVJU","10","1","TRAFFIC","1","FROPED","0","3358","TRAFFIC",NULL,"2017-09-26 20:13:18","94562"
"A317L37U2W6R4P","cs_wg_v6_pilot2","39O5D9O87TTN8J3QHDUKGBQ448H3CS","44","0","DOORWAY","1","CLEEPERS","1","1364","doorway",NULL,"2017-09-26 20:13:22","94563"
"ATGUAXNWCW8NI","cs_wg_v6_pilot2","3KJYX6QCM9CUS6BFBFHCMAVILCIVJU","11","0","FOOTBALL","1","MICKERED","1","1898","FOOTBALL",NULL,"2017-09-26 20:13:25","94564"
"A317L37U2W6R4P","cs_wg_v6_pilot2","39O5D9O87TTN8J3QHDUKGBQ448H3CS","45","0","MACHINE","1","CHOOTH","1","1108","machine",NULL,"2017-09-26 20:13:30","94565"
"A1DIW2K1J89CMO","cs_wg_v6_pilot2","32ZKVD547FO4YEBK3DYP5RKMMNH3BL","17","0","TRAFFIC","1","NARDLY","1","4829","traffic",NULL,"2017-09-26 20:13:31","94566"
"ATGUAXNWCW8NI","cs_wg_v6_pilot2","3KJYX6QCM9CUS6BFBFHCMAVILCIVJU","12","0","TRAFFIC","1","CLEEPERS","1","1805","TRAFFIC",NULL,"2017-09-26 20:13:33","94567"
"A317L37U2W6R4P","cs_wg_v6_pilot2","39O5D9O87TTN8J3QHDUKGBQ448H3CS","46","1","BOOKSHELF","1","CLEEPERS","1","654","bookshelf",NULL,"2017-09-26 20:13:37","94568"
"ATGUAXNWCW8NI","cs_wg_v6_pilot2","3KJYX6QCM9CUS6BFBFHCMAVILCIVJU","13","0","STOMACH","1","MURRADS","1","1769","STOMACH",NULL,"2017-09-26 20:13:42","94569"
"A1DIW2K1J89CMO","cs_wg_v6_pilot2","32ZKVD547FO4YEBK3DYP5RKMMNH3BL","18","0","KEYBOARD","1","WUGGED","1","1213","keyboard",NULL,"2017-09-26 20:13:42","94570"
"A317L37U2W6R4P","cs_wg_v6_pilot2","39O5D9O87TTN8J3QHDUKGBQ448H3CS","47","1","BOOKSHELF","1","SURSED","1","767","bookshelf",NULL,"2017-09-26 20:13:45","94571"
"ATGUAXNWCW8NI","cs_wg_v6_pilot2","3KJYX6QCM9CUS6BFBFHCMAVILCIVJU","14","1","MACHINE","1","TINGER","0","2284","MACHINE",NULL,"2017-09-26 20:13:52","94572"
"A317L37U2W6R4P","cs_wg_v6_pilot2","39O5D9O87TTN8J3QHDUKGBQ448H3CS","48","1","FOOTBALL","1","CHAXED","1","647","football",NULL,"2017-09-26 20:13:53","94573"
"ATGUAXNWCW8NI","cs_wg_v6_pilot2","3KJYX6QCM9CUS6BFBFHCMAVILCIVJU","15","1","COMMUNITY","1","JADDEARED","1","3816","COMMUNITY",NULL,"2017-09-26 20:14:02","94574"
"ATGUAXNWCW8NI","cs_wg_v6_pilot2","3KJYX6QCM9CUS6BFBFHCMAVILCIVJU","16","0","KEYBOARD","1","CHAXED","1","2973","KEYBOARD",NULL,"2017-09-26 20:14:11","94575"
"A1DIW2K1J89CMO","cs_wg_v6_pilot2","32ZKVD547FO4YEBK3DYP5RKMMNH3BL","19","1","DOORWAY","1","DROOFER","1","1750","doorway",NULL,"2017-09-26 20:14:28","94576"
"A3H9A9RWEEL8FY","cs_wg_v6_pilot2","3WETL7AQWT929YUB237C25KUCRV35K","0","1","BASKET","1","THOCKY","1","4060","basket",NULL,"2017-09-26 20:14:35","94577"
"ATGUAXNWCW8NI","cs_wg_v6_pilot2","3KJYX6QCM9CUS6BFBFHCMAVILCIVJU","17","1","BOOKSHELF","1","MICKERED","1","19219","BOOKSHELF",NULL,"2017-09-26 20:14:36","94578"
"A1DIW2K1J89CMO","cs_wg_v6_pilot2","32ZKVD547FO4YEBK3DYP5RKMMNH3BL","20","0","UMBRELLA","1","STEAVES","1","1165","umbrella",NULL,"2017-09-26 20:14:40","94579"
"A317L37U2W6R4P","cs_wg_v6_pilot2","39O5D9O87TTN8J3QHDUKGBQ448H3CS","0","0","MACHINE","1","CLEEPERS","1","1109","machine",NULL,"2017-09-26 20:14:48","94580"
"A1DIW2K1J89CMO","cs_wg_v6_pilot2","32ZKVD547FO4YEBK3DYP5RKMMNH3BL","21","1","WEDDING","1","ZALEY","1","1929","wedding",NULL,"2017-09-26 20:14:49","94581"
"A3H9A9RWEEL8FY","cs_wg_v6_pilot2","3WETL7AQWT929YUB237C25KUCRV35K","1","0","STRUCTURE","1","SCREEP","1","4246","structure",NULL,"2017-09-26 20:14:50","94582"
"ATGUAXNWCW8NI","cs_wg_v6_pilot2","3KJYX6QCM9CUS6BFBFHCMAVILCIVJU","18","0","COMMUNITY","1","DUNCHED","1","8639","COMMUNITY",NULL,"2017-09-26 20:14:50","94583"
"A317L37U2W6R4P","cs_wg_v6_pilot2","39O5D9O87TTN8J3QHDUKGBQ448H3CS","1","1","BASKET","1","THOCKY","1","1295","basket",NULL,"2017-09-26 20:14:54","94584"
"A1DIW2K1J89CMO","cs_wg_v6_pilot2","32ZKVD547FO4YEBK3DYP5RKMMNH3BL","22","0","HELICOPTER","1","WOOKED","1","2442","helicopter",NULL,"2017-09-26 20:14:58","94585"
"ATGUAXNWCW8NI","cs_wg_v6_pilot2","3KJYX6QCM9CUS6BFBFHCMAVILCIVJU","19","1","WEDDING","1","CHEEDLE","1","3218","WEDDING",NULL,"2017-09-26 20:14:59","94586"
"A3H9A9RWEEL8FY","cs_wg_v6_pilot2","3WETL7AQWT929YUB237C25KUCRV35K","2","1","MACHINE","1","SCRIGGED","1","1920","machine",NULL,"2017-09-26 20:14:59","94587"
"A317L37U2W6R4P","cs_wg_v6_pilot2","39O5D9O87TTN8J3QHDUKGBQ448H3CS","2","1","BOOKSHELF","1","SCREEP","1","895","bookshelf",NULL,"2017-09-26 20:15:02","94588"
"A3H9A9RWEEL8FY","cs_wg_v6_pilot2","3WETL7AQWT929YUB237C25KUCRV35K","3","0","BASKET","1","MUDLEY","1","2151","basket",NULL,"2017-09-26 20:15:09","94589"
"A317L37U2W6R4P","cs_wg_v6_pilot2","39O5D9O87TTN8J3QHDUKGBQ448H3CS","3","1","KEYBOARD","1","ROAKING","1","1207","keyboard",NULL,"2017-09-26 20:15:11","94590"
"A3H9A9RWEEL8FY","cs_wg_v6_pilot2","3WETL7AQWT929YUB237C25KUCRV35K","4","0","STRUCTURE","1","POATS","1","2215","structure",NULL,"2017-09-26 20:15:18","94591"
"A317L37U2W6R4P","cs_wg_v6_pilot2","39O5D9O87TTN8J3QHDUKGBQ448H3CS","4","0","UMBRELLA","1","SCRIGGED","1","3463","umbrella",NULL,"2017-09-26 20:15:22","94592"
"A3H9A9RWEEL8FY","cs_wg_v6_pilot2","3WETL7AQWT929YUB237C25KUCRV35K","5","1","DOORWAY","1","NARDLY","1","3238","doorway",NULL,"2017-09-26 20:15:28","94593"
"A317L37U2W6R4P","cs_wg_v6_pilot2","39O5D9O87TTN8J3QHDUKGBQ448H3CS","5","1","BASKET","1","VATED","1","1096","basket",NULL,"2017-09-26 20:15:33","94594"
"A3H9A9RWEEL8FY","cs_wg_v6_pilot2","3WETL7AQWT929YUB237C25KUCRV35K","6","1","STRUCTURE","1","TINGER","1","1293","structure",NULL,"2017-09-26 20:15:36","94595"
"A317L37U2W6R4P","cs_wg_v6_pilot2","39O5D9O87TTN8J3QHDUKGBQ448H3CS","6","1","STOMACH","1","MEAKEN","1","736","stomach",NULL,"2017-09-26 20:15:42","94596"
"A3H9A9RWEEL8FY","cs_wg_v6_pilot2","3WETL7AQWT929YUB237C25KUCRV35K","7","1","BASKET","1","JADDEARED","1","931","basket",NULL,"2017-09-26 20:15:43","94597"
"A1DIW2K1J89CMO","cs_wg_v6_pilot2","32ZKVD547FO4YEBK3DYP5RKMMNH3BL","23","0","BASKET","1","SNAVE","1","2194","butterfly",NULL,"2017-09-26 20:15:49","94598"
"A3H9A9RWEEL8FY","cs_wg_v6_pilot2","3WETL7AQWT929YUB237C25KUCRV35K","8","0","LADDER","1","THOCKY","1","1532","ladder",NULL,"2017-09-26 20:15:51","94599"
"A3EJ44J2ZNRMDA","cs_wg_v6_pilot2","3BF51CHDTVBI8ZF9KIQ2P4PDEO20H3","0","1","FOOTBALL","1","SURSED","1","6515","football",NULL,"2017-09-26 20:15:53","94600"
"A317L37U2W6R4P","cs_wg_v6_pilot2","39O5D9O87TTN8J3QHDUKGBQ448H3CS","7","0","FOOTBALL","1","POATS","1","4438","football",NULL,"2017-09-26 20:15:53","94601"
"A1DIW2K1J89CMO","cs_wg_v6_pilot2","32ZKVD547FO4YEBK3DYP5RKMMNH3BL","24","0","UMBRELLA","1","JADDEARED","1","1746","umbrella",NULL,"2017-09-26 20:15:57","94602"
"A3H9A9RWEEL8FY","cs_wg_v6_pilot2","3WETL7AQWT929YUB237C25KUCRV35K","9","1","DOORWAY","1","MEAKEN","1","1015","doorway",NULL,"2017-09-26 20:15:58","94603"
"A317L37U2W6R4P","cs_wg_v6_pilot2","39O5D9O87TTN8J3QHDUKGBQ448H3CS","8","1","COMMUNITY","1","CHEEDLE","1","1046","community",NULL,"2017-09-26 20:16:00","94604"
"A1DIW2K1J89CMO","cs_wg_v6_pilot2","32ZKVD547FO4YEBK3DYP5RKMMNH3BL","25","1","BASKET","1","HOTCHACK","1","1781","basket",NULL,"2017-09-26 20:16:05","94605"
"A3EJ44J2ZNRMDA","cs_wg_v6_pilot2","3BF51CHDTVBI8ZF9KIQ2P4PDEO20H3","1","1","UMBRELLA","1","WUGGED","1","1969","unbrella",NULL,"2017-09-26 20:16:06","94606"
"A3H9A9RWEEL8FY","cs_wg_v6_pilot2","3WETL7AQWT929YUB237C25KUCRV35K","10","0","TRAFFIC","1","MEAKEN","1","1742","traffic",NULL,"2017-09-26 20:16:07","94607"
"A317L37U2W6R4P","cs_wg_v6_pilot2","39O5D9O87TTN8J3QHDUKGBQ448H3CS","9","1","KEYBOARD","1","MUDLEY","1","847","keyboard",NULL,"2017-09-26 20:16:12","94608"
"A3H9A9RWEEL8FY","cs_wg_v6_pilot2","3WETL7AQWT929YUB237C25KUCRV35K","11","0","MACHINE","1","POATS","1","1842","machine",NULL,"2017-09-26 20:16:15","94609"
"A1DIW2K1J89CMO","cs_wg_v6_pilot2","32ZKVD547FO4YEBK3DYP5RKMMNH3BL","26","0","BOOKSHELF","1","HOTCHACK","1","1478","bookshelf",NULL,"2017-09-26 20:16:15","94610"
"A3EJ44J2ZNRMDA","cs_wg_v6_pilot2","3BF51CHDTVBI8ZF9KIQ2P4PDEO20H3","2","1","FOOTBALL","1","VATED","1","3253","FOOTBALL",NULL,"2017-09-26 20:16:16","94611"
"A317L37U2W6R4P","cs_wg_v6_pilot2","39O5D9O87TTN8J3QHDUKGBQ448H3CS","10","0","WEDDING","1","ZALEY","1","808","wedding",NULL,"2017-09-26 20:16:19","94612"
"A3H9A9RWEEL8FY","cs_wg_v6_pilot2","3WETL7AQWT929YUB237C25KUCRV35K","12","1","TRAFFIC","1","FROPED","1","967","traffic",NULL,"2017-09-26 20:16:22","94613"
"A1DIW2K1J89CMO","cs_wg_v6_pilot2","32ZKVD547FO4YEBK3DYP5RKMMNH3BL","27","0","LADDER","1","FLEMMERING","1","1098","ladder",NULL,"2017-09-26 20:16:24","94614"
"A3EJ44J2ZNRMDA","cs_wg_v6_pilot2","3BF51CHDTVBI8ZF9KIQ2P4PDEO20H3","3","0","COMMUNITY","1","NARDLY","0","3329","COMMUNITY",NULL,"2017-09-26 20:16:27","94615"
"A317L37U2W6R4P","cs_wg_v6_pilot2","39O5D9O87TTN8J3QHDUKGBQ448H3CS","11","1","LADDER","1","FROPED","1","712","ladder",NULL,"2017-09-26 20:16:30","94616"
"A3H9A9RWEEL8FY","cs_wg_v6_pilot2","3WETL7AQWT929YUB237C25KUCRV35K","13","0","UMBRELLA","1","DUNCHED","1","2313","umbrella",NULL,"2017-09-26 20:16:32","94617"
"A1DIW2K1J89CMO","cs_wg_v6_pilot2","32ZKVD547FO4YEBK3DYP5RKMMNH3BL","28","1","HELICOPTER","1","FLEMMERING","1","1602","helicopter",NULL,"2017-09-26 20:16:33","94618"
"A3EJ44J2ZNRMDA","cs_wg_v6_pilot2","3BF51CHDTVBI8ZF9KIQ2P4PDEO20H3","4","0","COMMUNITY","1","MURRADS","1","4188","COMMUNITY",NULL,"2017-09-26 20:16:40","94619"
"A317L37U2W6R4P","cs_wg_v6_pilot2","39O5D9O87TTN8J3QHDUKGBQ448H3CS","12","1","COMMUNITY","1","ROAKING","1","1735","community",NULL,"2017-09-26 20:16:40","94620"
"A3H9A9RWEEL8FY","cs_wg_v6_pilot2","3WETL7AQWT929YUB237C25KUCRV35K","14","0","COMMUNITY","1","JADDEARED","1","1562","community",NULL,"2017-09-26 20:16:41","94621"
"A1DIW2K1J89CMO","cs_wg_v6_pilot2","32ZKVD547FO4YEBK3DYP5RKMMNH3BL","29","0","TRAFFIC","1","POATS","1","2896","traffic",NULL,"2017-09-26 20:16:44","94622"
"A317L37U2W6R4P","cs_wg_v6_pilot2","39O5D9O87TTN8J3QHDUKGBQ448H3CS","13","0","HELICOPTER","1","THOCKY","1","649","helicopter",NULL,"2017-09-26 20:16:49","94623"
"A3H9A9RWEEL8FY","cs_wg_v6_pilot2","3WETL7AQWT929YUB237C25KUCRV35K","15","1","COMMUNITY","1","TINGER","1","783","community",NULL,"2017-09-26 20:16:49","94624"
"A3EJ44J2ZNRMDA","cs_wg_v6_pilot2","3BF51CHDTVBI8ZF9KIQ2P4PDEO20H3","5","0","STOMACH","1","DUNCHED","1","2547","STOMACH",NULL,"2017-09-26 20:16:51","94625"
"A1DIW2K1J89CMO","cs_wg_v6_pilot2","32ZKVD547FO4YEBK3DYP5RKMMNH3BL","30","1","KEYBOARD","1","SCRIGGED","1","1877","keyboard",NULL,"2017-09-26 20:16:55","94626"
"A3H9A9RWEEL8FY","cs_wg_v6_pilot2","3WETL7AQWT929YUB237C25KUCRV35K","16","0","KEYBOARD","1","CHAXED","1","1136","keyboard",NULL,"2017-09-26 20:16:57","94627"
"A3EJ44J2ZNRMDA","cs_wg_v6_pilot2","3BF51CHDTVBI8ZF9KIQ2P4PDEO20H3","6","0","BASKET","1","CHOOTH","1","2737","BASKET",NULL,"2017-09-26 20:17:00","94628"
"A317L37U2W6R4P","cs_wg_v6_pilot2","39O5D9O87TTN8J3QHDUKGBQ448H3CS","14","1","KEYBOARD","1","ROAKING","1","5063","keyboard",NULL,"2017-09-26 20:17:02","94629"
"A1DIW2K1J89CMO","cs_wg_v6_pilot2","32ZKVD547FO4YEBK3DYP5RKMMNH3BL","31","1","TRAFFIC","1","MICKERED","1","2622","traffic",NULL,"2017-09-26 20:17:03","94630"
"A3H9A9RWEEL8FY","cs_wg_v6_pilot2","3WETL7AQWT929YUB237C25KUCRV35K","17","1","HELICOPTER","1","FIPPING","1","782","helicopter",NULL,"2017-09-26 20:17:04","94631"
"A3EJ44J2ZNRMDA","cs_wg_v6_pilot2","3BF51CHDTVBI8ZF9KIQ2P4PDEO20H3","7","1","MACHINE","1","WUGGED","1","3079","MACHINE",NULL,"2017-09-26 20:17:10","94632"
"A3H9A9RWEEL8FY","cs_wg_v6_pilot2","3WETL7AQWT929YUB237C25KUCRV35K","18","1","HELICOPTER","1","THOCKY","1","712","helicopter",NULL,"2017-09-26 20:17:11","94633"
"A1DIW2K1J89CMO","cs_wg_v6_pilot2","32ZKVD547FO4YEBK3DYP5RKMMNH3BL","32","1","FOOTBALL","1","DROOFER","1","1880","football",NULL,"2017-09-26 20:17:12","94634"
"A317L37U2W6R4P","cs_wg_v6_pilot2","39O5D9O87TTN8J3QHDUKGBQ448H3CS","15","1","COMMUNITY","1","MUDLEY","1","552","community",NULL,"2017-09-26 20:17:13","94635"
"ATGUAXNWCW8NI","cs_wg_v6_pilot2","3KJYX6QCM9CUS6BFBFHCMAVILCIVJU","20","0","UMBRELLA","1","CHOOTH","0","130173","COOTH",NULL,"2017-09-26 20:17:16","94636"
"A3H9A9RWEEL8FY","cs_wg_v6_pilot2","3WETL7AQWT929YUB237C25KUCRV35K","19","0","COMMUNITY","1","PLIBBERED","1","1339","community",NULL,"2017-09-26 20:17:19","94637"
"A317L37U2W6R4P","cs_wg_v6_pilot2","39O5D9O87TTN8J3QHDUKGBQ448H3CS","16","1","BASKET","1","WOOKED","1","1023","basket",NULL,"2017-09-26 20:17:20","94638"
"A1DIW2K1J89CMO","cs_wg_v6_pilot2","32ZKVD547FO4YEBK3DYP5RKMMNH3BL","33","1","BOOKSHELF","1","BLICKET","1","1294","bookshelf",NULL,"2017-09-26 20:17:20","94639"
"A3EJ44J2ZNRMDA","cs_wg_v6_pilot2","3BF51CHDTVBI8ZF9KIQ2P4PDEO20H3","8","1","HELICOPTER","1","GLUNDLE","1","5265","HELICOPTER",NULL,"2017-09-26 20:17:22","94640"
"ATGUAXNWCW8NI","cs_wg_v6_pilot2","3KJYX6QCM9CUS6BFBFHCMAVILCIVJU","21","0","COMMUNITY","1","SCRIGGED","1","2323","COMMUNITY",NULL,"2017-09-26 20:17:23","94641"
"A3H9A9RWEEL8FY","cs_wg_v6_pilot2","3WETL7AQWT929YUB237C25KUCRV35K","20","1","BASKET","1","CHAXED","1","811","basket",NULL,"2017-09-26 20:17:26","94642"
"A1DIW2K1J89CMO","cs_wg_v6_pilot2","32ZKVD547FO4YEBK3DYP5RKMMNH3BL","34","0","STOMACH","1","MEAKEN","1","2080","stomach",NULL,"2017-09-26 20:17:28","94643"
"A317L37U2W6R4P","cs_wg_v6_pilot2","39O5D9O87TTN8J3QHDUKGBQ448H3CS","17","1","HELICOPTER","1","SCRIGGED","1","1064","helicopter",NULL,"2017-09-26 20:17:28","94644"
"ATGUAXNWCW8NI","cs_wg_v6_pilot2","3KJYX6QCM9CUS6BFBFHCMAVILCIVJU","22","1","LADDER","1","ZORING","1","2525","LADDER",NULL,"2017-09-26 20:17:30","94645"
"A3H9A9RWEEL8FY","cs_wg_v6_pilot2","3WETL7AQWT929YUB237C25KUCRV35K","21","1","STOMACH","1","ROAKING","1","1152","stomach",NULL,"2017-09-26 20:17:33","94646"
"A3EJ44J2ZNRMDA","cs_wg_v6_pilot2","3BF51CHDTVBI8ZF9KIQ2P4PDEO20H3","9","0","UMBRELLA","1","TINGER","1","4756","UMBRELLA",NULL,"2017-09-26 20:17:33","94647"
"A1DIW2K1J89CMO","cs_wg_v6_pilot2","32ZKVD547FO4YEBK3DYP5RKMMNH3BL","35","1","STRUCTURE","1","BLICKET","1","1664","structure",NULL,"2017-09-26 20:17:36","94648"
"A317L37U2W6R4P","cs_wg_v6_pilot2","39O5D9O87TTN8J3QHDUKGBQ448H3CS","18","1","BOOKSHELF","1","FROPED","1","600","bookshelf",NULL,"2017-09-26 20:17:36","94649"
"ATGUAXNWCW8NI","cs_wg_v6_pilot2","3KJYX6QCM9CUS6BFBFHCMAVILCIVJU","23","0","WEDDING","1","FLEMMERING","1","3001","WEDDING",NULL,"2017-09-26 20:17:38","94650"
"A3H9A9RWEEL8FY","cs_wg_v6_pilot2","3WETL7AQWT929YUB237C25KUCRV35K","22","1","HELICOPTER","1","MEAKEN","1","719","helicopter",NULL,"2017-09-26 20:17:41","94651"
"A3EJ44J2ZNRMDA","cs_wg_v6_pilot2","3BF51CHDTVBI8ZF9KIQ2P4PDEO20H3","10","1","TRAFFIC","1","CHOOTH","1","3774","TRAFFIC",NULL,"2017-09-26 20:17:43","94652"
"A1DIW2K1J89CMO","cs_wg_v6_pilot2","32ZKVD547FO4YEBK3DYP5RKMMNH3BL","36","0","BOOKSHELF","1","DUNCHED","1","2011","bookshelf",NULL,"2017-09-26 20:17:44","94653"
"ATGUAXNWCW8NI","cs_wg_v6_pilot2","3KJYX6QCM9CUS6BFBFHCMAVILCIVJU","24","0","WEDDING","1","CHOOTH","1","2118","WEDDING",NULL,"2017-09-26 20:17:45","94654"
"A3H9A9RWEEL8FY","cs_wg_v6_pilot2","3WETL7AQWT929YUB237C25KUCRV35K","23","0","UMBRELLA","1","CHEEDLE","1","1255","umbrella",NULL,"2017-09-26 20:17:50","94655"
"A317L37U2W6R4P","cs_wg_v6_pilot2","39O5D9O87TTN8J3QHDUKGBQ448H3CS","19","0","BASKET","1","VATED","1","9104","basket",NULL,"2017-09-26 20:17:51","94656"
"A3EJ44J2ZNRMDA","cs_wg_v6_pilot2","3BF51CHDTVBI8ZF9KIQ2P4PDEO20H3","11","1","KEYBOARD","1","FLEMMERING","1","2775","KEYBOARD",NULL,"2017-09-26 20:17:55","94657"
"ATGUAXNWCW8NI","cs_wg_v6_pilot2","3KJYX6QCM9CUS6BFBFHCMAVILCIVJU","25","0","WEDDING","1","THOCKY","0","2294","
WEDDING",NULL,"2017-09-26 20:17:56","94658"
"A3H9A9RWEEL8FY","cs_wg_v6_pilot2","3WETL7AQWT929YUB237C25KUCRV35K","24","1","DOORWAY","1","MUDLEY","1","1157","doorway",NULL,"2017-09-26 20:17:58","94659"
"A317L37U2W6R4P","cs_wg_v6_pilot2","39O5D9O87TTN8J3QHDUKGBQ448H3CS","20","0","LADDER","1","ZORING","1","1175","ladder",NULL,"2017-09-26 20:17:58","94660"
"A1DIW2K1J89CMO","cs_wg_v6_pilot2","32ZKVD547FO4YEBK3DYP5RKMMNH3BL","37","0","UMBRELLA","1","FROPED","1","7684","umbrella",NULL,"2017-09-26 20:18:03","94661"
"A317L37U2W6R4P","cs_wg_v6_pilot2","39O5D9O87TTN8J3QHDUKGBQ448H3CS","21","1","FOOTBALL","1","SCRIGGED","1","965","football",NULL,"2017-09-26 20:18:06","94662"
"ATGUAXNWCW8NI","cs_wg_v6_pilot2","3KJYX6QCM9CUS6BFBFHCMAVILCIVJU","26","1","FOOTBALL","1","GLUNDLE","1","2976","FOOTBALL",NULL,"2017-09-26 20:18:06","94663"
"A3H9A9RWEEL8FY","cs_wg_v6_pilot2","3WETL7AQWT929YUB237C25KUCRV35K","25","0","BOOKSHELF","1","GLUNDLE","1","1403","bookshelf",NULL,"2017-09-26 20:18:06","94664"
"A3EJ44J2ZNRMDA","cs_wg_v6_pilot2","3BF51CHDTVBI8ZF9KIQ2P4PDEO20H3","12","0","STOMACH","1","ZALEY","1","6673","STOMACH",NULL,"2017-09-26 20:18:08","94665"
"A1DIW2K1J89CMO","cs_wg_v6_pilot2","32ZKVD547FO4YEBK3DYP5RKMMNH3BL","38","0","STOMACH","1","FROPED","1","1315","stomach",NULL,"2017-09-26 20:18:10","94666"
"A317L37U2W6R4P","cs_wg_v6_pilot2","39O5D9O87TTN8J3QHDUKGBQ448H3CS","22","0","BOOKSHELF","1","CLEEPERS","1","718","bookshelf",NULL,"2017-09-26 20:18:12","94667"
"ATGUAXNWCW8NI","cs_wg_v6_pilot2","3KJYX6QCM9CUS6BFBFHCMAVILCIVJU","27","0","LADDER","1","VATED","1","2240","LADDER",NULL,"2017-09-26 20:18:13","94668"
"A3H9A9RWEEL8FY","cs_wg_v6_pilot2","3WETL7AQWT929YUB237C25KUCRV35K","26","1","DOORWAY","1","PLIBBERED","1","912","doorway",NULL,"2017-09-26 20:18:13","94669"
"A1DIW2K1J89CMO","cs_wg_v6_pilot2","32ZKVD547FO4YEBK3DYP5RKMMNH3BL","39","1","FOOTBALL","1","ZORING","1","1557","football",NULL,"2017-09-26 20:18:18","94670"
"A317L37U2W6R4P","cs_wg_v6_pilot2","39O5D9O87TTN8J3QHDUKGBQ448H3CS","23","1","BASKET","1","ZORING","1","640","basket",NULL,"2017-09-26 20:18:18","94671"
"ATGUAXNWCW8NI","cs_wg_v6_pilot2","3KJYX6QCM9CUS6BFBFHCMAVILCIVJU","28","1","TRAFFIC","1","CHEEDLE","1","2000","TRAFFIC",NULL,"2017-09-26 20:18:20","94672"
"A3EJ44J2ZNRMDA","cs_wg_v6_pilot2","3BF51CHDTVBI8ZF9KIQ2P4PDEO20H3","13","0","BASKET","1","HOTCHACK","1","5091","BASKET",NULL,"2017-09-26 20:18:20","94673"
"A3H9A9RWEEL8FY","cs_wg_v6_pilot2","3WETL7AQWT929YUB237C25KUCRV35K","27","1","COMMUNITY","1","POATS","1","785","community",NULL,"2017-09-26 20:18:21","94674"
"A1DIW2K1J89CMO","cs_wg_v6_pilot2","32ZKVD547FO4YEBK3DYP5RKMMNH3BL","40","1","FOOTBALL","1","FROPED","1","1209","football",NULL,"2017-09-26 20:18:26","94675"
"A317L37U2W6R4P","cs_wg_v6_pilot2","39O5D9O87TTN8J3QHDUKGBQ448H3CS","24","1","KEYBOARD","1","GLUNDLE","1","918","keyboard",NULL,"2017-09-26 20:18:27","94676"
"ATGUAXNWCW8NI","cs_wg_v6_pilot2","3KJYX6QCM9CUS6BFBFHCMAVILCIVJU","29","1","UMBRELLA","1","SCRIGGED","1","2068","UMBRELLA",NULL,"2017-09-26 20:18:27","94677"
"A3H9A9RWEEL8FY","cs_wg_v6_pilot2","3WETL7AQWT929YUB237C25KUCRV35K","28","0","FOOTBALL","1","TINGER","1","1187","football",NULL,"2017-09-26 20:18:28","94678"
"A3EJ44J2ZNRMDA","cs_wg_v6_pilot2","3BF51CHDTVBI8ZF9KIQ2P4PDEO20H3","14","0","BOOKSHELF","1","NARDLY","1","2375","BOOKSHELF",NULL,"2017-09-26 20:18:29","94679"
"ATGUAXNWCW8NI","cs_wg_v6_pilot2","3KJYX6QCM9CUS6BFBFHCMAVILCIVJU","30","1","HELICOPTER","1","CHAXED","1","1189","HELICOPTER",NULL,"2017-09-26 20:18:34","94680"
"A317L37U2W6R4P","cs_wg_v6_pilot2","39O5D9O87TTN8J3QHDUKGBQ448H3CS","25","0","STRUCTURE","1","SCRIGGED","1","689","structure",NULL,"2017-09-26 20:18:34","94681"
"A1DIW2K1J89CMO","cs_wg_v6_pilot2","32ZKVD547FO4YEBK3DYP5RKMMNH3BL","41","0","UMBRELLA","1","ROAKING","1","1509","umbrella",NULL,"2017-09-26 20:18:35","94682"
"A3H9A9RWEEL8FY","cs_wg_v6_pilot2","3WETL7AQWT929YUB237C25KUCRV35K","29","1","STOMACH","1","HOTCHACK","1","697","stomach",NULL,"2017-09-26 20:18:35","94683"
"A3EJ44J2ZNRMDA","cs_wg_v6_pilot2","3BF51CHDTVBI8ZF9KIQ2P4PDEO20H3","15","1","LADDER","1","CHAXED","1","2867","LADDER",NULL,"2017-09-26 20:18:39","94684"
"ATGUAXNWCW8NI","cs_wg_v6_pilot2","3KJYX6QCM9CUS6BFBFHCMAVILCIVJU","31","1","BOOKSHELF","1","FIPPING","1","1355","BOOKSHELF",NULL,"2017-09-26 20:18:40","94685"
"A317L37U2W6R4P","cs_wg_v6_pilot2","39O5D9O87TTN8J3QHDUKGBQ448H3CS","26","0","BASKET","1","ZALEY","1","1038","basket",NULL,"2017-09-26 20:18:41","94686"
"A1DIW2K1J89CMO","cs_wg_v6_pilot2","32ZKVD547FO4YEBK3DYP5RKMMNH3BL","42","0","BASKET","1","ZORING","1","1212","basket",NULL,"2017-09-26 20:18:43","94687"
"A3H9A9RWEEL8FY","cs_wg_v6_pilot2","3WETL7AQWT929YUB237C25KUCRV35K","30","0","DOORWAY","1","DUNCHED","1","1368","doorway",NULL,"2017-09-26 20:18:45","94688"
"ATGUAXNWCW8NI","cs_wg_v6_pilot2","3KJYX6QCM9CUS6BFBFHCMAVILCIVJU","32","0","TRAFFIC","1","PLIBBERED","1","2118","TRAFFIC",NULL,"2017-09-26 20:18:48","94689"
"A317L37U2W6R4P","cs_wg_v6_pilot2","39O5D9O87TTN8J3QHDUKGBQ448H3CS","27","1","FOOTBALL","1","GLUNDLE","1","1298","football",NULL,"2017-09-26 20:18:49","94690"
"A3EJ44J2ZNRMDA","cs_wg_v6_pilot2","3BF51CHDTVBI8ZF9KIQ2P4PDEO20H3","16","1","WEDDING","1","SNAVE","1","3287","WEDDING",NULL,"2017-09-26 20:18:49","94691"
"A1DIW2K1J89CMO","cs_wg_v6_pilot2","32ZKVD547FO4YEBK3DYP5RKMMNH3BL","43","0","BASKET","1","ROAKING","1","1772","basket",NULL,"2017-09-26 20:18:50","94692"
"A3H9A9RWEEL8FY","cs_wg_v6_pilot2","3WETL7AQWT929YUB237C25KUCRV35K","31","1","BOOKSHELF","1","THOCKY","1","765","bookshelf",NULL,"2017-09-26 20:18:53","94693"
"ATGUAXNWCW8NI","cs_wg_v6_pilot2","3KJYX6QCM9CUS6BFBFHCMAVILCIVJU","33","1","UMBRELLA","1","PLIBBERED","1","3144","UMBRELLA",NULL,"2017-09-26 20:18:56","94694"
"A3EJ44J2ZNRMDA","cs_wg_v6_pilot2","3BF51CHDTVBI8ZF9KIQ2P4PDEO20H3","17","0","FOOTBALL","1","ZALEY","1","2654","FOOTBALL",NULL,"2017-09-26 20:18:58","94695"
"A317L37U2W6R4P","cs_wg_v6_pilot2","39O5D9O87TTN8J3QHDUKGBQ448H3CS","28","0","MACHINE","1","CHEEDLE","1","656","machine",NULL,"2017-09-26 20:18:58","94696"
"A1DIW2K1J89CMO","cs_wg_v6_pilot2","32ZKVD547FO4YEBK3DYP5RKMMNH3BL","44","1","BOOKSHELF","1","SNAVE","1","1216","bookshelf",NULL,"2017-09-26 20:18:58","94697"
"A3H9A9RWEEL8FY","cs_wg_v6_pilot2","3WETL7AQWT929YUB237C25KUCRV35K","32","1","BOOKSHELF","1","THOCKY","1","778","bookshelf",NULL,"2017-09-26 20:19:00","94698"
"A317L37U2W6R4P","cs_wg_v6_pilot2","39O5D9O87TTN8J3QHDUKGBQ448H3CS","29","0","BOOKSHELF","1","TINGER","1","736","bookshelf",NULL,"2017-09-26 20:19:05","94699"
"ATGUAXNWCW8NI","cs_wg_v6_pilot2","3KJYX6QCM9CUS6BFBFHCMAVILCIVJU","34","1","DOORWAY","1","MEAKEN","1","3946","DOORWAY",NULL,"2017-09-26 20:19:06","94700"
"A1DIW2K1J89CMO","cs_wg_v6_pilot2","32ZKVD547FO4YEBK3DYP5RKMMNH3BL","45","0","FOOTBALL","1","MEAKEN","1","1548","football",NULL,"2017-09-26 20:19:07","94701"
"A3H9A9RWEEL8FY","cs_wg_v6_pilot2","3WETL7AQWT929YUB237C25KUCRV35K","33","1","BASKET","1","CHOOTH","1","824","basket",NULL,"2017-09-26 20:19:07","94702"
"A3EJ44J2ZNRMDA","cs_wg_v6_pilot2","3BF51CHDTVBI8ZF9KIQ2P4PDEO20H3","18","1","TRAFFIC","1","VATED","1","3785","TRAFFIC",NULL,"2017-09-26 20:19:09","94703"
"ATGUAXNWCW8NI","cs_wg_v6_pilot2","3KJYX6QCM9CUS6BFBFHCMAVILCIVJU","35","1","TRAFFIC","1","DROOFER","1","1954","TRAFFIC",NULL,"2017-09-26 20:19:13","94704"
"A317L37U2W6R4P","cs_wg_v6_pilot2","39O5D9O87TTN8J3QHDUKGBQ448H3CS","30","0","BOOKSHELF","1","VATED","1","728","bookshelf",NULL,"2017-09-26 20:19:15","94705"
"A3H9A9RWEEL8FY","cs_wg_v6_pilot2","3WETL7AQWT929YUB237C25KUCRV35K","34","0","KEYBOARD","1","DUNCHED","1","1165","keyboard",NULL,"2017-09-26 20:19:15","94706"
"A3EJ44J2ZNRMDA","cs_wg_v6_pilot2","3BF51CHDTVBI8ZF9KIQ2P4PDEO20H3","19","1","DOORWAY","1","BLICKET","1","4535","DOORWAY",NULL,"2017-09-26 20:19:21","94707"
"A317L37U2W6R4P","cs_wg_v6_pilot2","39O5D9O87TTN8J3QHDUKGBQ448H3CS","31","1","COMMUNITY","1","FROPED","1","638","community",NULL,"2017-09-26 20:19:21","94708"
"A3H9A9RWEEL8FY","cs_wg_v6_pilot2","3WETL7AQWT929YUB237C25KUCRV35K","35","0","FOOTBALL","1","ZORING","1","1167","football",NULL,"2017-09-26 20:19:23","94709"
"A1DIW2K1J89CMO","cs_wg_v6_pilot2","32ZKVD547FO4YEBK3DYP5RKMMNH3BL","46","1","DOORWAY","1","DROOFER","1","8990","doorway",NULL,"2017-09-26 20:19:23","94710"
"ATGUAXNWCW8NI","cs_wg_v6_pilot2","3KJYX6QCM9CUS6BFBFHCMAVILCIVJU","36","1","COMMUNITY","1","VATED","1","1430","COMMUNITY",NULL,"2017-09-26 20:19:25","94711"
"A3H9A9RWEEL8FY","cs_wg_v6_pilot2","3WETL7AQWT929YUB237C25KUCRV35K","36","1","MACHINE","1","DROOFER","1","962","machine",NULL,"2017-09-26 20:19:30","94712"
"A317L37U2W6R4P","cs_wg_v6_pilot2","39O5D9O87TTN8J3QHDUKGBQ448H3CS","32","0","BOOKSHELF","1","MUDLEY","1","431","bookshelf",NULL,"2017-09-26 20:19:30","94713"
"A1DIW2K1J89CMO","cs_wg_v6_pilot2","32ZKVD547FO4YEBK3DYP5RKMMNH3BL","47","0","BOOKSHELF","1","PLIBBERED","1","2509","bookshelf",NULL,"2017-09-26 20:19:34","94714"
"ATGUAXNWCW8NI","cs_wg_v6_pilot2","3KJYX6QCM9CUS6BFBFHCMAVILCIVJU","37","0","UMBRELLA","1","MUDLEY","1","1976","UMBRELLA",NULL,"2017-09-26 20:19:34","94715"
"A3H9A9RWEEL8FY","cs_wg_v6_pilot2","3WETL7AQWT929YUB237C25KUCRV35K","37","0","STOMACH","1","DUNCHED","1","1068","stomach",NULL,"2017-09-26 20:19:37","94716"
"A3EJ44J2ZNRMDA","cs_wg_v6_pilot2","3BF51CHDTVBI8ZF9KIQ2P4PDEO20H3","20","0","TRAFFIC","1","ZORING","1","10257","TRAFFIC",NULL,"2017-09-26 20:19:37","94717"
"A317L37U2W6R4P","cs_wg_v6_pilot2","39O5D9O87TTN8J3QHDUKGBQ448H3CS","33","0","HELICOPTER","1","SCRIGGED","1","434","helicopter",NULL,"2017-09-26 20:19:40","94718"
"ATGUAXNWCW8NI","cs_wg_v6_pilot2","3KJYX6QCM9CUS6BFBFHCMAVILCIVJU","38","0","MACHINE","1","SNAVE","1","2070","MACHINE",NULL,"2017-09-26 20:19:41","94719"
"A1DIW2K1J89CMO","cs_wg_v6_pilot2","32ZKVD547FO4YEBK3DYP5RKMMNH3BL","48","0","TRAFFIC","1","FIPPING","1","1571","traffic",NULL,"2017-09-26 20:19:42","94720"
"A3H9A9RWEEL8FY","cs_wg_v6_pilot2","3WETL7AQWT929YUB237C25KUCRV35K","38","1","BOOKSHELF","1","WUGGED","1","862","bookshelf",NULL,"2017-09-26 20:19:44","94721"
"A3EJ44J2ZNRMDA","cs_wg_v6_pilot2","3BF51CHDTVBI8ZF9KIQ2P4PDEO20H3","21","1","MACHINE","1","HOTCHACK","1","2813","MACHINE",NULL,"2017-09-26 20:19:46","94722"
"A317L37U2W6R4P","cs_wg_v6_pilot2","39O5D9O87TTN8J3QHDUKGBQ448H3CS","34","1","DOORWAY","1","MEAKEN","1","495","doorway",NULL,"2017-09-26 20:19:48","94723"
"A1DIW2K1J89CMO","cs_wg_v6_pilot2","32ZKVD547FO4YEBK3DYP5RKMMNH3BL","49","0","LADDER","1","CLEEPERS","1","1419","ladder",NULL,"2017-09-26 20:19:49","94724"
"ATGUAXNWCW8NI","cs_wg_v6_pilot2","3KJYX6QCM9CUS6BFBFHCMAVILCIVJU","39","1","FOOTBALL","1","SNAVE","1","2073","FOOTBALL",NULL,"2017-09-26 20:19:49","94725"
"A3H9A9RWEEL8FY","cs_wg_v6_pilot2","3WETL7AQWT929YUB237C25KUCRV35K","39","0","LADDER","1","ZORING","1","910","ladder",NULL,"2017-09-26 20:19:51","94726"
"A3EJ44J2ZNRMDA","cs_wg_v6_pilot2","3BF51CHDTVBI8ZF9KIQ2P4PDEO20H3","22","1","STOMACH","1","SCRIGGED","1","3322","STOMACH",NULL,"2017-09-26 20:19:57","94727"
"A317L37U2W6R4P","cs_wg_v6_pilot2","39O5D9O87TTN8J3QHDUKGBQ448H3CS","35","0","STRUCTURE","1","MURRADS","1","2478","structure",NULL,"2017-09-26 20:19:58","94728"
"A3H9A9RWEEL8FY","cs_wg_v6_pilot2","3WETL7AQWT929YUB237C25KUCRV35K","40","1","BASKET","1","BLICKET","1","856","basket",NULL,"2017-09-26 20:19:58","94729"
"A1DIW2K1J89CMO","cs_wg_v6_pilot2","32ZKVD547FO4YEBK3DYP5RKMMNH3BL","50","0","BOOKSHELF","1","ZALEY","1","3082","bookshelf",NULL,"2017-09-26 20:20:01","94730"
"A317L37U2W6R4P","cs_wg_v6_pilot2","39O5D9O87TTN8J3QHDUKGBQ448H3CS","36","0","KEYBOARD","1","VATED","1","694","keyboard",NULL,"2017-09-26 20:20:05","94731"
"ATGUAXNWCW8NI","cs_wg_v6_pilot2","3KJYX6QCM9CUS6BFBFHCMAVILCIVJU","40","0","DOORWAY","1","ZORING","1","13569","DOORWAY",NULL,"2017-09-26 20:20:08","94732"
"A1DIW2K1J89CMO","cs_wg_v6_pilot2","32ZKVD547FO4YEBK3DYP5RKMMNH3BL","51","0","FOOTBALL","1","NARDLY","1","1570","football",NULL,"2017-09-26 20:20:09","94733"
"A3EJ44J2ZNRMDA","cs_wg_v6_pilot2","3BF51CHDTVBI8ZF9KIQ2P4PDEO20H3","23","1","UMBRELLA","1","MEAKEN","1","3041","UMBRELLA",NULL,"2017-09-26 20:20:10","94734"
"A3H9A9RWEEL8FY","cs_wg_v6_pilot2","3WETL7AQWT929YUB237C25KUCRV35K","41","0","FOOTBALL","1","MICKERED","1","812","football",NULL,"2017-09-26 20:20:11","94735"
"A317L37U2W6R4P","cs_wg_v6_pilot2","39O5D9O87TTN8J3QHDUKGBQ448H3CS","37","0","LADDER","1","MICKERED","1","2088","ladder",NULL,"2017-09-26 20:20:12","94736"
"ATGUAXNWCW8NI","cs_wg_v6_pilot2","3KJYX6QCM9CUS6BFBFHCMAVILCIVJU","41","0","STOMACH","1","ZORING","1","3788","STOMACH",NULL,"2017-09-26 20:20:17","94737"
"A1DIW2K1J89CMO","cs_wg_v6_pilot2","32ZKVD547FO4YEBK3DYP5RKMMNH3BL","52","0","MACHINE","1","JADDEARED","1","1405","machine",NULL,"2017-09-26 20:20:18","94738"
"A3H9A9RWEEL8FY","cs_wg_v6_pilot2","3WETL7AQWT929YUB237C25KUCRV35K","42","1","MACHINE","1","SNAVE","1","780","machine",NULL,"2017-09-26 20:20:18","94739"
"A317L37U2W6R4P","cs_wg_v6_pilot2","39O5D9O87TTN8J3QHDUKGBQ448H3CS","38","1","LADDER","1","ZORING","1","1055","ladder",NULL,"2017-09-26 20:20:18","94740"
"ATGUAXNWCW8NI","cs_wg_v6_pilot2","3KJYX6QCM9CUS6BFBFHCMAVILCIVJU","42","1","UMBRELLA","1","SCREEP","1","2465","UMBRELLA",NULL,"2017-09-26 20:20:24","94741"
"A317L37U2W6R4P","cs_wg_v6_pilot2","39O5D9O87TTN8J3QHDUKGBQ448H3CS","39","0","LADDER","1","FIPPING","1","783","ladder",NULL,"2017-09-26 20:20:25","94742"
"A3H9A9RWEEL8FY","cs_wg_v6_pilot2","3WETL7AQWT929YUB237C25KUCRV35K","43","1","HELICOPTER","1","SCRIGGED","1","725","helicopter",NULL,"2017-09-26 20:20:25","94743"
"A1DIW2K1J89CMO","cs_wg_v6_pilot2","32ZKVD547FO4YEBK3DYP5RKMMNH3BL","53","1","STOMACH","1","VATED","1","1762","stomach",NULL,"2017-09-26 20:20:26","94744"
"A3EJ44J2ZNRMDA","cs_wg_v6_pilot2","3BF51CHDTVBI8ZF9KIQ2P4PDEO20H3","24","1","COMMUNITY","1","ZORING","1","9850","COMMUNITY",NULL,"2017-09-26 20:20:30","94745"
"ATGUAXNWCW8NI","cs_wg_v6_pilot2","3KJYX6QCM9CUS6BFBFHCMAVILCIVJU","43","0","WEDDING","1","DUNCHED","1","1980","WEDDING",NULL,"2017-09-26 20:20:31","94746"
"A3H9A9RWEEL8FY","cs_wg_v6_pilot2","3WETL7AQWT929YUB237C25KUCRV35K","44","1","HELICOPTER","1","FIPPING","1","667","helicopter",NULL,"2017-09-26 20:20:33","94747"
"A1DIW2K1J89CMO","cs_wg_v6_pilot2","32ZKVD547FO4YEBK3DYP5RKMMNH3BL","54","1","BOOKSHELF","1","STEAVES","1","1213","bookshelf",NULL,"2017-09-26 20:20:33","94748"
"A317L37U2W6R4P","cs_wg_v6_pilot2","39O5D9O87TTN8J3QHDUKGBQ448H3CS","40","0","UMBRELLA","1","SCRIGGED","1","662","umbrella",NULL,"2017-09-26 20:20:36","94749"
"ATGUAXNWCW8NI","cs_wg_v6_pilot2","3KJYX6QCM9CUS6BFBFHCMAVILCIVJU","44","1","HELICOPTER","1","VATED","1","1709","HELICOPTER",NULL,"2017-09-26 20:20:38","94750"
"A3EJ44J2ZNRMDA","cs_wg_v6_pilot2","3BF51CHDTVBI8ZF9KIQ2P4PDEO20H3","25","1","UMBRELLA","1","JADDEARED","1","2597","UMBRELLA",NULL,"2017-09-26 20:20:39","94751"
"A3H9A9RWEEL8FY","cs_wg_v6_pilot2","3WETL7AQWT929YUB237C25KUCRV35K","45","1","BASKET","1","JADDEARED","1","914","basket",NULL,"2017-09-26 20:20:40","94752"
"A317L37U2W6R4P","cs_wg_v6_pilot2","39O5D9O87TTN8J3QHDUKGBQ448H3CS","41","0","MACHINE","1","STEAVES","1","487","machine",NULL,"2017-09-26 20:20:42","94753"
"A1DIW2K1J89CMO","cs_wg_v6_pilot2","32ZKVD547FO4YEBK3DYP5RKMMNH3BL","55","1","STRUCTURE","1","NARDLY","1","2048","structure",NULL,"2017-09-26 20:20:43","94754"
"ATGUAXNWCW8NI","cs_wg_v6_pilot2","3KJYX6QCM9CUS6BFBFHCMAVILCIVJU","45","1","STOMACH","1","TINGER","1","1198","STOMACH",NULL,"2017-09-26 20:20:44","94755"
"A3H9A9RWEEL8FY","cs_wg_v6_pilot2","3WETL7AQWT929YUB237C25KUCRV35K","46","0","FOOTBALL","1","VATED","1","1510","football",NULL,"2017-09-26 20:20:49","94756"
"A3EJ44J2ZNRMDA","cs_wg_v6_pilot2","3BF51CHDTVBI8ZF9KIQ2P4PDEO20H3","26","1","STRUCTURE","1","MUDLEY","1","2167","STRUCTURE",NULL,"2017-09-26 20:20:50","94757"
"A317L37U2W6R4P","cs_wg_v6_pilot2","39O5D9O87TTN8J3QHDUKGBQ448H3CS","42","0","STRUCTURE","1","SCRIGGED","1","888","structure",NULL,"2017-09-26 20:20:50","94758"
"A1DIW2K1J89CMO","cs_wg_v6_pilot2","32ZKVD547FO4YEBK3DYP5RKMMNH3BL","56","0","KEYBOARD","1","SCREEP","1","1586","keyboard",NULL,"2017-09-26 20:20:51","94759"
"ATGUAXNWCW8NI","cs_wg_v6_pilot2","3KJYX6QCM9CUS6BFBFHCMAVILCIVJU","46","0","STOMACH","1","WOOKED","1","7412","STOMACH",NULL,"2017-09-26 20:20:56","94760"
"A3H9A9RWEEL8FY","cs_wg_v6_pilot2","3WETL7AQWT929YUB237C25KUCRV35K","47","1","WEDDING","1","JADDEARED","1","2488","wedding",NULL,"2017-09-26 20:20:58","94761"
"A317L37U2W6R4P","cs_wg_v6_pilot2","39O5D9O87TTN8J3QHDUKGBQ448H3CS","43","1","KEYBOARD","1","CLEEPERS","1","759","keyboard",NULL,"2017-09-26 20:20:58","94762"
"A1DIW2K1J89CMO","cs_wg_v6_pilot2","32ZKVD547FO4YEBK3DYP5RKMMNH3BL","57","0","TRAFFIC","1","BLICKET","1","1876","traffic",NULL,"2017-09-26 20:20:59","94763"
"A3EJ44J2ZNRMDA","cs_wg_v6_pilot2","3BF51CHDTVBI8ZF9KIQ2P4PDEO20H3","27","0","LADDER","1","JADDEARED","0","2364","LADDER",NULL,"2017-09-26 20:21:00","94764"
"A3H9A9RWEEL8FY","cs_wg_v6_pilot2","3WETL7AQWT929YUB237C25KUCRV35K","48","0","KEYBOARD","1","SCREEP","1","1257","keyboard",NULL,"2017-09-26 20:21:05","94765"
"ATGUAXNWCW8NI","cs_wg_v6_pilot2","3KJYX6QCM9CUS6BFBFHCMAVILCIVJU","47","0","WEDDING","1","SCRIGGED","1","2006","WEDDING",NULL,"2017-09-26 20:21:06","94766"
"A2TVJTQ4VXATE6","cs_wg_v6_pilot2","3OHYZ19UGC6O1TZEGXILYJYRZWSAOS","0","1","WEDDING","1","PLIBBERED","1","2050","wedding",NULL,"2017-09-26 20:21:06","94767"
"A1DIW2K1J89CMO","cs_wg_v6_pilot2","32ZKVD547FO4YEBK3DYP5RKMMNH3BL","58","0","KEYBOARD","1","SCRIGGED","1","1211","keyboard",NULL,"2017-09-26 20:21:06","94768"
"A317L37U2W6R4P","cs_wg_v6_pilot2","39O5D9O87TTN8J3QHDUKGBQ448H3CS","44","0","BOOKSHELF","1","SCREEP","1","703","bookshelf",NULL,"2017-09-26 20:21:06","94769"
"A3EJ44J2ZNRMDA","cs_wg_v6_pilot2","3BF51CHDTVBI8ZF9KIQ2P4PDEO20H3","28","1","BASKET","1","CHEEDLE","1","3607","BASKET",NULL,"2017-09-26 20:21:12","94770"
"A3H9A9RWEEL8FY","cs_wg_v6_pilot2","3WETL7AQWT929YUB237C25KUCRV35K","49","0","FOOTBALL","1","SCRIGGED","1","924","football",NULL,"2017-09-26 20:21:13","94771"
"A1DIW2K1J89CMO","cs_wg_v6_pilot2","32ZKVD547FO4YEBK3DYP5RKMMNH3BL","59","1","BASKET","1","SURSED","1","1761","basket",NULL,"2017-09-26 20:21:14","94772"
"A2TVJTQ4VXATE6","cs_wg_v6_pilot2","3OHYZ19UGC6O1TZEGXILYJYRZWSAOS","1","0","BASKET","1","CHAXED","1","2144","basket
",NULL,"2017-09-26 20:21:15","94773"
"ATGUAXNWCW8NI","cs_wg_v6_pilot2","3KJYX6QCM9CUS6BFBFHCMAVILCIVJU","48","1","LADDER","1","JADDEARED","1","6993","LADDER

or",NULL,"2017-09-26 20:21:18","94774"
"A317L37U2W6R4P","cs_wg_v6_pilot2","39O5D9O87TTN8J3QHDUKGBQ448H3CS","45","1","DOORWAY","1","MICKERED","1","560","doorway",NULL,"2017-09-26 20:21:21","94775"
"A1DIW2K1J89CMO","cs_wg_v6_pilot2","32ZKVD547FO4YEBK3DYP5RKMMNH3BL","60","0","TRAFFIC","1","WUGGED","1","1272","traffic",NULL,"2017-09-26 20:21:21","94776"
"A3H9A9RWEEL8FY","cs_wg_v6_pilot2","3WETL7AQWT929YUB237C25KUCRV35K","50","1","COMMUNITY","1","BLICKET","1","2292","community",NULL,"2017-09-26 20:21:22","94777"
"A3EJ44J2ZNRMDA","cs_wg_v6_pilot2","3BF51CHDTVBI8ZF9KIQ2P4PDEO20H3","29","0","MACHINE","1","WOOKED","1","4073","MACHINE",NULL,"2017-09-26 20:21:25","94778"
"A2TVJTQ4VXATE6","cs_wg_v6_pilot2","3OHYZ19UGC6O1TZEGXILYJYRZWSAOS","2","0","LADDER","1","FROPED","1","3296","ladder",NULL,"2017-09-26 20:21:25","94779"
"A317L37U2W6R4P","cs_wg_v6_pilot2","39O5D9O87TTN8J3QHDUKGBQ448H3CS","46","0","TRAFFIC","1","FLEMMERING","1","810","traffic",NULL,"2017-09-26 20:21:28","94780"
"ATGUAXNWCW8NI","cs_wg_v6_pilot2","3KJYX6QCM9CUS6BFBFHCMAVILCIVJU","49","1","STRUCTURE","1","SURSED","1","5096","STRUCTURE",NULL,"2017-09-26 20:21:28","94781"
"A3H9A9RWEEL8FY","cs_wg_v6_pilot2","3WETL7AQWT929YUB237C25KUCRV35K","51","0","STOMACH","1","CLEEPERS","1","984","stomach",NULL,"2017-09-26 20:21:29","94782"
"A1DIW2K1J89CMO","cs_wg_v6_pilot2","32ZKVD547FO4YEBK3DYP5RKMMNH3BL","61","0","COMMUNITY","1","FROPED","1","1591","community",NULL,"2017-09-26 20:21:31","94783"
"A317L37U2W6R4P","cs_wg_v6_pilot2","39O5D9O87TTN8J3QHDUKGBQ448H3CS","47","1","BASKET","1","ROAKING","1","681","basket",NULL,"2017-09-26 20:21:34","94784"
"A3H9A9RWEEL8FY","cs_wg_v6_pilot2","3WETL7AQWT929YUB237C25KUCRV35K","52","1","UMBRELLA","1","WOOKED","1","1207","umbrella",NULL,"2017-09-26 20:21:37","94785"
"A3EJ44J2ZNRMDA","cs_wg_v6_pilot2","3BF51CHDTVBI8ZF9KIQ2P4PDEO20H3","30","0","STRUCTURE","1","DROOFER","1","4656","STRUCTURE",NULL,"2017-09-26 20:21:37","94786"
"A2TVJTQ4VXATE6","cs_wg_v6_pilot2","3OHYZ19UGC6O1TZEGXILYJYRZWSAOS","3","1","UMBRELLA","1","WUGGED","1","6324","umbrella",NULL,"2017-09-26 20:21:38","94787"
"A317L37U2W6R4P","cs_wg_v6_pilot2","39O5D9O87TTN8J3QHDUKGBQ448H3CS","48","1","FOOTBALL","1","DUNCHED","1","504","football",NULL,"2017-09-26 20:21:40","94788"
"A1DIW2K1J89CMO","cs_wg_v6_pilot2","32ZKVD547FO4YEBK3DYP5RKMMNH3BL","62","0","STOMACH","1","JADDEARED","1","1255","stomach",NULL,"2017-09-26 20:21:40","94789"
"ATGUAXNWCW8NI","cs_wg_v6_pilot2","3KJYX6QCM9CUS6BFBFHCMAVILCIVJU","50","0","WEDDING","1","WUGGED","1","10079","WEDDING",NULL,"2017-09-26 20:21:43","94790"
"A3H9A9RWEEL8FY","cs_wg_v6_pilot2","3WETL7AQWT929YUB237C25KUCRV35K","53","0","FOOTBALL","1","ROAKING","1","1041","football",NULL,"2017-09-26 20:21:44","94791"
"A3EJ44J2ZNRMDA","cs_wg_v6_pilot2","3BF51CHDTVBI8ZF9KIQ2P4PDEO20H3","31","1","UMBRELLA","1","PLIBBERED","1","3538","UMBRELLA",NULL,"2017-09-26 20:21:47","94792"
"A2TVJTQ4VXATE6","cs_wg_v6_pilot2","3OHYZ19UGC6O1TZEGXILYJYRZWSAOS","4","1","FOOTBALL","1","FIPPING","1","2238","football",NULL,"2017-09-26 20:21:48","94793"
"A317L37U2W6R4P","cs_wg_v6_pilot2","39O5D9O87TTN8J3QHDUKGBQ448H3CS","49","0","STRUCTURE","1","MURRADS","1","1064","structure",NULL,"2017-09-26 20:21:50","94794"
"A1DIW2K1J89CMO","cs_wg_v6_pilot2","32ZKVD547FO4YEBK3DYP5RKMMNH3BL","63","1","DOORWAY","1","DUNCHED","1","1768","doorway",NULL,"2017-09-26 20:21:50","94795"
"A3H9A9RWEEL8FY","cs_wg_v6_pilot2","3WETL7AQWT929YUB237C25KUCRV35K","54","0","HELICOPTER","1","GLUNDLE","1","1137","helicopter",NULL,"2017-09-26 20:21:52","94796"
"A3EJ44J2ZNRMDA","cs_wg_v6_pilot2","3BF51CHDTVBI8ZF9KIQ2P4PDEO20H3","32","0","COMMUNITY","1","JADDEARED","1","3006","COMMUNITY",NULL,"2017-09-26 20:21:56","94797"
"A2TVJTQ4VXATE6","cs_wg_v6_pilot2","3OHYZ19UGC6O1TZEGXILYJYRZWSAOS","5","1","BOOKSHELF","1","NARDLY","1","1743","bookshelf",NULL,"2017-09-26 20:21:56","94798"
"A1DIW2K1J89CMO","cs_wg_v6_pilot2","32ZKVD547FO4YEBK3DYP5RKMMNH3BL","64","0","FOOTBALL","1","SCREEP","1","797","football",NULL,"2017-09-26 20:21:58","94799"
"A317L37U2W6R4P","cs_wg_v6_pilot2","39O5D9O87TTN8J3QHDUKGBQ448H3CS","50","0","FOOTBALL","1","MICKERED","1","574","football",NULL,"2017-09-26 20:21:59","94800"
"A3H9A9RWEEL8FY","cs_wg_v6_pilot2","3WETL7AQWT929YUB237C25KUCRV35K","55","0","MACHINE","1","SCREEP","1","964","machine",NULL,"2017-09-26 20:21:59","94801"
"A2FLOH4DM8A4ZS","cs_wg_v6_pilot2","3AAPLD8UCCIJO8C0IKEC9FRIBZYTH7","0","1","KEYBOARD","1","STEAVES","1","3886","Keyboard",NULL,"2017-09-26 20:22:03","94802"
"A3EJ44J2ZNRMDA","cs_wg_v6_pilot2","3BF51CHDTVBI8ZF9KIQ2P4PDEO20H3","33","1","BASKET","1","TINGER","1","2702","BASKET",NULL,"2017-09-26 20:22:04","94803"
"A3H9A9RWEEL8FY","cs_wg_v6_pilot2","3WETL7AQWT929YUB237C25KUCRV35K","56","1","WEDDING","1","SURSED","1","716","wedding",NULL,"2017-09-26 20:22:05","94804"
"A317L37U2W6R4P","cs_wg_v6_pilot2","39O5D9O87TTN8J3QHDUKGBQ448H3CS","51","1","MACHINE","1","BLICKET","1","960","machine",NULL,"2017-09-26 20:22:06","94805"
"A2TVJTQ4VXATE6","cs_wg_v6_pilot2","3OHYZ19UGC6O1TZEGXILYJYRZWSAOS","6","0","LADDER","1","SURSED","1","1829","ladder",NULL,"2017-09-26 20:22:06","94806"
"A1DIW2K1J89CMO","cs_wg_v6_pilot2","32ZKVD547FO4YEBK3DYP5RKMMNH3BL","65","1","MACHINE","1","MUDLEY","1","869","machine",NULL,"2017-09-26 20:22:07","94807"
"A2FLOH4DM8A4ZS","cs_wg_v6_pilot2","3AAPLD8UCCIJO8C0IKEC9FRIBZYTH7","1","0","DOORWAY","1","BLICKET","1","2384","Doorway",NULL,"2017-09-26 20:22:13","94808"
"A317L37U2W6R4P","cs_wg_v6_pilot2","39O5D9O87TTN8J3QHDUKGBQ448H3CS","52","1","STOMACH","1","SCRIGGED","1","1910","stomach",NULL,"2017-09-26 20:22:13","94809"
"A3H9A9RWEEL8FY","cs_wg_v6_pilot2","3WETL7AQWT929YUB237C25KUCRV35K","57","0","MACHINE","1","MICKERED","1","1715","machine",NULL,"2017-09-26 20:22:13","94810"
"A2TVJTQ4VXATE6","cs_wg_v6_pilot2","3OHYZ19UGC6O1TZEGXILYJYRZWSAOS","7","0","HELICOPTER","1","HOTCHACK","1","2368","helicopter",NULL,"2017-09-26 20:22:15","94811"
"A1DIW2K1J89CMO","cs_wg_v6_pilot2","32ZKVD547FO4YEBK3DYP5RKMMNH3BL","66","1","UMBRELLA","1","CLEEPERS","1","948","umbrella",NULL,"2017-09-26 20:22:15","94812"
"A3EJ44J2ZNRMDA","cs_wg_v6_pilot2","3BF51CHDTVBI8ZF9KIQ2P4PDEO20H3","34","1","STOMACH","1","CHEEDLE","1","3811","STOMACH",NULL,"2017-09-26 20:22:16","94813"
"A317L37U2W6R4P","cs_wg_v6_pilot2","39O5D9O87TTN8J3QHDUKGBQ448H3CS","53","1","BASKET","1","BLICKET","1","885","basket",NULL,"2017-09-26 20:22:20","94814"
"A3H9A9RWEEL8FY","cs_wg_v6_pilot2","3WETL7AQWT929YUB237C25KUCRV35K","58","0","COMMUNITY","1","DROOFER","1","1102","community",NULL,"2017-09-26 20:22:21","94815"
"A2TVJTQ4VXATE6","cs_wg_v6_pilot2","3OHYZ19UGC6O1TZEGXILYJYRZWSAOS","8","0","LADDER","1","SURSED","1","1127","ladder",NULL,"2017-09-26 20:22:23","94816"
"A2FLOH4DM8A4ZS","cs_wg_v6_pilot2","3AAPLD8UCCIJO8C0IKEC9FRIBZYTH7","2","0","TRAFFIC","1","GLUNDLE","1","3972","Traffic",NULL,"2017-09-26 20:22:25","94817"
"A1DIW2K1J89CMO","cs_wg_v6_pilot2","32ZKVD547FO4YEBK3DYP5RKMMNH3BL","67","0","UMBRELLA","1","THOCKY","1","1070","umbrella",NULL,"2017-09-26 20:22:26","94818"
"A3EJ44J2ZNRMDA","cs_wg_v6_pilot2","3BF51CHDTVBI8ZF9KIQ2P4PDEO20H3","35","0","UMBRELLA","1","GLUNDLE","1","2284","UMBRELLA",NULL,"2017-09-26 20:22:26","94819"
"A317L37U2W6R4P","cs_wg_v6_pilot2","39O5D9O87TTN8J3QHDUKGBQ448H3CS","54","1","BASKET","1","CHEEDLE","1","1543","basket",NULL,"2017-09-26 20:22:27","94820"
"A3H9A9RWEEL8FY","cs_wg_v6_pilot2","3WETL7AQWT929YUB237C25KUCRV35K","59","0","HELICOPTER","1","JADDEARED","1","1098","helicopter",NULL,"2017-09-26 20:22:28","94821"
"A2TVJTQ4VXATE6","cs_wg_v6_pilot2","3OHYZ19UGC6O1TZEGXILYJYRZWSAOS","9","1","UMBRELLA","1","CHOOTH","1","918","umbrella",NULL,"2017-09-26 20:22:29","94822"
"A317L37U2W6R4P","cs_wg_v6_pilot2","39O5D9O87TTN8J3QHDUKGBQ448H3CS","55","1","TRAFFIC","1","DUNCHED","1","1110","traffic",NULL,"2017-09-26 20:22:34","94823"
"A1DIW2K1J89CMO","cs_wg_v6_pilot2","32ZKVD547FO4YEBK3DYP5RKMMNH3BL","68","1","UMBRELLA","1","MUDLEY","1","1439","umbrella",NULL,"2017-09-26 20:22:35","94824"
"A2TVJTQ4VXATE6","cs_wg_v6_pilot2","3OHYZ19UGC6O1TZEGXILYJYRZWSAOS","10","1","FOOTBALL","1","MUDLEY","1","918","football",NULL,"2017-09-26 20:22:35","94825"
"A2FLOH4DM8A4ZS","cs_wg_v6_pilot2","3AAPLD8UCCIJO8C0IKEC9FRIBZYTH7","3","1","BOOKSHELF","1","STEAVES","1","3421","Bookshelf",NULL,"2017-09-26 20:22:35","94826"
"A3EJ44J2ZNRMDA","cs_wg_v6_pilot2","3BF51CHDTVBI8ZF9KIQ2P4PDEO20H3","36","0","COMMUNITY","1","ZALEY","1","3553","COMMUNITY",NULL,"2017-09-26 20:22:36","94827"
"A3H9A9RWEEL8FY","cs_wg_v6_pilot2","3WETL7AQWT929YUB237C25KUCRV35K","60","0","LADDER","1","NARDLY","1","984","ladder",NULL,"2017-09-26 20:22:36","94828"
"A317L37U2W6R4P","cs_wg_v6_pilot2","39O5D9O87TTN8J3QHDUKGBQ448H3CS","56","0","FOOTBALL","1","MURRADS","1","454","football",NULL,"2017-09-26 20:22:41","94829"
"A2TVJTQ4VXATE6","cs_wg_v6_pilot2","3OHYZ19UGC6O1TZEGXILYJYRZWSAOS","11","0","BOOKSHELF","1","NARDLY","1","1123","bookshelf",NULL,"2017-09-26 20:22:41","94830"
"A3H9A9RWEEL8FY","cs_wg_v6_pilot2","3WETL7AQWT929YUB237C25KUCRV35K","61","1","HELICOPTER","1","SNAVE","1","1064","helicopter",NULL,"2017-09-26 20:22:43","94831"
"A1DIW2K1J89CMO","cs_wg_v6_pilot2","32ZKVD547FO4YEBK3DYP5RKMMNH3BL","69","0","TRAFFIC","1","DUNCHED","1","1820","traffic",NULL,"2017-09-26 20:22:44","94832"
"A2FLOH4DM8A4ZS","cs_wg_v6_pilot2","3AAPLD8UCCIJO8C0IKEC9FRIBZYTH7","4","0","COMMUNITY","1","GLUNDLE","1","2102","Community",NULL,"2017-09-26 20:22:48","94833"
"A2TVJTQ4VXATE6","cs_wg_v6_pilot2","3OHYZ19UGC6O1TZEGXILYJYRZWSAOS","12","1","UMBRELLA","1","FLEMMERING","1","817","umbrella",NULL,"2017-09-26 20:22:49","94834"
"A3H9A9RWEEL8FY","cs_wg_v6_pilot2","3WETL7AQWT929YUB237C25KUCRV35K","62","0","DOORWAY","1","SCREEP","1","1155","doorway",NULL,"2017-09-26 20:22:50","94835"
"A317L37U2W6R4P","cs_wg_v6_pilot2","39O5D9O87TTN8J3QHDUKGBQ448H3CS","57","1","STRUCTURE","1","FIPPING","1","656","structure",NULL,"2017-09-26 20:22:50","94836"
"A3EJ44J2ZNRMDA","cs_wg_v6_pilot2","3BF51CHDTVBI8ZF9KIQ2P4PDEO20H3","37","0","DOORWAY","1","DUNCHED","1","8311","DOORWAY",NULL,"2017-09-26 20:22:52","94837"
"A1DIW2K1J89CMO","cs_wg_v6_pilot2","32ZKVD547FO4YEBK3DYP5RKMMNH3BL","70","0","LADDER","1","SNAVE","1","1343","ladder",NULL,"2017-09-26 20:22:53","94838"
"A2TVJTQ4VXATE6","cs_wg_v6_pilot2","3OHYZ19UGC6O1TZEGXILYJYRZWSAOS","13","0","WEDDING","1","MICKERED","1","1307","wedding",NULL,"2017-09-26 20:22:56","94839"
"A2FLOH4DM8A4ZS","cs_wg_v6_pilot2","3AAPLD8UCCIJO8C0IKEC9FRIBZYTH7","5","0","DOORWAY","1","MEAKEN","1","1820","Doorway",NULL,"2017-09-26 20:22:57","94840"
"A3H9A9RWEEL8FY","cs_wg_v6_pilot2","3WETL7AQWT929YUB237C25KUCRV35K","63","1","STRUCTURE","1","PLIBBERED","1","920","structure",NULL,"2017-09-26 20:22:57","94841"
"A317L37U2W6R4P","cs_wg_v6_pilot2","39O5D9O87TTN8J3QHDUKGBQ448H3CS","58","0","STRUCTURE","1","CLEEPERS","1","566","structure",NULL,"2017-09-26 20:22:57","94842"
"A3EJ44J2ZNRMDA","cs_wg_v6_pilot2","3BF51CHDTVBI8ZF9KIQ2P4PDEO20H3","38","0","COMMUNITY","1","MUDLEY","1","1943","COMMUNITY",NULL,"2017-09-26 20:23:00","94843"
"A2TVJTQ4VXATE6","cs_wg_v6_pilot2","3OHYZ19UGC6O1TZEGXILYJYRZWSAOS","14","1","DOORWAY","1","JADDEARED","1","1310","doorway",NULL,"2017-09-26 20:23:03","94844"
"A1DIW2K1J89CMO","cs_wg_v6_pilot2","32ZKVD547FO4YEBK3DYP5RKMMNH3BL","71","0","MACHINE","1","BLICKET","1","1169","machine",NULL,"2017-09-26 20:23:03","94845"
"A317L37U2W6R4P","cs_wg_v6_pilot2","39O5D9O87TTN8J3QHDUKGBQ448H3CS","59","1","STRUCTURE","1","SCREEP","1","526","structure",NULL,"2017-09-26 20:23:03","94846"
"A3H9A9RWEEL8FY","cs_wg_v6_pilot2","3WETL7AQWT929YUB237C25KUCRV35K","64","1","FOOTBALL","1","MICKERED","1","676","football",NULL,"2017-09-26 20:23:04","94847"
"A2FLOH4DM8A4ZS","cs_wg_v6_pilot2","3AAPLD8UCCIJO8C0IKEC9FRIBZYTH7","6","1","MACHINE","1","TINGER","1","1566","Machine",NULL,"2017-09-26 20:23:05","94848"
"A2TVJTQ4VXATE6","cs_wg_v6_pilot2","3OHYZ19UGC6O1TZEGXILYJYRZWSAOS","15","0","WEDDING","1","PLIBBERED","1","1061","wedding",NULL,"2017-09-26 20:23:09","94849"
"A317L37U2W6R4P","cs_wg_v6_pilot2","39O5D9O87TTN8J3QHDUKGBQ448H3CS","60","1","FOOTBALL","1","GLUNDLE","1","440","football",NULL,"2017-09-26 20:23:11","94850"
"A3H9A9RWEEL8FY","cs_wg_v6_pilot2","3WETL7AQWT929YUB237C25KUCRV35K","65","0","MACHINE","1","FROPED","1","1049","machine",NULL,"2017-09-26 20:23:11","94851"
"A1DIW2K1J89CMO","cs_wg_v6_pilot2","32ZKVD547FO4YEBK3DYP5RKMMNH3BL","72","0","BOOKSHELF","1","DUNCHED","1","1085","bookshelf",NULL,"2017-09-26 20:23:11","94852"
"A2TVJTQ4VXATE6","cs_wg_v6_pilot2","3OHYZ19UGC6O1TZEGXILYJYRZWSAOS","16","1","UMBRELLA","1","SCREEP","1","896","umbrella",NULL,"2017-09-26 20:23:16","94853"
"A3EJ44J2ZNRMDA","cs_wg_v6_pilot2","3BF51CHDTVBI8ZF9KIQ2P4PDEO20H3","39","0","WEDDING","1","CHAXED","1","9786","WEDDING",NULL,"2017-09-26 20:23:16","94854"
"A317L37U2W6R4P","cs_wg_v6_pilot2","39O5D9O87TTN8J3QHDUKGBQ448H3CS","61","1","LADDER","1","POATS","1","712","ladder",NULL,"2017-09-26 20:23:17","94855"
"A3H9A9RWEEL8FY","cs_wg_v6_pilot2","3WETL7AQWT929YUB237C25KUCRV35K","66","0","KEYBOARD","1","CHOOTH","1","1710","keyboard",NULL,"2017-09-26 20:23:18","94856"
"A1DIW2K1J89CMO","cs_wg_v6_pilot2","32ZKVD547FO4YEBK3DYP5RKMMNH3BL","73","1","FOOTBALL","1","CHEEDLE","1","1198","football",NULL,"2017-09-26 20:23:21","94857"
"A2TVJTQ4VXATE6","cs_wg_v6_pilot2","3OHYZ19UGC6O1TZEGXILYJYRZWSAOS","17","0","DOORWAY","1","POATS","1","1143","doorway",NULL,"2017-09-26 20:23:23","94858"
"A317L37U2W6R4P","cs_wg_v6_pilot2","39O5D9O87TTN8J3QHDUKGBQ448H3CS","62","1","STOMACH","1","SCRIGGED","1","671","stomach",NULL,"2017-09-26 20:23:24","94859"
"A3H9A9RWEEL8FY","cs_wg_v6_pilot2","3WETL7AQWT929YUB237C25KUCRV35K","67","0","COMMUNITY","1","JADDEARED","1","1051","community",NULL,"2017-09-26 20:23:25","94860"
"A1DIW2K1J89CMO","cs_wg_v6_pilot2","32ZKVD547FO4YEBK3DYP5RKMMNH3BL","74","1","TRAFFIC","1","CHEEDLE","1","879","traffic",NULL,"2017-09-26 20:23:28","94861"
"A2TVJTQ4VXATE6","cs_wg_v6_pilot2","3OHYZ19UGC6O1TZEGXILYJYRZWSAOS","18","0","FOOTBALL","1","FIPPING","1","1194","football",NULL,"2017-09-26 20:23:29","94862"
"A317L37U2W6R4P","cs_wg_v6_pilot2","39O5D9O87TTN8J3QHDUKGBQ448H3CS","63","1","TRAFFIC","1","ZORING","1","456","traffic",NULL,"2017-09-26 20:23:29","94863"
"A3EJ44J2ZNRMDA","cs_wg_v6_pilot2","3BF51CHDTVBI8ZF9KIQ2P4PDEO20H3","40","1","FOOTBALL","1","CHOOTH","1","6039","FOOTBALL",NULL,"2017-09-26 20:23:31","94864"
"A2FLOH4DM8A4ZS","cs_wg_v6_pilot2","3AAPLD8UCCIJO8C0IKEC9FRIBZYTH7","7","1","TRAFFIC","1","MURRADS","1","21238","Traffic",NULL,"2017-09-26 20:23:32","94865"
"A3H9A9RWEEL8FY","cs_wg_v6_pilot2","3WETL7AQWT929YUB237C25KUCRV35K","68","1","COMMUNITY","1","ROAKING","1","944","community",NULL,"2017-09-26 20:23:33","94866"
"A2TVJTQ4VXATE6","cs_wg_v6_pilot2","3OHYZ19UGC6O1TZEGXILYJYRZWSAOS","19","1","LADDER","1","FROPED","1","775",,NULL,"2017-09-26 20:23:34","94867"
"A1DIW2K1J89CMO","cs_wg_v6_pilot2","32ZKVD547FO4YEBK3DYP5RKMMNH3BL","75","1","WEDDING","1","JADDEARED","1","1065","wedding",NULL,"2017-09-26 20:23:36","94868"
"A317L37U2W6R4P","cs_wg_v6_pilot2","39O5D9O87TTN8J3QHDUKGBQ448H3CS","64","1","COMMUNITY","1","MURRADS","1","494","community",NULL,"2017-09-26 20:23:37","94869"
"A3H9A9RWEEL8FY","cs_wg_v6_pilot2","3WETL7AQWT929YUB237C25KUCRV35K","69","1","COMMUNITY","1","MUDLEY","1","506","community",NULL,"2017-09-26 20:23:39","94870"
"A2FLOH4DM8A4ZS","cs_wg_v6_pilot2","3AAPLD8UCCIJO8C0IKEC9FRIBZYTH7","8","0","WEDDING","1","NARDLY","1","1744","Wedding",NULL,"2017-09-26 20:23:40","94871"
"A2TVJTQ4VXATE6","cs_wg_v6_pilot2","3OHYZ19UGC6O1TZEGXILYJYRZWSAOS","20","1","UMBRELLA","1","DUNCHED","1","908","umbrella",NULL,"2017-09-26 20:23:41","94872"
"A3EJ44J2ZNRMDA","cs_wg_v6_pilot2","3BF51CHDTVBI8ZF9KIQ2P4PDEO20H3","41","0","LADDER","1","STEAVES","1","3059","LADDER",NULL,"2017-09-26 20:23:42","94873"
"A317L37U2W6R4P","cs_wg_v6_pilot2","39O5D9O87TTN8J3QHDUKGBQ448H3CS","65","0","KEYBOARD","1","TINGER","1","1334","keyboard",NULL,"2017-09-26 20:23:45","94874"
"A1DIW2K1J89CMO","cs_wg_v6_pilot2","32ZKVD547FO4YEBK3DYP5RKMMNH3BL","76","0","COMMUNITY","1","MEAKEN","1","1495","community",NULL,"2017-09-26 20:23:45","94875"
"A3H9A9RWEEL8FY","cs_wg_v6_pilot2","3WETL7AQWT929YUB237C25KUCRV35K","70","0","LADDER","1","ZORING","1","971","ladder",NULL,"2017-09-26 20:23:46","94876"
"A2TVJTQ4VXATE6","cs_wg_v6_pilot2","3OHYZ19UGC6O1TZEGXILYJYRZWSAOS","21","1","LADDER","1","FROPED","1","821","ladder",NULL,"2017-09-26 20:23:47","94877"
"A2FLOH4DM8A4ZS","cs_wg_v6_pilot2","3AAPLD8UCCIJO8C0IKEC9FRIBZYTH7","9","1","WEDDING","1","HOTCHACK","1","1496","Wedding",NULL,"2017-09-26 20:23:48","94878"
"A317L37U2W6R4P","cs_wg_v6_pilot2","39O5D9O87TTN8J3QHDUKGBQ448H3CS","66","1","FOOTBALL","1","CLEEPERS","1","425","football",NULL,"2017-09-26 20:23:51","94879"
"A3H9A9RWEEL8FY","cs_wg_v6_pilot2","3WETL7AQWT929YUB237C25KUCRV35K","71","1","DOORWAY","1","SCREEP","1","733","doorway",NULL,"2017-09-26 20:23:52","94880"
"A2TVJTQ4VXATE6","cs_wg_v6_pilot2","3OHYZ19UGC6O1TZEGXILYJYRZWSAOS","22","1","UMBRELLA","1","SURSED","1","727","umbrella",NULL,"2017-09-26 20:23:53","94881"
"A1DIW2K1J89CMO","cs_wg_v6_pilot2","32ZKVD547FO4YEBK3DYP5RKMMNH3BL","77","1","BASKET","1","VATED","1","967","basket",NULL,"2017-09-26 20:23:54","94882"
"A2FLOH4DM8A4ZS","cs_wg_v6_pilot2","3AAPLD8UCCIJO8C0IKEC9FRIBZYTH7","10","1","MACHINE","1","POATS","1","1239","Machine",NULL,"2017-09-26 20:23:55","94883"
"A3EJ44J2ZNRMDA","cs_wg_v6_pilot2","3BF51CHDTVBI8ZF9KIQ2P4PDEO20H3","42","0","MACHINE","1","ZALEY","1","8606","MACHINE",NULL,"2017-09-26 20:23:57","94884"
"A317L37U2W6R4P","cs_wg_v6_pilot2","39O5D9O87TTN8J3QHDUKGBQ448H3CS","67","0","STRUCTURE","1","HOTCHACK","1","672","structure",NULL,"2017-09-26 20:23:57","94885"
"A3H9A9RWEEL8FY","cs_wg_v6_pilot2","3WETL7AQWT929YUB237C25KUCRV35K","72","0","WEDDING","1","GLUNDLE","1","963","wedding",NULL,"2017-09-26 20:23:59","94886"
"A2TVJTQ4VXATE6","cs_wg_v6_pilot2","3OHYZ19UGC6O1TZEGXILYJYRZWSAOS","23","1","DOORWAY","1","CLEEPERS","1","653","doorway",NULL,"2017-09-26 20:24:00","94887"
"A1DIW2K1J89CMO","cs_wg_v6_pilot2","32ZKVD547FO4YEBK3DYP5RKMMNH3BL","78","1","FOOTBALL","1","ZORING","1","1307","football",NULL,"2017-09-26 20:24:02","94888"
"A317L37U2W6R4P","cs_wg_v6_pilot2","39O5D9O87TTN8J3QHDUKGBQ448H3CS","68","1","LADDER","1","MUDLEY","1","534","ladder",NULL,"2017-09-26 20:24:03","94889"
"A2FLOH4DM8A4ZS","cs_wg_v6_pilot2","3AAPLD8UCCIJO8C0IKEC9FRIBZYTH7","11","1","FOOTBALL","1","VATED","1","2191","Football",NULL,"2017-09-26 20:24:04","94890"
"A3H9A9RWEEL8FY","cs_wg_v6_pilot2","3WETL7AQWT929YUB237C25KUCRV35K","73","1","COMMUNITY","1","SNAVE","1","803","community",NULL,"2017-09-26 20:24:06","94891"
"A3EJ44J2ZNRMDA","cs_wg_v6_pilot2","3BF51CHDTVBI8ZF9KIQ2P4PDEO20H3","43","0","WEDDING","1","VATED","1","2624","WEDDING",NULL,"2017-09-26 20:24:06","94892"
"A2TVJTQ4VXATE6","cs_wg_v6_pilot2","3OHYZ19UGC6O1TZEGXILYJYRZWSAOS","24","1","LADDER","1","WUGGED","1","911","ladder",NULL,"2017-09-26 20:24:07","94893"
"A3TCFIPOBRZZB3","cs_wg_v6_pilot2","3FDJT1UU74985W2IN9ZBJR1WNDH5KX","0","0","HELICOPTER","1","DROOFER","1","3996","helicopter",NULL,"2017-09-26 20:24:09","94894"
"A1DIW2K1J89CMO","cs_wg_v6_pilot2","32ZKVD547FO4YEBK3DYP5RKMMNH3BL","79","1","WEDDING","1","MEAKEN","1","1050","wedding",NULL,"2017-09-26 20:24:09","94895"
"A317L37U2W6R4P","cs_wg_v6_pilot2","39O5D9O87TTN8J3QHDUKGBQ448H3CS","69","1","FOOTBALL","1","WUGGED","1","815","football",NULL,"2017-09-26 20:24:10","94896"
"A2FLOH4DM8A4ZS","cs_wg_v6_pilot2","3AAPLD8UCCIJO8C0IKEC9FRIBZYTH7","12","1","BASKET","1","DUNCHED","1","1571","Basket",NULL,"2017-09-26 20:24:11","94897"
"A3H9A9RWEEL8FY","cs_wg_v6_pilot2","3WETL7AQWT929YUB237C25KUCRV35K","74","0","TRAFFIC","1","WUGGED","1","1021","traffic",NULL,"2017-09-26 20:24:12","94898"
"A2TVJTQ4VXATE6","cs_wg_v6_pilot2","3OHYZ19UGC6O1TZEGXILYJYRZWSAOS","25","1","KEYBOARD","1","SNAVE","1","737","keyboard",NULL,"2017-09-26 20:24:13","94899"
"A3H9A9RWEEL8FY","cs_wg_v6_pilot2","3WETL7AQWT929YUB237C25KUCRV35K","75","1","TRAFFIC","1","SNAVE","1","772","traffic",NULL,"2017-09-26 20:24:18","94900"
"A1DIW2K1J89CMO","cs_wg_v6_pilot2","32ZKVD547FO4YEBK3DYP5RKMMNH3BL","80","0","COMMUNITY","1","JADDEARED","1","1406","community",NULL,"2017-09-26 20:24:18","94901"
"A2TVJTQ4VXATE6","cs_wg_v6_pilot2","3OHYZ19UGC6O1TZEGXILYJYRZWSAOS","26","0","STOMACH","1","PLIBBERED","1","1238","stomach",NULL,"2017-09-26 20:24:20","94902"
"A2FLOH4DM8A4ZS","cs_wg_v6_pilot2","3AAPLD8UCCIJO8C0IKEC9FRIBZYTH7","13","0","WEDDING","1","MURRADS","1","1589","Wedding",NULL,"2017-09-26 20:24:21","94903"
"A3EJ44J2ZNRMDA","cs_wg_v6_pilot2","3BF51CHDTVBI8ZF9KIQ2P4PDEO20H3","44","0","BOOKSHELF","1","SURSED","1","2258","BOOKSHELF",NULL,"2017-09-26 20:24:21","94904"
"A317L37U2W6R4P","cs_wg_v6_pilot2","39O5D9O87TTN8J3QHDUKGBQ448H3CS","70","1","COMMUNITY","1","FROPED","1","3911","community",NULL,"2017-09-26 20:24:23","94905"
"A3H9A9RWEEL8FY","cs_wg_v6_pilot2","3WETL7AQWT929YUB237C25KUCRV35K","76","0","COMMUNITY","1","FLEMMERING","1","933","community",NULL,"2017-09-26 20:24:24","94906"
"A3TCFIPOBRZZB3","cs_wg_v6_pilot2","3FDJT1UU74985W2IN9ZBJR1WNDH5KX","1","0","UMBRELLA","1","NARDLY","1","5852","umbrella",NULL,"2017-09-26 20:24:26","94907"
"A2TVJTQ4VXATE6","cs_wg_v6_pilot2","3OHYZ19UGC6O1TZEGXILYJYRZWSAOS","27","1","MACHINE","1","DROOFER","1","733","machine",NULL,"2017-09-26 20:24:26","94908"
"A1DIW2K1J89CMO","cs_wg_v6_pilot2","32ZKVD547FO4YEBK3DYP5RKMMNH3BL","81","1","LADDER","1","PLIBBERED","1","1102","ladder",NULL,"2017-09-26 20:24:27","94909"
"A317L37U2W6R4P","cs_wg_v6_pilot2","39O5D9O87TTN8J3QHDUKGBQ448H3CS","71","0","STRUCTURE","1","VATED","1","935","structure",NULL,"2017-09-26 20:24:31","94910"
"A3H9A9RWEEL8FY","cs_wg_v6_pilot2","3WETL7AQWT929YUB237C25KUCRV35K","77","1","BASKET","1","ROAKING","1","1110","basket",NULL,"2017-09-26 20:24:31","94911"
"A3EJ44J2ZNRMDA","cs_wg_v6_pilot2","3BF51CHDTVBI8ZF9KIQ2P4PDEO20H3","45","0","COMMUNITY","1","FROPED","1","2287","COMMUNITY",NULL,"2017-09-26 20:24:31","94912"
"A2FLOH4DM8A4ZS","cs_wg_v6_pilot2","3AAPLD8UCCIJO8C0IKEC9FRIBZYTH7","14","0","STRUCTURE","1","SURSED","1","1511","Structure",NULL,"2017-09-26 20:24:32","94913"
"A2TVJTQ4VXATE6","cs_wg_v6_pilot2","3OHYZ19UGC6O1TZEGXILYJYRZWSAOS","28","0","STOMACH","1","MURRADS","1","1139","stomach",NULL,"2017-09-26 20:24:33","94914"
"A1DIW2K1J89CMO","cs_wg_v6_pilot2","32ZKVD547FO4YEBK3DYP5RKMMNH3BL","82","0","HELICOPTER","1","CHOOTH","1","1135","helicopter",NULL,"2017-09-26 20:24:36","94915"
"A317L37U2W6R4P","cs_wg_v6_pilot2","39O5D9O87TTN8J3QHDUKGBQ448H3CS","72","1","WEDDING","1","FLEMMERING","1","640","wedding",NULL,"2017-09-26 20:24:37","94916"
"A3H9A9RWEEL8FY","cs_wg_v6_pilot2","3WETL7AQWT929YUB237C25KUCRV35K","78","0","LADDER","1","CHEEDLE","1","955","ladder",NULL,"2017-09-26 20:24:38","94917"
"A3TCFIPOBRZZB3","cs_wg_v6_pilot2","3FDJT1UU74985W2IN9ZBJR1WNDH5KX","2","1","STOMACH","1","FLEMMERING","1","2715","stomach",NULL,"2017-09-26 20:24:38","94918"
"A2TVJTQ4VXATE6","cs_wg_v6_pilot2","3OHYZ19UGC6O1TZEGXILYJYRZWSAOS","29","0","UMBRELLA","1","MEAKEN","1","1172","umbrella",NULL,"2017-09-26 20:24:40","94919"
"A3EJ44J2ZNRMDA","cs_wg_v6_pilot2","3BF51CHDTVBI8ZF9KIQ2P4PDEO20H3","46","1","BASKET","1","FROPED","1","2497","BASKET",NULL,"2017-09-26 20:24:40","94920"
"A2FLOH4DM8A4ZS","cs_wg_v6_pilot2","3AAPLD8UCCIJO8C0IKEC9FRIBZYTH7","15","1","STRUCTURE","1","MURRADS","1","1378","Structure",NULL,"2017-09-26 20:24:40","94921"
"A3H9A9RWEEL8FY","cs_wg_v6_pilot2","3WETL7AQWT929YUB237C25KUCRV35K","79","0","FOOTBALL","1","MUDLEY","1","883","football",NULL,"2017-09-26 20:24:44","94922"
"A1DIW2K1J89CMO","cs_wg_v6_pilot2","32ZKVD547FO4YEBK3DYP5RKMMNH3BL","83","0","DOORWAY","1","PLIBBERED","1","1211","doorway",NULL,"2017-09-26 20:24:45","94923"
"A317L37U2W6R4P","cs_wg_v6_pilot2","39O5D9O87TTN8J3QHDUKGBQ448H3CS","73","0","BOOKSHELF","1","MEAKEN","1","568","bookshelf",NULL,"2017-09-26 20:24:45","94924"
"A2TVJTQ4VXATE6","cs_wg_v6_pilot2","3OHYZ19UGC6O1TZEGXILYJYRZWSAOS","30","1","BOOKSHELF","1","POATS","1","731","bookshelf",NULL,"2017-09-26 20:24:46","94925"
"A3TCFIPOBRZZB3","cs_wg_v6_pilot2","3FDJT1UU74985W2IN9ZBJR1WNDH5KX","3","0","COMMUNITY","1","SNAVE","1","2838","community",NULL,"2017-09-26 20:24:48","94926"
"A2FLOH4DM8A4ZS","cs_wg_v6_pilot2","3AAPLD8UCCIJO8C0IKEC9FRIBZYTH7","16","1","STRUCTURE","1","ZALEY","1","2092","Structure",NULL,"2017-09-26 20:24:49","94927"
"A3H9A9RWEEL8FY","cs_wg_v6_pilot2","3WETL7AQWT929YUB237C25KUCRV35K","80","0","HELICOPTER","1","NARDLY","1","1036","helicopter",NULL,"2017-09-26 20:24:51","94928"
"A2TVJTQ4VXATE6","cs_wg_v6_pilot2","3OHYZ19UGC6O1TZEGXILYJYRZWSAOS","31","1","DOORWAY","1","FLEMMERING","1","1236","doorway",NULL,"2017-09-26 20:24:53","94929"
"A3EJ44J2ZNRMDA","cs_wg_v6_pilot2","3BF51CHDTVBI8ZF9KIQ2P4PDEO20H3","47","1","KEYBOARD","1","CHAXED","1","2163","KEYBOARD",NULL,"2017-09-26 20:24:53","94930"
"A317L37U2W6R4P","cs_wg_v6_pilot2","39O5D9O87TTN8J3QHDUKGBQ448H3CS","74","1","BASKET","1","PLIBBERED","1","2777","basket",NULL,"2017-09-26 20:24:54","94931"
"A1DIW2K1J89CMO","cs_wg_v6_pilot2","32ZKVD547FO4YEBK3DYP5RKMMNH3BL","84","0","HELICOPTER","1","MURRADS","1","1095","helicopter",NULL,"2017-09-26 20:24:55","94932"
"A3H9A9RWEEL8FY","cs_wg_v6_pilot2","3WETL7AQWT929YUB237C25KUCRV35K","81","1","BASKET","1","THOCKY","1","739","basket",NULL,"2017-09-26 20:24:57","94933"
"A3TCFIPOBRZZB3","cs_wg_v6_pilot2","3FDJT1UU74985W2IN9ZBJR1WNDH5KX","4","1","BOOKSHELF","1","ZORING","1","2749","bookshelf",NULL,"2017-09-26 20:24:58","94934"
"A2FLOH4DM8A4ZS","cs_wg_v6_pilot2","3AAPLD8UCCIJO8C0IKEC9FRIBZYTH7","17","0","BOOKSHELF","1","FLEMMERING","1","2215","Bookshelf",NULL,"2017-09-26 20:24:59","94935"
"A2TVJTQ4VXATE6","cs_wg_v6_pilot2","3OHYZ19UGC6O1TZEGXILYJYRZWSAOS","32","0","BOOKSHELF","1","CHOOTH","1","1106","bookshelf",NULL,"2017-09-26 20:24:59","94936"
"A317L37U2W6R4P","cs_wg_v6_pilot2","39O5D9O87TTN8J3QHDUKGBQ448H3CS","75","0","LADDER","1","JADDEARED","1","711","ladder",NULL,"2017-09-26 20:25:00","94937"
"A3EJ44J2ZNRMDA","cs_wg_v6_pilot2","3BF51CHDTVBI8ZF9KIQ2P4PDEO20H3","48","0","BASKET","1","ZORING","1","2724","BASKET",NULL,"2017-09-26 20:25:03","94938"
"A3H9A9RWEEL8FY","cs_wg_v6_pilot2","3WETL7AQWT929YUB237C25KUCRV35K","82","1","MACHINE","1","NARDLY","1","613","machine",NULL,"2017-09-26 20:25:03","94939"
"A1DIW2K1J89CMO","cs_wg_v6_pilot2","32ZKVD547FO4YEBK3DYP5RKMMNH3BL","85","0","FOOTBALL","1","MEAKEN","1","1277","football",NULL,"2017-09-26 20:25:04","94940"
"A3TCFIPOBRZZB3","cs_wg_v6_pilot2","3FDJT1UU74985W2IN9ZBJR1WNDH5KX","5","1","WEDDING","1","CHEEDLE","1","1067","wedding",NULL,"2017-09-26 20:25:05","94941"
"A317L37U2W6R4P","cs_wg_v6_pilot2","39O5D9O87TTN8J3QHDUKGBQ448H3CS","76","1","UMBRELLA","1","MICKERED","1","503","umbrella",NULL,"2017-09-26 20:25:06","94942"
"A2TVJTQ4VXATE6","cs_wg_v6_pilot2","3OHYZ19UGC6O1TZEGXILYJYRZWSAOS","33","1","STOMACH","1","CHOOTH","1","2213","stomach",NULL,"2017-09-26 20:25:07","94943"
"A2FLOH4DM8A4ZS","cs_wg_v6_pilot2","3AAPLD8UCCIJO8C0IKEC9FRIBZYTH7","18","0","WEDDING","1","WUGGED","1","2259","Wedding",NULL,"2017-09-26 20:25:07","94944"
"A3H9A9RWEEL8FY","cs_wg_v6_pilot2","3WETL7AQWT929YUB237C25KUCRV35K","83","0","BASKET","1","DUNCHED","1","1035","basket",NULL,"2017-09-26 20:25:10","94945"
"A3TCFIPOBRZZB3","cs_wg_v6_pilot2","3FDJT1UU74985W2IN9ZBJR1WNDH5KX","6","0","DOORWAY","1","CLEEPERS","1","1051","doorway",NULL,"2017-09-26 20:25:12","94946"
"A3EJ44J2ZNRMDA","cs_wg_v6_pilot2","3BF51CHDTVBI8ZF9KIQ2P4PDEO20H3","49","1","BASKET","1","HOTCHACK","1","3294","BASKET",NULL,"2017-09-26 20:25:12","94947"
"A2TVJTQ4VXATE6","cs_wg_v6_pilot2","3OHYZ19UGC6O1TZEGXILYJYRZWSAOS","34","1","DOORWAY","1","VATED","1","840","doorway",NULL,"2017-09-26 20:25:14","94948"
"A317L37U2W6R4P","cs_wg_v6_pilot2","39O5D9O87TTN8J3QHDUKGBQ448H3CS","77","0","COMMUNITY","1","CHOOTH","1","461","community",NULL,"2017-09-26 20:25:14","94949"
"A3H9A9RWEEL8FY","cs_wg_v6_pilot2","3WETL7AQWT929YUB237C25KUCRV35K","84","1","LADDER","1","DUNCHED","1","667","ladder",NULL,"2017-09-26 20:25:16","94950"
"A2FLOH4DM8A4ZS","cs_wg_v6_pilot2","3AAPLD8UCCIJO8C0IKEC9FRIBZYTH7","19","0","KEYBOARD","1","ZALEY","1","2121","Keyboard",NULL,"2017-09-26 20:25:16","94951"
"A1DIW2K1J89CMO","cs_wg_v6_pilot2","32ZKVD547FO4YEBK3DYP5RKMMNH3BL","86","1","HELICOPTER","1","GLUNDLE","1","1756","helicopter",NULL,"2017-09-26 20:25:17","94952"
"A3TCFIPOBRZZB3","cs_wg_v6_pilot2","3FDJT1UU74985W2IN9ZBJR1WNDH5KX","7","1","STOMACH","1","CHAXED","1","960","stomach",NULL,"2017-09-26 20:25:20","94953"
"A2TVJTQ4VXATE6","cs_wg_v6_pilot2","3OHYZ19UGC6O1TZEGXILYJYRZWSAOS","35","0","FOOTBALL","1","JADDEARED","1","1169","football",NULL,"2017-09-26 20:25:20","94954"
"A317L37U2W6R4P","cs_wg_v6_pilot2","39O5D9O87TTN8J3QHDUKGBQ448H3CS","78","1","COMMUNITY","1","POATS","1","665","community",NULL,"2017-09-26 20:25:22","94955"
"A3EJ44J2ZNRMDA","cs_wg_v6_pilot2","3BF51CHDTVBI8ZF9KIQ2P4PDEO20H3","50","1","BASKET","1","TINGER","1","3230","BASKET",NULL,"2017-09-26 20:25:22","94956"
"A3H9A9RWEEL8FY","cs_wg_v6_pilot2","3WETL7AQWT929YUB237C25KUCRV35K","85","0","FOOTBALL","1","FROPED","1","883","football",NULL,"2017-09-26 20:25:22","94957"
"A2FLOH4DM8A4ZS","cs_wg_v6_pilot2","3AAPLD8UCCIJO8C0IKEC9FRIBZYTH7","20","0","DOORWAY","1","WUGGED","1","1609","Doorway",NULL,"2017-09-26 20:25:24","94958"
"A1DIW2K1J89CMO","cs_wg_v6_pilot2","32ZKVD547FO4YEBK3DYP5RKMMNH3BL","87","0","LADDER","1","FLEMMERING","1","1176","ladder",NULL,"2017-09-26 20:25:25","94959"
"A2TVJTQ4VXATE6","cs_wg_v6_pilot2","3OHYZ19UGC6O1TZEGXILYJYRZWSAOS","36","1","MACHINE","1","DUNCHED","1","803","machine",NULL,"2017-09-26 20:25:26","94960"
"A3TCFIPOBRZZB3","cs_wg_v6_pilot2","3FDJT1UU74985W2IN9ZBJR1WNDH5KX","8","0","KEYBOARD","1","ZALEY","1","1078","keyboard",NULL,"2017-09-26 20:25:28","94961"
"A3H9A9RWEEL8FY","cs_wg_v6_pilot2","3WETL7AQWT929YUB237C25KUCRV35K","86","0","BOOKSHELF","1","STEAVES","1","1077","bookshelf",NULL,"2017-09-26 20:25:29","94962"
"A317L37U2W6R4P","cs_wg_v6_pilot2","39O5D9O87TTN8J3QHDUKGBQ448H3CS","79","1","TRAFFIC","1","JADDEARED","1","624","traffic",NULL,"2017-09-26 20:25:30","94963"
"A2FLOH4DM8A4ZS","cs_wg_v6_pilot2","3AAPLD8UCCIJO8C0IKEC9FRIBZYTH7","21","0","UMBRELLA","1","SNAVE","1","1432","Umbrella",NULL,"2017-09-26 20:25:32","94964"
"A2TVJTQ4VXATE6","cs_wg_v6_pilot2","3OHYZ19UGC6O1TZEGXILYJYRZWSAOS","37","1","STOMACH","1","POATS","1","987","stomach",NULL,"2017-09-26 20:25:33","94965"
"A3EJ44J2ZNRMDA","cs_wg_v6_pilot2","3BF51CHDTVBI8ZF9KIQ2P4PDEO20H3","51","1","STOMACH","1","CHOOTH","1","2396","STOMACH",NULL,"2017-09-26 20:25:34","94966"
"A3TCFIPOBRZZB3","cs_wg_v6_pilot2","3FDJT1UU74985W2IN9ZBJR1WNDH5KX","9","1","BOOKSHELF","1","FROPED","1","1195","bookshelf",NULL,"2017-09-26 20:25:35","94967"
"A1DIW2K1J89CMO","cs_wg_v6_pilot2","32ZKVD547FO4YEBK3DYP5RKMMNH3BL","88","1","HELICOPTER","1","SCRIGGED","1","1476","helicopter",NULL,"2017-09-26 20:25:36","94968"
"A3H9A9RWEEL8FY","cs_wg_v6_pilot2","3WETL7AQWT929YUB237C25KUCRV35K","87","1","DOORWAY","1","VATED","1","597","doorway",NULL,"2017-09-26 20:25:36","94969"
"A317L37U2W6R4P","cs_wg_v6_pilot2","39O5D9O87TTN8J3QHDUKGBQ448H3CS","80","1","BOOKSHELF","1","SNAVE","1","554","bookshelf",NULL,"2017-09-26 20:25:37","94970"
"A2TVJTQ4VXATE6","cs_wg_v6_pilot2","3OHYZ19UGC6O1TZEGXILYJYRZWSAOS","38","1","TRAFFIC","1","SNAVE","1","628","traffic",NULL,"2017-09-26 20:25:39","94971"
"A2FLOH4DM8A4ZS","cs_wg_v6_pilot2","3AAPLD8UCCIJO8C0IKEC9FRIBZYTH7","22","0","HELICOPTER","1","SURSED","1","1390","Helicopter",NULL,"2017-09-26 20:25:41","94972"
"A3TCFIPOBRZZB3","cs_wg_v6_pilot2","3FDJT1UU74985W2IN9ZBJR1WNDH5KX","10","1","TRAFFIC","1","ZALEY","1","1057","traffic",NULL,"2017-09-26 20:25:42","94973"
"A3H9A9RWEEL8FY","cs_wg_v6_pilot2","3WETL7AQWT929YUB237C25KUCRV35K","88","1","HELICOPTER","1","SCRIGGED","1","675","helicopter",NULL,"2017-09-26 20:25:43","94974"
"A317L37U2W6R4P","cs_wg_v6_pilot2","39O5D9O87TTN8J3QHDUKGBQ448H3CS","81","1","COMMUNITY","1","CHOOTH","1","470","community",NULL,"2017-09-26 20:25:44","94975"
"A3EJ44J2ZNRMDA","cs_wg_v6_pilot2","3BF51CHDTVBI8ZF9KIQ2P4PDEO20H3","52","0","STRUCTURE","1","ZORING","1","3605","STRUCTURE",NULL,"2017-09-26 20:25:44","94976"
"A1DIW2K1J89CMO","cs_wg_v6_pilot2","32ZKVD547FO4YEBK3DYP5RKMMNH3BL","89","0","STRUCTURE","1","SURSED","1","1383","structure",NULL,"2017-09-26 20:25:44","94977"
"A2TVJTQ4VXATE6","cs_wg_v6_pilot2","3OHYZ19UGC6O1TZEGXILYJYRZWSAOS","39","1","COMMUNITY","1","SURSED","1","925","community",NULL,"2017-09-26 20:25:45","94978"
"A3H9A9RWEEL8FY","cs_wg_v6_pilot2","3WETL7AQWT929YUB237C25KUCRV35K","89","0","FOOTBALL","1","GLUNDLE","1","1022","football",NULL,"2017-09-26 20:25:49","94979"
"A317L37U2W6R4P","cs_wg_v6_pilot2","39O5D9O87TTN8J3QHDUKGBQ448H3CS","82","1","LADDER","1","SURSED","1","664","ladder",NULL,"2017-09-26 20:25:50","94980"
"A3TCFIPOBRZZB3","cs_wg_v6_pilot2","3FDJT1UU74985W2IN9ZBJR1WNDH5KX","11","0","TRAFFIC","1","CHOOTH","1","1252","traffic",NULL,"2017-09-26 20:25:50","94981"
"A1DIW2K1J89CMO","cs_wg_v6_pilot2","32ZKVD547FO4YEBK3DYP5RKMMNH3BL","90","0","TRAFFIC","1","WOOKED","1","1385","traffic",NULL,"2017-09-26 20:25:53","94982"
"A3H9A9RWEEL8FY","cs_wg_v6_pilot2","3WETL7AQWT929YUB237C25KUCRV35K","90","0","DOORWAY","1","FROPED","1","884","doorway",NULL,"2017-09-26 20:25:56","94983"
"A3EJ44J2ZNRMDA","cs_wg_v6_pilot2","3BF51CHDTVBI8ZF9KIQ2P4PDEO20H3","53","0","DOORWAY","1","ROAKING","1","6923","DOORWAY",NULL,"2017-09-26 20:25:57","94984"
"A317L37U2W6R4P","cs_wg_v6_pilot2","39O5D9O87TTN8J3QHDUKGBQ448H3CS","83","0","DOORWAY","1","DUNCHED","1","975","doorway",NULL,"2017-09-26 20:25:57","94985"
"A2TVJTQ4VXATE6","cs_wg_v6_pilot2","3OHYZ19UGC6O1TZEGXILYJYRZWSAOS","40","1","DOORWAY","1","SCREEP","1","6294","doorway",NULL,"2017-09-26 20:25:57","94986"
"A3TCFIPOBRZZB3","cs_wg_v6_pilot2","3FDJT1UU74985W2IN9ZBJR1WNDH5KX","12","0","LADDER","1","ZORING","1","1577","ladder",NULL,"2017-09-26 20:25:58","94987"
"A2FLOH4DM8A4ZS","cs_wg_v6_pilot2","3AAPLD8UCCIJO8C0IKEC9FRIBZYTH7","23","1","BOOKSHELF","1","JADDEARED","1","11418","Bookshelf",NULL,"2017-09-26 20:25:59","94988"
"A1DIW2K1J89CMO","cs_wg_v6_pilot2","32ZKVD547FO4YEBK3DYP5RKMMNH3BL","91","1","TRAFFIC","1","MUDLEY","1","1345","traffic",NULL,"2017-09-26 20:26:01","94989"
"A3H9A9RWEEL8FY","cs_wg_v6_pilot2","3WETL7AQWT929YUB237C25KUCRV35K","91","1","UMBRELLA","1","CLEEPERS","1","662","umbrella",NULL,"2017-09-26 20:26:02","94990"
"A317L37U2W6R4P","cs_wg_v6_pilot2","39O5D9O87TTN8J3QHDUKGBQ448H3CS","84","0","KEYBOARD","1","THOCKY","1","815","keyboard",NULL,"2017-09-26 20:26:04","94991"
"A3TCFIPOBRZZB3","cs_wg_v6_pilot2","3FDJT1UU74985W2IN9ZBJR1WNDH5KX","13","1","TRAFFIC","1","HOTCHACK","1","1611","traffic",NULL,"2017-09-26 20:26:05","94992"
"A3EJ44J2ZNRMDA","cs_wg_v6_pilot2","3BF51CHDTVBI8ZF9KIQ2P4PDEO20H3","54","1","KEYBOARD","1","DROOFER","1","2426","KEYBOARD",NULL,"2017-09-26 20:26:06","94993"
"A2TVJTQ4VXATE6","cs_wg_v6_pilot2","3OHYZ19UGC6O1TZEGXILYJYRZWSAOS","41","1","STRUCTURE","1","SURSED","1","3584","structure",NULL,"2017-09-26 20:26:07","94994"
"A2FLOH4DM8A4ZS","cs_wg_v6_pilot2","3AAPLD8UCCIJO8C0IKEC9FRIBZYTH7","24","0","BOOKSHELF","1","ZALEY","1","1555","Bookshelf",NULL,"2017-09-26 20:26:07","94995"
"A1DIW2K1J89CMO","cs_wg_v6_pilot2","32ZKVD547FO4YEBK3DYP5RKMMNH3BL","92","1","WEDDING","1","DUNCHED","1","941","wedding",NULL,"2017-09-26 20:26:09","94996"
"A3H9A9RWEEL8FY","cs_wg_v6_pilot2","3WETL7AQWT929YUB237C25KUCRV35K","92","1","LADDER","1","MEAKEN","1","923","ladder",NULL,"2017-09-26 20:26:09","94997"
"A317L37U2W6R4P","cs_wg_v6_pilot2","39O5D9O87TTN8J3QHDUKGBQ448H3CS","85","1","MACHINE","1","DUNCHED","1","1199","machine",NULL,"2017-09-26 20:26:12","94998"
"A2FLOH4DM8A4ZS","cs_wg_v6_pilot2","3AAPLD8UCCIJO8C0IKEC9FRIBZYTH7","25","0","WEDDING","1","GLUNDLE","1","1356","Wedding",NULL,"2017-09-26 20:26:15","94999"
"A2TVJTQ4VXATE6","cs_wg_v6_pilot2","3OHYZ19UGC6O1TZEGXILYJYRZWSAOS","42","1","HELICOPTER","1","THOCKY","1","815","helicopter
",NULL,"2017-09-26 20:26:15","95000"
"A3TCFIPOBRZZB3","cs_wg_v6_pilot2","3FDJT1UU74985W2IN9ZBJR1WNDH5KX","14","0","WEDDING","1","SNAVE","1","1017","wedding",NULL,"2017-09-26 20:26:16","95001"
"A3H9A9RWEEL8FY","cs_wg_v6_pilot2","3WETL7AQWT929YUB237C25KUCRV35K","93","0","HELICOPTER","1","JADDEARED","1","1092","helicopter",NULL,"2017-09-26 20:26:16","95002"
"A3EJ44J2ZNRMDA","cs_wg_v6_pilot2","3BF51CHDTVBI8ZF9KIQ2P4PDEO20H3","55","0","TRAFFIC","1","DROOFER","1","4245","TRAFFIC",NULL,"2017-09-26 20:26:17","95003"
"A1DIW2K1J89CMO","cs_wg_v6_pilot2","32ZKVD547FO4YEBK3DYP5RKMMNH3BL","93","1","COMMUNITY","1","HOTCHACK","1","899","community",NULL,"2017-09-26 20:26:17","95004"
"A2FLOH4DM8A4ZS","cs_wg_v6_pilot2","3AAPLD8UCCIJO8C0IKEC9FRIBZYTH7","26","0","BOOKSHELF","1","VATED","1","1139","Bookshelf",NULL,"2017-09-26 20:26:22","95005"
"A3H9A9RWEEL8FY","cs_wg_v6_pilot2","3WETL7AQWT929YUB237C25KUCRV35K","94","0","FOOTBALL","1","MEAKEN","1","1038","football",NULL,"2017-09-26 20:26:23","95006"
"A2TVJTQ4VXATE6","cs_wg_v6_pilot2","3OHYZ19UGC6O1TZEGXILYJYRZWSAOS","43","0","BASKET","1","WOOKED","1","1345","basket",NULL,"2017-09-26 20:26:23","95007"
"A317L37U2W6R4P","cs_wg_v6_pilot2","39O5D9O87TTN8J3QHDUKGBQ448H3CS","86","1","HELICOPTER","1","DROOFER","1","4190","helicopter",NULL,"2017-09-26 20:26:24","95008"
"A3TCFIPOBRZZB3","cs_wg_v6_pilot2","3FDJT1UU74985W2IN9ZBJR1WNDH5KX","15","1","UMBRELLA","1","MEAKEN","1","1135","umbrella",NULL,"2017-09-26 20:26:25","95009"
"A1DIW2K1J89CMO","cs_wg_v6_pilot2","32ZKVD547FO4YEBK3DYP5RKMMNH3BL","94","0","STOMACH","1","SNAVE","1","1226","stomach",NULL,"2017-09-26 20:26:25","95010"
"A3EJ44J2ZNRMDA","cs_wg_v6_pilot2","3BF51CHDTVBI8ZF9KIQ2P4PDEO20H3","56","1","UMBRELLA","1","FIPPING","1","2084","UMBRELLA",NULL,"2017-09-26 20:26:26","95011"
"A3H9A9RWEEL8FY","cs_wg_v6_pilot2","3WETL7AQWT929YUB237C25KUCRV35K","95","1","MACHINE","1","NARDLY","1","708","machine",NULL,"2017-09-26 20:26:29","95012"
"A2FLOH4DM8A4ZS","cs_wg_v6_pilot2","3AAPLD8UCCIJO8C0IKEC9FRIBZYTH7","27","0","STRUCTURE","1","CLEEPERS","1","1926","Structure",NULL,"2017-09-26 20:26:30","95013"
"A317L37U2W6R4P","cs_wg_v6_pilot2","39O5D9O87TTN8J3QHDUKGBQ448H3CS","87","1","WEDDING","1","ZALEY","1","568","wedding",NULL,"2017-09-26 20:26:30","95014"
"A2TVJTQ4VXATE6","cs_wg_v6_pilot2","3OHYZ19UGC6O1TZEGXILYJYRZWSAOS","44","1","BOOKSHELF","1","HOTCHACK","1","758","bookshelf",NULL,"2017-09-26 20:26:30","95015"
"A1DIW2K1J89CMO","cs_wg_v6_pilot2","32ZKVD547FO4YEBK3DYP5RKMMNH3BL","95","0","STOMACH","1","CHOOTH","1","980","stomach",NULL,"2017-09-26 20:26:34","95016"
"A3TCFIPOBRZZB3","cs_wg_v6_pilot2","3FDJT1UU74985W2IN9ZBJR1WNDH5KX","16","0","UMBRELLA","1","CLEEPERS","1","1359","umbrella",NULL,"2017-09-26 20:26:34","95017"
"A3EJ44J2ZNRMDA","cs_wg_v6_pilot2","3BF51CHDTVBI8ZF9KIQ2P4PDEO20H3","57","0","FOOTBALL","1","SCRIGGED","1","2618","FOOTBALL",NULL,"2017-09-26 20:26:35","95018"
"A3H9A9RWEEL8FY","cs_wg_v6_pilot2","3WETL7AQWT929YUB237C25KUCRV35K","96","0","LADDER","1","FROPED","1","1091","ladder",NULL,"2017-09-26 20:26:36","95019"
"A317L37U2W6R4P","cs_wg_v6_pilot2","39O5D9O87TTN8J3QHDUKGBQ448H3CS","88","0","STOMACH","1","FIPPING","1","662","stomach",NULL,"2017-09-26 20:26:37","95020"
"A2TVJTQ4VXATE6","cs_wg_v6_pilot2","3OHYZ19UGC6O1TZEGXILYJYRZWSAOS","45","0","BASKET","1","DUNCHED","1","1194","basket",NULL,"2017-09-26 20:26:37","95021"
"A3TCFIPOBRZZB3","cs_wg_v6_pilot2","3FDJT1UU74985W2IN9ZBJR1WNDH5KX","17","1","MACHINE","1","SNAVE","1","1981","machine",NULL,"2017-09-26 20:26:43","95022"
"A3H9A9RWEEL8FY","cs_wg_v6_pilot2","3WETL7AQWT929YUB237C25KUCRV35K","97","0","STRUCTURE","1","WUGGED","1","1044","structure",NULL,"2017-09-26 20:26:43","95023"
"A3EJ44J2ZNRMDA","cs_wg_v6_pilot2","3BF51CHDTVBI8ZF9KIQ2P4PDEO20H3","58","0","LADDER","1","WUGGED","1","1769","LADDER",NULL,"2017-09-26 20:26:43","95024"
"A2TVJTQ4VXATE6","cs_wg_v6_pilot2","3OHYZ19UGC6O1TZEGXILYJYRZWSAOS","46","0","KEYBOARD","1","MEAKEN","1","1382","keyboard",NULL,"2017-09-26 20:26:44","95025"
"A317L37U2W6R4P","cs_wg_v6_pilot2","39O5D9O87TTN8J3QHDUKGBQ448H3CS","89","1","STRUCTURE","1","ZALEY","1","632","structure",NULL,"2017-09-26 20:26:45","95026"
"A1DIW2K1J89CMO","cs_wg_v6_pilot2","32ZKVD547FO4YEBK3DYP5RKMMNH3BL","96","1","UMBRELLA","1","DROOFER","1","862","umbrella",NULL,"2017-09-26 20:26:45","95027"
"A3H9A9RWEEL8FY","cs_wg_v6_pilot2","3WETL7AQWT929YUB237C25KUCRV35K","98","1","BASKET","1","JADDEARED","1","1043","basket",NULL,"2017-09-26 20:26:49","95028"
"A3TCFIPOBRZZB3","cs_wg_v6_pilot2","3FDJT1UU74985W2IN9ZBJR1WNDH5KX","18","0","FOOTBALL","1","SCRIGGED","1","924","football",NULL,"2017-09-26 20:26:50","95029"
"A2TVJTQ4VXATE6","cs_wg_v6_pilot2","3OHYZ19UGC6O1TZEGXILYJYRZWSAOS","47","1","KEYBOARD","1","MUDLEY","1","785","keyboard",NULL,"2017-09-26 20:26:51","95030"
"A317L37U2W6R4P","cs_wg_v6_pilot2","39O5D9O87TTN8J3QHDUKGBQ448H3CS","90","1","KEYBOARD","1","MEAKEN","1","383","keyboard",NULL,"2017-09-26 20:26:52","95031"
"A3EJ44J2ZNRMDA","cs_wg_v6_pilot2","3BF51CHDTVBI8ZF9KIQ2P4PDEO20H3","59","1","WEDDING","1","WUGGED","1","2270","WEDDING",NULL,"2017-09-26 20:26:53","95032"
"A1DIW2K1J89CMO","cs_wg_v6_pilot2","32ZKVD547FO4YEBK3DYP5RKMMNH3BL","97","0","COMMUNITY","1","CHOOTH","1","1504","community",NULL,"2017-09-26 20:26:54","95033"
"A3H9A9RWEEL8FY","cs_wg_v6_pilot2","3WETL7AQWT929YUB237C25KUCRV35K","99","0","MACHINE","1","POATS","1","1992","machine",NULL,"2017-09-26 20:26:57","95034"
"A3TCFIPOBRZZB3","cs_wg_v6_pilot2","3FDJT1UU74985W2IN9ZBJR1WNDH5KX","19","1","UMBRELLA","1","BLICKET","1","1032","umbrella",NULL,"2017-09-26 20:26:59","95035"
"A2FLOH4DM8A4ZS","cs_wg_v6_pilot2","3AAPLD8UCCIJO8C0IKEC9FRIBZYTH7","28","0","BOOKSHELF","1","ZORING","1","1118","Bookshelf",NULL,"2017-09-26 20:26:59","95036"
"A317L37U2W6R4P","cs_wg_v6_pilot2","39O5D9O87TTN8J3QHDUKGBQ448H3CS","91","0","UMBRELLA","1","STEAVES","1","512","umbrella",NULL,"2017-09-26 20:27:00","95037"
"A2TVJTQ4VXATE6","cs_wg_v6_pilot2","3OHYZ19UGC6O1TZEGXILYJYRZWSAOS","48","0","LADDER","1","DUNCHED","1","3045","keyboard",NULL,"2017-09-26 20:27:01","95038"
"A1DIW2K1J89CMO","cs_wg_v6_pilot2","32ZKVD547FO4YEBK3DYP5RKMMNH3BL","98","1","BASKET","1","POATS","1","927","basket",NULL,"2017-09-26 20:27:02","95039"
"A3EJ44J2ZNRMDA","cs_wg_v6_pilot2","3BF51CHDTVBI8ZF9KIQ2P4PDEO20H3","60","1","STOMACH","1","TINGER","1","2744","STOMACH",NULL,"2017-09-26 20:27:02","95040"
"A3H9A9RWEEL8FY","cs_wg_v6_pilot2","3WETL7AQWT929YUB237C25KUCRV35K","100","0","DOORWAY","1","ZORING","1","1210","doorway",NULL,"2017-09-26 20:27:04","95041"
"A3TCFIPOBRZZB3","cs_wg_v6_pilot2","3FDJT1UU74985W2IN9ZBJR1WNDH5KX","20","1","LADDER","1","BLICKET","1","589","ladder",NULL,"2017-09-26 20:27:05","95042"
"A2FLOH4DM8A4ZS","cs_wg_v6_pilot2","3AAPLD8UCCIJO8C0IKEC9FRIBZYTH7","29","0","TRAFFIC","1","MURRADS","1","2380","Traffic",NULL,"2017-09-26 20:27:08","95043"
"A2TVJTQ4VXATE6","cs_wg_v6_pilot2","3OHYZ19UGC6O1TZEGXILYJYRZWSAOS","49","1","STOMACH","1","DUNCHED","1","679","stomach",NULL,"2017-09-26 20:27:08","95044"
"A3H9A9RWEEL8FY","cs_wg_v6_pilot2","3WETL7AQWT929YUB237C25KUCRV35K","101","0","WEDDING","1","CHEEDLE","1","1306","wedding",NULL,"2017-09-26 20:27:11","95045"
"A1DIW2K1J89CMO","cs_wg_v6_pilot2","32ZKVD547FO4YEBK3DYP5RKMMNH3BL","99","1","DOORWAY","1","DUNCHED","1","1181","doorway",NULL,"2017-09-26 20:27:11","95046"
"A3EJ44J2ZNRMDA","cs_wg_v6_pilot2","3BF51CHDTVBI8ZF9KIQ2P4PDEO20H3","61","0","FOOTBALL","1","MEAKEN","1","2630","FOOTBALL",NULL,"2017-09-26 20:27:11","95047"
"A3TCFIPOBRZZB3","cs_wg_v6_pilot2","3FDJT1UU74985W2IN9ZBJR1WNDH5KX","21","1","STOMACH","1","MURRADS","1","981","stomach",NULL,"2017-09-26 20:27:12","95048"
"A317L37U2W6R4P","cs_wg_v6_pilot2","39O5D9O87TTN8J3QHDUKGBQ448H3CS","92","0","KEYBOARD","1","FIPPING","1","2904","keyboard",NULL,"2017-09-26 20:27:12","95049"
"A2TVJTQ4VXATE6","cs_wg_v6_pilot2","3OHYZ19UGC6O1TZEGXILYJYRZWSAOS","50","1","BASKET","1","NARDLY","1","884","basket",NULL,"2017-09-26 20:27:15","95050"
"A2FLOH4DM8A4ZS","cs_wg_v6_pilot2","3AAPLD8UCCIJO8C0IKEC9FRIBZYTH7","30","0","MACHINE","1","PLIBBERED","1","1585","Machine",NULL,"2017-09-26 20:27:17","95051"
"A317L37U2W6R4P","cs_wg_v6_pilot2","39O5D9O87TTN8J3QHDUKGBQ448H3CS","93","0","WEDDING","1","ZALEY","1","598","wedding",NULL,"2017-09-26 20:27:18","95052"
"A1DIW2K1J89CMO","cs_wg_v6_pilot2","32ZKVD547FO4YEBK3DYP5RKMMNH3BL","100","0","STOMACH","1","MICKERED","1","1116","stomach",NULL,"2017-09-26 20:27:19","95053"
"A3H9A9RWEEL8FY","cs_wg_v6_pilot2","3WETL7AQWT929YUB237C25KUCRV35K","102","1","LADDER","1","GLUNDLE","1","1164","ladder",NULL,"2017-09-26 20:27:19","95054"
"A3TCFIPOBRZZB3","cs_wg_v6_pilot2","3FDJT1UU74985W2IN9ZBJR1WNDH5KX","22","0","UMBRELLA","1","FROPED","1","832","umbrella",NULL,"2017-09-26 20:27:19","95055"
"A3EJ44J2ZNRMDA","cs_wg_v6_pilot2","3BF51CHDTVBI8ZF9KIQ2P4PDEO20H3","62","0","DOORWAY","1","WUGGED","1","2479","DOORWAY",NULL,"2017-09-26 20:27:20","95056"
"A2TVJTQ4VXATE6","cs_wg_v6_pilot2","3OHYZ19UGC6O1TZEGXILYJYRZWSAOS","51","1","TRAFFIC","1","CHOOTH","1","694","traffic",NULL,"2017-09-26 20:27:21","95057"
"A2FLOH4DM8A4ZS","cs_wg_v6_pilot2","3AAPLD8UCCIJO8C0IKEC9FRIBZYTH7","31","0","HELICOPTER","1","VATED","1","1151","Helicopter",NULL,"2017-09-26 20:27:25","95058"
"A3H9A9RWEEL8FY","cs_wg_v6_pilot2","3WETL7AQWT929YUB237C25KUCRV35K","103","0","MACHINE","1","BLICKET","1","915","machine",NULL,"2017-09-26 20:27:25","95059"
"A317L37U2W6R4P","cs_wg_v6_pilot2","39O5D9O87TTN8J3QHDUKGBQ448H3CS","94","1","STOMACH","1","CHAXED","1","768","stomach",NULL,"2017-09-26 20:27:26","95060"
"A3TCFIPOBRZZB3","cs_wg_v6_pilot2","3FDJT1UU74985W2IN9ZBJR1WNDH5KX","23","1","FOOTBALL","1","MEAKEN","1","631","football",NULL,"2017-09-26 20:27:26","95061"
"A2TVJTQ4VXATE6","cs_wg_v6_pilot2","3OHYZ19UGC6O1TZEGXILYJYRZWSAOS","52","0","KEYBOARD","1","BLICKET","1","1128","keyboard",NULL,"2017-09-26 20:27:27","95062"
"A3EJ44J2ZNRMDA","cs_wg_v6_pilot2","3BF51CHDTVBI8ZF9KIQ2P4PDEO20H3","63","0","KEYBOARD","1","CHEEDLE","1","2648","KEYBOARD",NULL,"2017-09-26 20:27:29","95063"
"A3H9A9RWEEL8FY","cs_wg_v6_pilot2","3WETL7AQWT929YUB237C25KUCRV35K","104","0","LADDER","1","ZALEY","1","899","ladder",NULL,"2017-09-26 20:27:32","95064"
"A2FLOH4DM8A4ZS","cs_wg_v6_pilot2","3AAPLD8UCCIJO8C0IKEC9FRIBZYTH7","32","0","HELICOPTER","1","THOCKY","1","1288","Helicopter",NULL,"2017-09-26 20:27:33","95065"
"A317L37U2W6R4P","cs_wg_v6_pilot2","39O5D9O87TTN8J3QHDUKGBQ448H3CS","95","1","STRUCTURE","1","ROAKING","1","727","structure",NULL,"2017-09-26 20:27:33","95066"
"A1DIW2K1J89CMO","cs_wg_v6_pilot2","32ZKVD547FO4YEBK3DYP5RKMMNH3BL","101","0","HELICOPTER","1","WUGGED","1","5725","helicopter",NULL,"2017-09-26 20:27:33","95067"
"A2TVJTQ4VXATE6","cs_wg_v6_pilot2","3OHYZ19UGC6O1TZEGXILYJYRZWSAOS","53","0","UMBRELLA","1","SNAVE","1","2091","UMBRELLA",NULL,"2017-09-26 20:27:34","95068"
"A3TCFIPOBRZZB3","cs_wg_v6_pilot2","3FDJT1UU74985W2IN9ZBJR1WNDH5KX","24","1","BASKET","1","WUGGED","1","1106","basket",NULL,"2017-09-26 20:27:34","95069"
"ATGUAXNWCW8NI","cs_wg_v6_pilot2","3KJYX6QCM9CUS6BFBFHCMAVILCIVJU","51","1","MACHINE","1","CLEEPERS","1","348015","MACHINE",NULL,"2017-09-26 20:27:36","95070"
"A3H9A9RWEEL8FY","cs_wg_v6_pilot2","3WETL7AQWT929YUB237C25KUCRV35K","105","1","KEYBOARD","1","DUNCHED","1","646","keyboard",NULL,"2017-09-26 20:27:38","95071"
"A3EJ44J2ZNRMDA","cs_wg_v6_pilot2","3BF51CHDTVBI8ZF9KIQ2P4PDEO20H3","64","1","DOORWAY","1","ZALEY","1","3410","DOORWAY",NULL,"2017-09-26 20:27:39","95072"
"A317L37U2W6R4P","cs_wg_v6_pilot2","39O5D9O87TTN8J3QHDUKGBQ448H3CS","96","1","WEDDING","1","FROPED","1","597","wedding",NULL,"2017-09-26 20:27:39","95073"
"A2TVJTQ4VXATE6","cs_wg_v6_pilot2","3OHYZ19UGC6O1TZEGXILYJYRZWSAOS","54","0","KEYBOARD","1","MUDLEY","1","1248","KEYBOARD",NULL,"2017-09-26 20:27:40","95074"
"ATGUAXNWCW8NI","cs_wg_v6_pilot2","3KJYX6QCM9CUS6BFBFHCMAVILCIVJU","52","1","TRAFFIC","1","SCREEP","1","2613","TRAFFIC",NULL,"2017-09-26 20:27:43","95075"
"A1DIW2K1J89CMO","cs_wg_v6_pilot2","32ZKVD547FO4YEBK3DYP5RKMMNH3BL","102","1","STRUCTURE","1","HOTCHACK","1","2133","structure",NULL,"2017-09-26 20:27:44","95076"
"A3TCFIPOBRZZB3","cs_wg_v6_pilot2","3FDJT1UU74985W2IN9ZBJR1WNDH5KX","25","0","COMMUNITY","1","MEAKEN","0","651","community",NULL,"2017-09-26 20:27:44","95077"
"A3H9A9RWEEL8FY","cs_wg_v6_pilot2","3WETL7AQWT929YUB237C25KUCRV35K","106","0","TRAFFIC","1","CHEEDLE","1","1076","traffic",NULL,"2017-09-26 20:27:44","95078"
"A2TVJTQ4VXATE6","cs_wg_v6_pilot2","3OHYZ19UGC6O1TZEGXILYJYRZWSAOS","55","1","WEDDING","1","DUNCHED","1","1333","WEDDING",NULL,"2017-09-26 20:27:45","95079"
"A317L37U2W6R4P","cs_wg_v6_pilot2","39O5D9O87TTN8J3QHDUKGBQ448H3CS","97","1","LADDER","1","GLUNDLE","1","2382","ladder",NULL,"2017-09-26 20:27:47","95080"
"A3EJ44J2ZNRMDA","cs_wg_v6_pilot2","3BF51CHDTVBI8ZF9KIQ2P4PDEO20H3","65","1","STRUCTURE","1","THOCKY","1","2341","STRUCTURE",NULL,"2017-09-26 20:27:47","95081"
"ATGUAXNWCW8NI","cs_wg_v6_pilot2","3KJYX6QCM9CUS6BFBFHCMAVILCIVJU","53","0","BASKET","1","SNAVE","1","1942","BASKET",NULL,"2017-09-26 20:27:50","95082"
"A3TCFIPOBRZZB3","cs_wg_v6_pilot2","3FDJT1UU74985W2IN9ZBJR1WNDH5KX","26","1","MACHINE","1","MICKERED","1","1215","machine",NULL,"2017-09-26 20:27:50","95083"
"A2TVJTQ4VXATE6","cs_wg_v6_pilot2","3OHYZ19UGC6O1TZEGXILYJYRZWSAOS","56","0","KEYBOARD","1","FROPED","1","1305","KEYBOARD",NULL,"2017-09-26 20:27:51","95084"
"A1DIW2K1J89CMO","cs_wg_v6_pilot2","32ZKVD547FO4YEBK3DYP5RKMMNH3BL","103","0","STOMACH","1","CHOOTH","1","1023","stomach",NULL,"2017-09-26 20:27:52","95085"
"A3H9A9RWEEL8FY","cs_wg_v6_pilot2","3WETL7AQWT929YUB237C25KUCRV35K","107","0","LADDER","1","WOOKED","1","1051","ladder",NULL,"2017-09-26 20:27:52","95086"
"A317L37U2W6R4P","cs_wg_v6_pilot2","39O5D9O87TTN8J3QHDUKGBQ448H3CS","98","0","COMMUNITY","1","SURSED","1","639","community",NULL,"2017-09-26 20:27:54","95087"
"A3EJ44J2ZNRMDA","cs_wg_v6_pilot2","3BF51CHDTVBI8ZF9KIQ2P4PDEO20H3","66","0","COMMUNITY","1","DROOFER","1","3303","COMMUNITY",NULL,"2017-09-26 20:27:56","95088"
"A2TVJTQ4VXATE6","cs_wg_v6_pilot2","3OHYZ19UGC6O1TZEGXILYJYRZWSAOS","57","1","TRAFFIC","1","HOTCHACK","1","1457","TRAFFIC",NULL,"2017-09-26 20:27:57","95089"
"ATGUAXNWCW8NI","cs_wg_v6_pilot2","3KJYX6QCM9CUS6BFBFHCMAVILCIVJU","54","1","BASKET","1","POATS","1","1890","BASKET",NULL,"2017-09-26 20:27:57","95090"
"A3TCFIPOBRZZB3","cs_wg_v6_pilot2","3FDJT1UU74985W2IN9ZBJR1WNDH5KX","27","0","STOMACH","1","CHEEDLE","1","1812","stomach",NULL,"2017-09-26 20:27:57","95091"
"A3H9A9RWEEL8FY","cs_wg_v6_pilot2","3WETL7AQWT929YUB237C25KUCRV35K","108","0","WEDDING","1","SCREEP","1","941","wedding",NULL,"2017-09-26 20:27:58","95092"
"A1DIW2K1J89CMO","cs_wg_v6_pilot2","32ZKVD547FO4YEBK3DYP5RKMMNH3BL","104","0","UMBRELLA","1","SCREEP","1","1699","umbrella",NULL,"2017-09-26 20:28:01","95093"
"A317L37U2W6R4P","cs_wg_v6_pilot2","39O5D9O87TTN8J3QHDUKGBQ448H3CS","99","0","BOOKSHELF","1","WUGGED","1","615","bookshelf",NULL,"2017-09-26 20:28:01","95094"
"ATGUAXNWCW8NI","cs_wg_v6_pilot2","3KJYX6QCM9CUS6BFBFHCMAVILCIVJU","55","1","KEYBOARD","1","WUGGED","1","1116","KEYBOARD",NULL,"2017-09-26 20:28:03","95095"
"A2TVJTQ4VXATE6","cs_wg_v6_pilot2","3OHYZ19UGC6O1TZEGXILYJYRZWSAOS","58","0","KEYBOARD","1","THOCKY","1","1703","KEYBOARD",NULL,"2017-09-26 20:28:04","95096"
"A3TCFIPOBRZZB3","cs_wg_v6_pilot2","3FDJT1UU74985W2IN9ZBJR1WNDH5KX","28","1","LADDER","1","HOTCHACK","1","663","ladder",NULL,"2017-09-26 20:28:05","95097"
"A3H9A9RWEEL8FY","cs_wg_v6_pilot2","3WETL7AQWT929YUB237C25KUCRV35K","109","1","DOORWAY","1","CHOOTH","1","850","doorway",NULL,"2017-09-26 20:28:05","95098"
"A2FLOH4DM8A4ZS","cs_wg_v6_pilot2","3AAPLD8UCCIJO8C0IKEC9FRIBZYTH7","33","0","HELICOPTER","1","JADDEARED","1","1170","Helicopter",NULL,"2017-09-26 20:28:07","95099"
"A317L37U2W6R4P","cs_wg_v6_pilot2","39O5D9O87TTN8J3QHDUKGBQ448H3CS","100","0","BOOKSHELF","1","FROPED","1","784","bookshelf",NULL,"2017-09-26 20:28:08","95100"
"A1DIW2K1J89CMO","cs_wg_v6_pilot2","32ZKVD547FO4YEBK3DYP5RKMMNH3BL","105","0","HELICOPTER","1","VATED","1","1150","helicopter",NULL,"2017-09-26 20:28:09","95101"
"A2TVJTQ4VXATE6","cs_wg_v6_pilot2","3OHYZ19UGC6O1TZEGXILYJYRZWSAOS","59","1","WEDDING","1","BLICKET","1","1041","WEDDING",NULL,"2017-09-26 20:28:09","95102"
"A3EJ44J2ZNRMDA","cs_wg_v6_pilot2","3BF51CHDTVBI8ZF9KIQ2P4PDEO20H3","67","0","FOOTBALL","1","CHAXED","1","8691","FOOTBALL",NULL,"2017-09-26 20:28:11","95103"
"A3H9A9RWEEL8FY","cs_wg_v6_pilot2","3WETL7AQWT929YUB237C25KUCRV35K","110","1","UMBRELLA","1","CHAXED","1","1076","umbrella",NULL,"2017-09-26 20:28:12","95104"
"A3TCFIPOBRZZB3","cs_wg_v6_pilot2","3FDJT1UU74985W2IN9ZBJR1WNDH5KX","29","0","TRAFFIC","1","VATED","1","1186","traffic",NULL,"2017-09-26 20:28:12","95105"
"ATGUAXNWCW8NI","cs_wg_v6_pilot2","3KJYX6QCM9CUS6BFBFHCMAVILCIVJU","56","0","UMBRELLA","1","HOTCHACK","1","6905","UMBRELLA",NULL,"2017-09-26 20:28:15","95106"
"A317L37U2W6R4P","cs_wg_v6_pilot2","39O5D9O87TTN8J3QHDUKGBQ448H3CS","101","1","DOORWAY","1","ZORING","1","454","doorway",NULL,"2017-09-26 20:28:15","95107"
"A2TVJTQ4VXATE6","cs_wg_v6_pilot2","3OHYZ19UGC6O1TZEGXILYJYRZWSAOS","60","0","COMMUNITY","1","FIPPING","1","2070","COMMUNITY",NULL,"2017-09-26 20:28:15","95108"
"A1DIW2K1J89CMO","cs_wg_v6_pilot2","32ZKVD547FO4YEBK3DYP5RKMMNH3BL","106","1","HELICOPTER","1","SNAVE","1","1075","helicopter",NULL,"2017-09-26 20:28:18","95109"
"A3H9A9RWEEL8FY","cs_wg_v6_pilot2","3WETL7AQWT929YUB237C25KUCRV35K","111","0","STOMACH","1","ZALEY","1","1061","stomach",NULL,"2017-09-26 20:28:18","95110"
"A3EJ44J2ZNRMDA","cs_wg_v6_pilot2","3BF51CHDTVBI8ZF9KIQ2P4PDEO20H3","68","0","FOOTBALL","1","FROPED","1","1015","FOOTBALL",NULL,"2017-09-26 20:28:19","95111"
"A2FLOH4DM8A4ZS","cs_wg_v6_pilot2","3AAPLD8UCCIJO8C0IKEC9FRIBZYTH7","34","0","BASKET","1","CHAXED","1","1332","Basket",NULL,"2017-09-26 20:28:21","95112"
"A3TCFIPOBRZZB3","cs_wg_v6_pilot2","3FDJT1UU74985W2IN9ZBJR1WNDH5KX","30","0","TRAFFIC","1","STEAVES","1","1855","traffic",NULL,"2017-09-26 20:28:21","95113"
"A317L37U2W6R4P","cs_wg_v6_pilot2","39O5D9O87TTN8J3QHDUKGBQ448H3CS","102","0","HELICOPTER","1","ROAKING","1","552","helicopter",NULL,"2017-09-26 20:28:22","95114"
"ATGUAXNWCW8NI","cs_wg_v6_pilot2","3KJYX6QCM9CUS6BFBFHCMAVILCIVJU","57","0","FOOTBALL","1","WUGGED","1","3511","FOOTBALL",NULL,"2017-09-26 20:28:24","95115"
"A2TVJTQ4VXATE6","cs_wg_v6_pilot2","3OHYZ19UGC6O1TZEGXILYJYRZWSAOS","61","0","BASKET","1","FLEMMERING","1","4345","BASKET",NULL,"2017-09-26 20:28:24","95116"
"A1DIW2K1J89CMO","cs_wg_v6_pilot2","32ZKVD547FO4YEBK3DYP5RKMMNH3BL","107","1","STOMACH","1","JADDEARED","1","1570","stomach",NULL,"2017-09-26 20:28:27","95117"
"A3EJ44J2ZNRMDA","cs_wg_v6_pilot2","3BF51CHDTVBI8ZF9KIQ2P4PDEO20H3","69","0","COMMUNITY","1","GLUNDLE","1","1953","COMMUNITY",NULL,"2017-09-26 20:28:27","95118"
"A317L37U2W6R4P","cs_wg_v6_pilot2","39O5D9O87TTN8J3QHDUKGBQ448H3CS","103","0","BASKET","1","CLEEPERS","1","600","basket",NULL,"2017-09-26 20:28:28","95119"
"A2FLOH4DM8A4ZS","cs_wg_v6_pilot2","3AAPLD8UCCIJO8C0IKEC9FRIBZYTH7","35","0","UMBRELLA","1","CHEEDLE","1","1377","Umbrella",NULL,"2017-09-26 20:28:28","95120"
"A2TVJTQ4VXATE6","cs_wg_v6_pilot2","3OHYZ19UGC6O1TZEGXILYJYRZWSAOS","62","0","MACHINE","1","CHOOTH","1","1342","MACHINE",NULL,"2017-09-26 20:28:30","95121"
"A3TCFIPOBRZZB3","cs_wg_v6_pilot2","3FDJT1UU74985W2IN9ZBJR1WNDH5KX","31","0","STRUCTURE","1","STEAVES","1","1258","structure",NULL,"2017-09-26 20:28:31","95122"
"ATGUAXNWCW8NI","cs_wg_v6_pilot2","3KJYX6QCM9CUS6BFBFHCMAVILCIVJU","58","0","STRUCTURE","1","MURRADS","1","2687","STRUCTURE",NULL,"2017-09-26 20:28:32","95123"
