"subject","version","assignmentId","trial","trial_type","word","value","alt","value2","choice","rt","resp","resp2","resp3","resp4","used_hint","stamp","id"
"AABZIG36VNJZK","cs_wg_rev_conf_v3_real1","3YMTUJH0DSHPCWO53DUTFQIGOQS4TQ","0","0","SKUNK","8","BICYCLE","7","0","8819",,,,,"1","2018-10-22 13:58:53","286948"
"AABZIG36VNJZK","cs_wg_rev_conf_v3_real1","3YMTUJH0DSHPCWO53DUTFQIGOQS4TQ","1","0","BICYCLE","7","COOKIE","3","1","1991",,,,,"0","2018-10-22 13:58:58","286949"
"AABZIG36VNJZK","cs_wg_rev_conf_v3_real1","3YMTUJH0DSHPCWO53DUTFQIGOQS4TQ","2","0","BAKER","13","COOKIE","3","0","782",,,,,"0","2018-10-22 13:59:00","286950"
"AABZIG36VNJZK","cs_wg_rev_conf_v3_real1","3YMTUJH0DSHPCWO53DUTFQIGOQS4TQ","3","0","SKUNK","8","BAKER","13","1","916",,,,,"0","2018-10-22 13:59:03","286951"
"AABZIG36VNJZK","cs_wg_rev_conf_v3_real1","3YMTUJH0DSHPCWO53DUTFQIGOQS4TQ","4","0","SKUNK","8","BICYCLE","7","0","786",,,,,"0","2018-10-22 13:59:05","286952"
"AABZIG36VNJZK","cs_wg_rev_conf_v3_real1","3YMTUJH0DSHPCWO53DUTFQIGOQS4TQ","5","0","COOKIE","3","SKUNK","8","1","711",,,,,"0","2018-10-22 13:59:08","286953"
"AABZIG36VNJZK","cs_wg_rev_conf_v3_real1","3YMTUJH0DSHPCWO53DUTFQIGOQS4TQ","6","0","BICYCLE","7","COOKIE","3","0","487",,,,,"0","2018-10-22 13:59:10","286954"
"AABZIG36VNJZK","cs_wg_rev_conf_v3_real1","3YMTUJH0DSHPCWO53DUTFQIGOQS4TQ","7","0","COOKIE","3","BAKER","13","0","562",,,,,"0","2018-10-22 13:59:12","286955"
"AABZIG36VNJZK","cs_wg_rev_conf_v3_real1","3YMTUJH0DSHPCWO53DUTFQIGOQS4TQ","8","0","BAKER","13","SKUNK","8","0","642",,,,,"0","2018-10-22 13:59:15","286956"
"AABZIG36VNJZK","cs_wg_rev_conf_v3_real1","3YMTUJH0DSHPCWO53DUTFQIGOQS4TQ","9","0","COOKIE","3","BICYCLE","7","0","652",,,,,"0","2018-10-22 13:59:17","286957"
"AABZIG36VNJZK","cs_wg_rev_conf_v3_real1","3YMTUJH0DSHPCWO53DUTFQIGOQS4TQ","10","0","BAKER","13","SKUNK","8","1","586",,,,,"0","2018-10-22 13:59:19","286958"
"AABZIG36VNJZK","cs_wg_rev_conf_v3_real1","3YMTUJH0DSHPCWO53DUTFQIGOQS4TQ","11","0","SKUNK","8","COOKIE","3","0","625",,,,,"0","2018-10-22 13:59:21","286959"
"AABZIG36VNJZK","cs_wg_rev_conf_v3_real1","3YMTUJH0DSHPCWO53DUTFQIGOQS4TQ","12","0","COOKIE","3","BICYCLE","7","0","1376",,,,,"0","2018-10-22 13:59:24","286960"
"AABZIG36VNJZK","cs_wg_rev_conf_v3_real1","3YMTUJH0DSHPCWO53DUTFQIGOQS4TQ","13","0","BICYCLE","7","COOKIE","3","1","965",,,,,"0","2018-10-22 13:59:26","286961"
"AABZIG36VNJZK","cs_wg_rev_conf_v3_real1","3YMTUJH0DSHPCWO53DUTFQIGOQS4TQ","14","0","SKUNK","8","COOKIE","3","1","954",,,,,"0","2018-10-22 13:59:29","286962"
"AABZIG36VNJZK","cs_wg_rev_conf_v3_real1","3YMTUJH0DSHPCWO53DUTFQIGOQS4TQ","15","0","BAKER","13","SKUNK","8","0","664",,,,,"0","2018-10-22 13:59:31","286963"
"AABZIG36VNJZK","cs_wg_rev_conf_v3_real1","3YMTUJH0DSHPCWO53DUTFQIGOQS4TQ","16","0","COOKIE","3","SKUNK","8","1","551",,,,,"0","2018-10-22 13:59:33","286964"
"AABZIG36VNJZK","cs_wg_rev_conf_v3_real1","3YMTUJH0DSHPCWO53DUTFQIGOQS4TQ","17","0","SKUNK","8","BAKER","13","0","504",,,,,"0","2018-10-22 13:59:35","286965"
"AABZIG36VNJZK","cs_wg_rev_conf_v3_real1","3YMTUJH0DSHPCWO53DUTFQIGOQS4TQ","18","0","BAKER","13","COOKIE","3","0","555",,,,,"0","2018-10-22 13:59:37","286966"
"AABZIG36VNJZK","cs_wg_rev_conf_v3_real1","3YMTUJH0DSHPCWO53DUTFQIGOQS4TQ","19","0","SKUNK","8","BAKER","13","1","639",,,,,"0","2018-10-22 13:59:39","286967"
"AABZIG36VNJZK","cs_wg_rev_conf_v3_real1","3YMTUJH0DSHPCWO53DUTFQIGOQS4TQ","20","0","BAKER","13","COOKIE","3","0","436",,,,,"0","2018-10-22 13:59:41","286968"
"AABZIG36VNJZK","cs_wg_rev_conf_v3_real1","3YMTUJH0DSHPCWO53DUTFQIGOQS4TQ","21","0","COOKIE","3","SKUNK","8","1","472",,,,,"0","2018-10-22 13:59:43","286969"
"AABZIG36VNJZK","cs_wg_rev_conf_v3_real1","3YMTUJH0DSHPCWO53DUTFQIGOQS4TQ","22","0","BICYCLE","7","BAKER","13","1","540",,,,,"0","2018-10-22 13:59:45","286970"
"AABZIG36VNJZK","cs_wg_rev_conf_v3_real1","3YMTUJH0DSHPCWO53DUTFQIGOQS4TQ","23","0","BICYCLE","7","SKUNK","8","1","763",,,,,"0","2018-10-22 13:59:47","286971"
"AABZIG36VNJZK","cs_wg_rev_conf_v3_real1","3YMTUJH0DSHPCWO53DUTFQIGOQS4TQ","24","0","BAKER","13","BICYCLE","7","0","409",,,,,"0","2018-10-22 13:59:49","286972"
"AABZIG36VNJZK","cs_wg_rev_conf_v3_real1","3YMTUJH0DSHPCWO53DUTFQIGOQS4TQ","25","0","COOKIE","3","BAKER","13","1","1340",,,,,"0","2018-10-22 13:59:52","286973"
"AABZIG36VNJZK","cs_wg_rev_conf_v3_real1","3YMTUJH0DSHPCWO53DUTFQIGOQS4TQ","26","0","SKUNK","8","COOKIE","3","1","828",,,,,"0","2018-10-22 13:59:54","286974"
"AABZIG36VNJZK","cs_wg_rev_conf_v3_real1","3YMTUJH0DSHPCWO53DUTFQIGOQS4TQ","27","0","BICYCLE","7","BAKER","13","0","558",,,,,"0","2018-10-22 13:59:56","286975"
"AABZIG36VNJZK","cs_wg_rev_conf_v3_real1","3YMTUJH0DSHPCWO53DUTFQIGOQS4TQ","28","0","BICYCLE","7","BAKER","13","1","646",,,,,"0","2018-10-22 13:59:58","286976"
"AABZIG36VNJZK","cs_wg_rev_conf_v3_real1","3YMTUJH0DSHPCWO53DUTFQIGOQS4TQ","29","0","BICYCLE","7","SKUNK","8","1","963",,,,,"0","2018-10-22 14:00:01","286977"
"AABZIG36VNJZK","cs_wg_rev_conf_v3_real1","3YMTUJH0DSHPCWO53DUTFQIGOQS4TQ","30","0","COOKIE","3","BAKER","13","1","493",,,,,"0","2018-10-22 14:00:03","286978"
"AABZIG36VNJZK","cs_wg_rev_conf_v3_real1","3YMTUJH0DSHPCWO53DUTFQIGOQS4TQ","31","0","BAKER","13","BICYCLE","7","0","396",,,,,"0","2018-10-22 14:00:04","286979"
"AABZIG36VNJZK","cs_wg_rev_conf_v3_real1","3YMTUJH0DSHPCWO53DUTFQIGOQS4TQ","32","0","COOKIE","3","BICYCLE","7","1","874",,,,,"0","2018-10-22 14:00:07","286980"
"AABZIG36VNJZK","cs_wg_rev_conf_v3_real1","3YMTUJH0DSHPCWO53DUTFQIGOQS4TQ","33","0","BAKER","13","BICYCLE","7","0","435",,,,,"0","2018-10-22 14:00:09","286981"
"AABZIG36VNJZK","cs_wg_rev_conf_v3_real1","3YMTUJH0DSHPCWO53DUTFQIGOQS4TQ","34","0","SKUNK","8","BICYCLE","7","1","622",,,,,"0","2018-10-22 14:00:11","286982"
"AABZIG36VNJZK","cs_wg_rev_conf_v3_real1","3YMTUJH0DSHPCWO53DUTFQIGOQS4TQ","35","0","BICYCLE","7","SKUNK","8","1","744",,,,,"0","2018-10-22 14:00:13","286983"
"A1HI3OYEBN9UZJ","cs_wg_rev_conf_v3_real1","3PW9OPU9PQLE0YX9XGRVG52NCT512I","0","0","MARKET","3","SKUNK","8","1","8093",,,,,"0","2018-10-22 14:01:08","286984"
"A1HI3OYEBN9UZJ","cs_wg_rev_conf_v3_real1","3PW9OPU9PQLE0YX9XGRVG52NCT512I","1","0","CHICKEN","13","MARKET","3","0","2549",,,,,"0","2018-10-22 14:01:18","286985"
"A1HI3OYEBN9UZJ","cs_wg_rev_conf_v3_real1","3PW9OPU9PQLE0YX9XGRVG52NCT512I","2","0","SKUNK","8","BICYCLE","7","0","2426",,,,,"0","2018-10-22 14:01:27","286986"
"A1HI3OYEBN9UZJ","cs_wg_rev_conf_v3_real1","3PW9OPU9PQLE0YX9XGRVG52NCT512I","3","0","MARKET","3","BICYCLE","7","0","2384",,,,,"0","2018-10-22 14:01:31","286987"
"A1HI3OYEBN9UZJ","cs_wg_rev_conf_v3_real1","3PW9OPU9PQLE0YX9XGRVG52NCT512I","4","0","BICYCLE","7","MARKET","3","1","1618",,,,,"0","2018-10-22 14:01:37","286988"
"A1HI3OYEBN9UZJ","cs_wg_rev_conf_v3_real1","3PW9OPU9PQLE0YX9XGRVG52NCT512I","5","0","CHICKEN","13","BICYCLE","7","1","1011",,,,,"0","2018-10-22 14:01:41","286989"
"A1HI3OYEBN9UZJ","cs_wg_rev_conf_v3_real1","3PW9OPU9PQLE0YX9XGRVG52NCT512I","6","0","MARKET","3","BICYCLE","7","1","947",,,,,"0","2018-10-22 14:01:44","286990"
"A1HI3OYEBN9UZJ","cs_wg_rev_conf_v3_real1","3PW9OPU9PQLE0YX9XGRVG52NCT512I","7","0","CHICKEN","13","MARKET","3","0","997",,,,,"0","2018-10-22 14:01:47","286991"
"A1HI3OYEBN9UZJ","cs_wg_rev_conf_v3_real1","3PW9OPU9PQLE0YX9XGRVG52NCT512I","8","0","SKUNK","8","CHICKEN","13","1","2336",,,,,"0","2018-10-22 14:01:51","286992"
"A1HI3OYEBN9UZJ","cs_wg_rev_conf_v3_real1","3PW9OPU9PQLE0YX9XGRVG52NCT512I","9","0","MARKET","3","SKUNK","8","0","1954",,,,,"0","2018-10-22 14:01:55","286993"
"A1HI3OYEBN9UZJ","cs_wg_rev_conf_v3_real1","3PW9OPU9PQLE0YX9XGRVG52NCT512I","10","0","SKUNK","8","MARKET","3","0","1207",,,,,"0","2018-10-22 14:01:58","286994"
"A1HI3OYEBN9UZJ","cs_wg_rev_conf_v3_real1","3PW9OPU9PQLE0YX9XGRVG52NCT512I","11","0","MARKET","3","CHICKEN","13","1","1080",,,,,"0","2018-10-22 14:02:01","286995"
"A1HI3OYEBN9UZJ","cs_wg_rev_conf_v3_real1","3PW9OPU9PQLE0YX9XGRVG52NCT512I","12","0","MARKET","3","BICYCLE","7","1","1701",,,,,"0","2018-10-22 14:02:05","286996"
"A1HI3OYEBN9UZJ","cs_wg_rev_conf_v3_real1","3PW9OPU9PQLE0YX9XGRVG52NCT512I","13","0","CHICKEN","13","SKUNK","8","0","1226",,,,,"0","2018-10-22 14:02:08","286997"
"A1HI3OYEBN9UZJ","cs_wg_rev_conf_v3_real1","3PW9OPU9PQLE0YX9XGRVG52NCT512I","14","0","SKUNK","8","MARKET","3","0","1138",,,,,"0","2018-10-22 14:02:11","286998"
"A1HI3OYEBN9UZJ","cs_wg_rev_conf_v3_real1","3PW9OPU9PQLE0YX9XGRVG52NCT512I","15","0","SKUNK","8","MARKET","3","0","1352",,,,,"0","2018-10-22 14:02:14","286999"
"A1HI3OYEBN9UZJ","cs_wg_rev_conf_v3_real1","3PW9OPU9PQLE0YX9XGRVG52NCT512I","16","0","CHICKEN","13","BICYCLE","7","0","1440",,,,,"0","2018-10-22 14:02:17","287000"
"A1HI3OYEBN9UZJ","cs_wg_rev_conf_v3_real1","3PW9OPU9PQLE0YX9XGRVG52NCT512I","17","0","SKUNK","8","BICYCLE","7","1","2469",,,,,"0","2018-10-22 14:02:21","287001"
"A1HI3OYEBN9UZJ","cs_wg_rev_conf_v3_real1","3PW9OPU9PQLE0YX9XGRVG52NCT512I","18","0","BICYCLE","7","CHICKEN","13","1","1042",,,,,"0","2018-10-22 14:02:24","287002"
"A1HI3OYEBN9UZJ","cs_wg_rev_conf_v3_real1","3PW9OPU9PQLE0YX9XGRVG52NCT512I","19","0","CHICKEN","13","BICYCLE","7","0","1072",,,,,"0","2018-10-22 14:02:27","287003"
"A1HI3OYEBN9UZJ","cs_wg_rev_conf_v3_real1","3PW9OPU9PQLE0YX9XGRVG52NCT512I","20","0","CHICKEN","13","SKUNK","8","0","2080",,,,,"0","2018-10-22 14:02:31","287004"
"A1HI3OYEBN9UZJ","cs_wg_rev_conf_v3_real1","3PW9OPU9PQLE0YX9XGRVG52NCT512I","21","0","BICYCLE","7","MARKET","3","0","2239",,,,,"0","2018-10-22 14:02:35","287005"
"A1HI3OYEBN9UZJ","cs_wg_rev_conf_v3_real1","3PW9OPU9PQLE0YX9XGRVG52NCT512I","22","0","CHICKEN","13","MARKET","3","0","805",,,,,"0","2018-10-22 14:02:37","287006"
"A1HI3OYEBN9UZJ","cs_wg_rev_conf_v3_real1","3PW9OPU9PQLE0YX9XGRVG52NCT512I","23","0","BICYCLE","7","MARKET","3","0","2611",,,,,"0","2018-10-22 14:02:41","287007"
"A4WP2DU4JVUH0","cs_wg_rev_conf_v3_real1","3FIJLY1B6U51IKSN6DHS1KEAODGPFU","0","0","SUNBURN","8","VOLCANO","7","0","5917",,,,,"0","2018-10-22 14:02:43","287008"
"A1HI3OYEBN9UZJ","cs_wg_rev_conf_v3_real1","3PW9OPU9PQLE0YX9XGRVG52NCT512I","24","0","MARKET","3","CHICKEN","13","1","1093",,,,,"0","2018-10-22 14:02:44","287009"
"A1HI3OYEBN9UZJ","cs_wg_rev_conf_v3_real1","3PW9OPU9PQLE0YX9XGRVG52NCT512I","25","0","BICYCLE","7","SKUNK","8","1","2459",,,,,"0","2018-10-22 14:02:48","287010"
"A1HI3OYEBN9UZJ","cs_wg_rev_conf_v3_real1","3PW9OPU9PQLE0YX9XGRVG52NCT512I","26","0","BICYCLE","7","SKUNK","8","0","2653",,,,,"0","2018-10-22 14:02:53","287011"
"A4WP2DU4JVUH0","cs_wg_rev_conf_v3_real1","3FIJLY1B6U51IKSN6DHS1KEAODGPFU","1","0","BUCKET","3","DONKEY","13","0","2605",,,,,"0","2018-10-22 14:02:53","287012"
"A1HI3OYEBN9UZJ","cs_wg_rev_conf_v3_real1","3PW9OPU9PQLE0YX9XGRVG52NCT512I","27","0","BICYCLE","7","CHICKEN","13","1","1147",,,,,"0","2018-10-22 14:02:55","287013"
"A4WP2DU4JVUH0","cs_wg_rev_conf_v3_real1","3FIJLY1B6U51IKSN6DHS1KEAODGPFU","2","0","DONKEY","13","BUCKET","3","0","1231",,,,,"0","2018-10-22 14:02:57","287014"
"A1HI3OYEBN9UZJ","cs_wg_rev_conf_v3_real1","3PW9OPU9PQLE0YX9XGRVG52NCT512I","28","0","BICYCLE","7","CHICKEN","13","1","1081",,,,,"0","2018-10-22 14:02:58","287015"
"A4WP2DU4JVUH0","cs_wg_rev_conf_v3_real1","3FIJLY1B6U51IKSN6DHS1KEAODGPFU","3","0","BUCKET","3","DONKEY","13","1","1572",,,,,"0","2018-10-22 14:03:00","287016"
"A1HI3OYEBN9UZJ","cs_wg_rev_conf_v3_real1","3PW9OPU9PQLE0YX9XGRVG52NCT512I","29","0","SKUNK","8","CHICKEN","13","1","1582",,,,,"0","2018-10-22 14:03:02","287017"
"A1HI3OYEBN9UZJ","cs_wg_rev_conf_v3_real1","3PW9OPU9PQLE0YX9XGRVG52NCT512I","30","0","SKUNK","8","CHICKEN","13","1","647",,,,,"0","2018-10-22 14:03:04","287018"
"A4WP2DU4JVUH0","cs_wg_rev_conf_v3_real1","3FIJLY1B6U51IKSN6DHS1KEAODGPFU","4","0","VOLCANO","7","SUNBURN","8","1","3205",,,,,"0","2018-10-22 14:03:05","287019"
"A1HI3OYEBN9UZJ","cs_wg_rev_conf_v3_real1","3PW9OPU9PQLE0YX9XGRVG52NCT512I","31","0","SKUNK","8","BICYCLE","7","0","2230",,,,,"0","2018-10-22 14:03:08","287020"
"A4WP2DU4JVUH0","cs_wg_rev_conf_v3_real1","3FIJLY1B6U51IKSN6DHS1KEAODGPFU","5","0","SUNBURN","8","DONKEY","13","1","1210",,,,,"0","2018-10-22 14:03:09","287021"
"A1HI3OYEBN9UZJ","cs_wg_rev_conf_v3_real1","3PW9OPU9PQLE0YX9XGRVG52NCT512I","32","0","BICYCLE","7","SKUNK","8","0","2759",,,,,"0","2018-10-22 14:03:12","287022"
"A4WP2DU4JVUH0","cs_wg_rev_conf_v3_real1","3FIJLY1B6U51IKSN6DHS1KEAODGPFU","6","0","BUCKET","3","VOLCANO","7","1","2354",,,,,"0","2018-10-22 14:03:14","287023"
"A1HI3OYEBN9UZJ","cs_wg_rev_conf_v3_real1","3PW9OPU9PQLE0YX9XGRVG52NCT512I","33","0","CHICKEN","13","SKUNK","8","0","780",,,,,"0","2018-10-22 14:03:15","287024"
"A4WP2DU4JVUH0","cs_wg_rev_conf_v3_real1","3FIJLY1B6U51IKSN6DHS1KEAODGPFU","7","0","DONKEY","13","SUNBURN","8","0","989",,,,,"0","2018-10-22 14:03:16","287025"
"A1HI3OYEBN9UZJ","cs_wg_rev_conf_v3_real1","3PW9OPU9PQLE0YX9XGRVG52NCT512I","34","0","MARKET","3","CHICKEN","13","1","507",,,,,"0","2018-10-22 14:03:17","287026"
"A4WP2DU4JVUH0","cs_wg_rev_conf_v3_real1","3FIJLY1B6U51IKSN6DHS1KEAODGPFU","8","0","BUCKET","3","SUNBURN","8","1","1454",,,,,"0","2018-10-22 14:03:20","287027"
"A1HI3OYEBN9UZJ","cs_wg_rev_conf_v3_real1","3PW9OPU9PQLE0YX9XGRVG52NCT512I","35","0","MARKET","3","SKUNK","8","1","1560",,,,,"0","2018-10-22 14:03:21","287028"
"A4WP2DU4JVUH0","cs_wg_rev_conf_v3_real1","3FIJLY1B6U51IKSN6DHS1KEAODGPFU","9","0","DONKEY","13","VOLCANO","7","0","821",,,,,"0","2018-10-22 14:03:22","287029"
"A4WP2DU4JVUH0","cs_wg_rev_conf_v3_real1","3FIJLY1B6U51IKSN6DHS1KEAODGPFU","10","0","DONKEY","13","SUNBURN","8","0","612",,,,,"0","2018-10-22 14:03:24","287030"
"A4WP2DU4JVUH0","cs_wg_rev_conf_v3_real1","3FIJLY1B6U51IKSN6DHS1KEAODGPFU","11","0","VOLCANO","7","BUCKET","3","0","1431",,,,,"0","2018-10-22 14:03:27","287031"
"A4WP2DU4JVUH0","cs_wg_rev_conf_v3_real1","3FIJLY1B6U51IKSN6DHS1KEAODGPFU","12","0","BUCKET","3","VOLCANO","7","1","1197",,,,,"0","2018-10-22 14:03:30","287032"
"A4WP2DU4JVUH0","cs_wg_rev_conf_v3_real1","3FIJLY1B6U51IKSN6DHS1KEAODGPFU","13","0","DONKEY","13","SUNBURN","8","0","837",,,,,"0","2018-10-22 14:03:33","287033"
"A2V98P6N59LY9M","cs_wg_rev_conf_v3_real1","3L6L49WXW0YNRUDF2HCVCAC28N6540","0","0","GRENADE","7","COOKIE","13","1","8036",,,,,"1","2018-10-22 14:03:33","287034"
"A14R1LITTLBHR8","cs_wg_rev_conf_v3_real1","3ERET4BTVMAR6J4UQZCSV760R5FK9W","0","0","JAGUAR","8","GRENADE","7","0","5805",,,,,"0","2018-10-22 14:03:35","287035"
"A4WP2DU4JVUH0","cs_wg_rev_conf_v3_real1","3FIJLY1B6U51IKSN6DHS1KEAODGPFU","14","0","SUNBURN","8","BUCKET","3","0","1510",,,,,"0","2018-10-22 14:03:36","287036"
"ADJYYMK4V3YJV","cs_wg_rev_conf_v3_real1","3X4MXAO0BGPO5JUX9UVHA30PKYUWRR","0","0","NAPKIN","13","GROUND","8","0","4046",,,,,"0","2018-10-22 14:03:36","287037"
"A14R1LITTLBHR8","cs_wg_rev_conf_v3_real1","3ERET4BTVMAR6J4UQZCSV760R5FK9W","1","0","BLANKET","13","JAGUAR","8","0","1082",,,,,"0","2018-10-22 14:03:38","287038"
"A4WP2DU4JVUH0","cs_wg_rev_conf_v3_real1","3FIJLY1B6U51IKSN6DHS1KEAODGPFU","15","0","SUNBURN","8","DONKEY","13","1","664",,,,,"0","2018-10-22 14:03:39","287039"
"A2V98P6N59LY9M","cs_wg_rev_conf_v3_real1","3L6L49WXW0YNRUDF2HCVCAC28N6540","1","0","GRENADE","7","COOKIE","13","1","2941",,,,,"1","2018-10-22 14:03:39","287040"
"ADJYYMK4V3YJV","cs_wg_rev_conf_v3_real1","3X4MXAO0BGPO5JUX9UVHA30PKYUWRR","1","0","POTATO","7","DONKEY","3","1","1675",,,,,"0","2018-10-22 14:03:41","287041"
"A2V98P6N59LY9M","cs_wg_rev_conf_v3_real1","3L6L49WXW0YNRUDF2HCVCAC28N6540","2","0","GRENADE","7","PENGUIN","8","1","2499",,,,,"1","2018-10-22 14:03:44","287042"
"A4WP2DU4JVUH0","cs_wg_rev_conf_v3_real1","3FIJLY1B6U51IKSN6DHS1KEAODGPFU","16","0","SUNBURN","8","VOLCANO","7","0","3861",,,,,"0","2018-10-22 14:03:44","287043"
"ADJYYMK4V3YJV","cs_wg_rev_conf_v3_real1","3X4MXAO0BGPO5JUX9UVHA30PKYUWRR","2","0","POTATO","7","GROUND","8","0","2495",,,,,"0","2018-10-22 14:03:45","287044"
"A14R1LITTLBHR8","cs_wg_rev_conf_v3_real1","3ERET4BTVMAR6J4UQZCSV760R5FK9W","2","0","GRENADE","7","BASKET","3","1","4636",,,,,"0","2018-10-22 14:03:46","287045"
"A4WP2DU4JVUH0","cs_wg_rev_conf_v3_real1","3FIJLY1B6U51IKSN6DHS1KEAODGPFU","17","0","DONKEY","13","VOLCANO","7","0","726",,,,,"0","2018-10-22 14:03:47","287046"
"A2V98P6N59LY9M","cs_wg_rev_conf_v3_real1","3L6L49WXW0YNRUDF2HCVCAC28N6540","3","0","MONKEY","3","PENGUIN","8","1","1575",,,,,"1","2018-10-22 14:03:48","287047"
"A3BSFYZJI3P2WS","cs_wg_rev_conf_v3_real1","32M8BPYGATNFFY1E42XQA8DA3EKIG9","0","0","VOLCANO","9","SAUCE","8","1","6519",,,,,"0","2018-10-22 14:03:48","287048"
"ADJYYMK4V3YJV","cs_wg_rev_conf_v3_real1","3X4MXAO0BGPO5JUX9UVHA30PKYUWRR","3","0","GROUND","8","DONKEY","3","1","2402",,,,,"0","2018-10-22 14:03:50","287049"
"A14R1LITTLBHR8","cs_wg_rev_conf_v3_real1","3ERET4BTVMAR6J4UQZCSV760R5FK9W","3","0","BASKET","3","GRENADE","7","0","1252",,,,,"0","2018-10-22 14:03:50","287050"
"A4WP2DU4JVUH0","cs_wg_rev_conf_v3_real1","3FIJLY1B6U51IKSN6DHS1KEAODGPFU","18","0","SUNBURN","8","VOLCANO","7","0","1951",,,,,"0","2018-10-22 14:03:50","287051"
"A2V98P6N59LY9M","cs_wg_rev_conf_v3_real1","3L6L49WXW0YNRUDF2HCVCAC28N6540","4","0","GRENADE","7","PENGUIN","8","1","1361",,,,,"1","2018-10-22 14:03:51","287052"
"AGTIA5T9ET7AA","cs_wg_rev_conf_v3_real1","3TY7ZAOG5FL9APGHQ3TZ2W57O1M0K1","0","0","LIQUID","8","BANANA","7","0","4395",,,,,"1","2018-10-22 14:03:52","287053"
"A3BSFYZJI3P2WS","cs_wg_rev_conf_v3_real1","32M8BPYGATNFFY1E42XQA8DA3EKIG9","1","0","CRICKET","13","COWBOY","1","0","2684",,,,,"0","2018-10-22 14:03:53","287054"
"A4WP2DU4JVUH0","cs_wg_rev_conf_v3_real1","3FIJLY1B6U51IKSN6DHS1KEAODGPFU","19","0","SUNBURN","8","BUCKET","3","0","991",,,,,"0","2018-10-22 14:03:53","287055"
"A2V98P6N59LY9M","cs_wg_rev_conf_v3_real1","3L6L49WXW0YNRUDF2HCVCAC28N6540","5","0","MONKEY","3","COOKIE","13","1","990",,,,,"1","2018-10-22 14:03:54","287056"
"ADJYYMK4V3YJV","cs_wg_rev_conf_v3_real1","3X4MXAO0BGPO5JUX9UVHA30PKYUWRR","4","0","POTATO","7","GROUND","8","0","2573",,,,,"0","2018-10-22 14:03:55","287057"
"A4WP2DU4JVUH0","cs_wg_rev_conf_v3_real1","3FIJLY1B6U51IKSN6DHS1KEAODGPFU","20","0","SUNBURN","8","BUCKET","3","0","1709",,,,,"0","2018-10-22 14:03:57","287058"
"A3BSFYZJI3P2WS","cs_wg_rev_conf_v3_real1","32M8BPYGATNFFY1E42XQA8DA3EKIG9","2","0","COWBOY","1","BANANA","11","1","3253",,,,,"0","2018-10-22 14:03:58","287059"
"A2V98P6N59LY9M","cs_wg_rev_conf_v3_real1","3L6L49WXW0YNRUDF2HCVCAC28N6540","6","0","COOKIE","13","MONKEY","3","0","1786",,,,,"1","2018-10-22 14:03:58","287060"
"A6G30K3SIWKZ9","cs_wg_rev_conf_v3_real1","3300DTYQT2IUCIT6BFCBJ7JKH8MQE3","0","0","NAPKIN","13","BLANKET","3","0","6464",,,,,"0","2018-10-22 14:03:58","287061"
"ADJYYMK4V3YJV","cs_wg_rev_conf_v3_real1","3X4MXAO0BGPO5JUX9UVHA30PKYUWRR","5","0","POTATO","7","DONKEY","3","0","2701",,,,,"0","2018-10-22 14:04:00","287062"
"A4WP2DU4JVUH0","cs_wg_rev_conf_v3_real1","3FIJLY1B6U51IKSN6DHS1KEAODGPFU","21","0","VOLCANO","7","SUNBURN","8","1","2766",,,,,"0","2018-10-22 14:04:01","287063"
"A3BSFYZJI3P2WS","cs_wg_rev_conf_v3_real1","32M8BPYGATNFFY1E42XQA8DA3EKIG9","3","0","POTATO","7","BANANA","11","1","1828",,,,,"0","2018-10-22 14:04:02","287064"
"A2V98P6N59LY9M","cs_wg_rev_conf_v3_real1","3L6L49WXW0YNRUDF2HCVCAC28N6540","7","0","PENGUIN","8","GRENADE","7","0","1780",,,,,"1","2018-10-22 14:04:02","287065"
"ADJYYMK4V3YJV","cs_wg_rev_conf_v3_real1","3X4MXAO0BGPO5JUX9UVHA30PKYUWRR","6","0","POTATO","7","GROUND","8","1","1845",,,,,"0","2018-10-22 14:04:04","287066"
"A4WP2DU4JVUH0","cs_wg_rev_conf_v3_real1","3FIJLY1B6U51IKSN6DHS1KEAODGPFU","22","0","DONKEY","13","BUCKET","3","0","1133",,,,,"0","2018-10-22 14:04:04","287067"
"A3BSFYZJI3P2WS","cs_wg_rev_conf_v3_real1","32M8BPYGATNFFY1E42XQA8DA3EKIG9","4","0","POTATO","7","PALACE","15","1","1429",,,,,"0","2018-10-22 14:04:05","287068"
"AGTIA5T9ET7AA","cs_wg_rev_conf_v3_real1","3TY7ZAOG5FL9APGHQ3TZ2W57O1M0K1","1","0","WHISKER","3","LIQUID","8","1","8796",,,,,"1","2018-10-22 14:04:05","287069"
"A6G30K3SIWKZ9","cs_wg_rev_conf_v3_real1","3300DTYQT2IUCIT6BFCBJ7JKH8MQE3","1","0","SEAGULL","8","NAPKIN","13","0","3037",,,,,"0","2018-10-22 14:04:06","287070"
"A2V98P6N59LY9M","cs_wg_rev_conf_v3_real1","3L6L49WXW0YNRUDF2HCVCAC28N6540","8","0","MONKEY","3","COOKIE","13","1","2307",,,,,"1","2018-10-22 14:04:07","287071"
"A4WP2DU4JVUH0","cs_wg_rev_conf_v3_real1","3FIJLY1B6U51IKSN6DHS1KEAODGPFU","23","0","BUCKET","3","DONKEY","13","1","1589",,,,,"0","2018-10-22 14:04:08","287072"
"ADJYYMK4V3YJV","cs_wg_rev_conf_v3_real1","3X4MXAO0BGPO5JUX9UVHA30PKYUWRR","7","0","POTATO","7","NAPKIN","13","1","1949",,,,,"0","2018-10-22 14:04:08","287073"
"A3BSFYZJI3P2WS","cs_wg_rev_conf_v3_real1","32M8BPYGATNFFY1E42XQA8DA3EKIG9","5","0","VOLCANO","9","COWBOY","1","1","1614",,,,,"0","2018-10-22 14:04:09","287074"
"A6G30K3SIWKZ9","cs_wg_rev_conf_v3_real1","3300DTYQT2IUCIT6BFCBJ7JKH8MQE3","2","0","SEAGULL","8","NAPKIN","13","1","1217",,,,,"0","2018-10-22 14:04:09","287075"
"A2V98P6N59LY9M","cs_wg_rev_conf_v3_real1","3L6L49WXW0YNRUDF2HCVCAC28N6540","9","0","PENGUIN","8","COOKIE","13","1","1711",,,,,"1","2018-10-22 14:04:10","287076"
"A3BSFYZJI3P2WS","cs_wg_rev_conf_v3_real1","32M8BPYGATNFFY1E42XQA8DA3EKIG9","6","0","VOLCANO","9","POTATO","7","1","763",,,,,"0","2018-10-22 14:04:12","287077"
"A4WP2DU4JVUH0","cs_wg_rev_conf_v3_real1","3FIJLY1B6U51IKSN6DHS1KEAODGPFU","24","0","DONKEY","13","VOLCANO","7","0","2534",,,,,"0","2018-10-22 14:04:12","287078"
"ADJYYMK4V3YJV","cs_wg_rev_conf_v3_real1","3X4MXAO0BGPO5JUX9UVHA30PKYUWRR","8","0","NAPKIN","13","GROUND","8","0","2687",,,,,"0","2018-10-22 14:04:12","287079"
"AGTIA5T9ET7AA","cs_wg_rev_conf_v3_real1","3TY7ZAOG5FL9APGHQ3TZ2W57O1M0K1","2","0","CHICKEN","13","WHISKER","3","0","5913",,,,,"1","2018-10-22 14:04:14","287080"
"A2V98P6N59LY9M","cs_wg_rev_conf_v3_real1","3L6L49WXW0YNRUDF2HCVCAC28N6540","10","0","MONKEY","3","COOKIE","13","1","1793",,,,,"1","2018-10-22 14:04:14","287081"
"A4WP2DU4JVUH0","cs_wg_rev_conf_v3_real1","3FIJLY1B6U51IKSN6DHS1KEAODGPFU","25","0","SUNBURN","8","DONKEY","13","1","949",,,,,"0","2018-10-22 14:04:15","287082"
"ADJYYMK4V3YJV","cs_wg_rev_conf_v3_real1","3X4MXAO0BGPO5JUX9UVHA30PKYUWRR","9","0","NAPKIN","13","DONKEY","3","0","674",,,,,"0","2018-10-22 14:04:15","287083"
"A3BSFYZJI3P2WS","cs_wg_rev_conf_v3_real1","32M8BPYGATNFFY1E42XQA8DA3EKIG9","7","0","WIZARD","10","HOCKEY","3","1","1038",,,,,"0","2018-10-22 14:04:15","287084"
"A1D68GESUYX17I","cs_wg_rev_conf_v3_real1","3YW4XOSQKQMNKA6BG011MOXFVKP1U1","0","0","BLANKET","13","BAKER","3","0","3791",,,,,"0","2018-10-22 14:04:18","287085"
"A4WP2DU4JVUH0","cs_wg_rev_conf_v3_real1","3FIJLY1B6U51IKSN6DHS1KEAODGPFU","26","0","VOLCANO","7","BUCKET","3","0","1501",,,,,"0","2018-10-22 14:04:18","287086"
"A14R1LITTLBHR8","cs_wg_rev_conf_v3_real1","3ERET4BTVMAR6J4UQZCSV760R5FK9W","4","0","BASKET","3","BLANKET","13","1","25043",,,,,"1","2018-10-22 14:04:19","287087"
"ADJYYMK4V3YJV","cs_wg_rev_conf_v3_real1","3X4MXAO0BGPO5JUX9UVHA30PKYUWRR","10","0","NAPKIN","13","GROUND","8","0","697",,,,,"0","2018-10-22 14:04:19","287088"
"A2V98P6N59LY9M","cs_wg_rev_conf_v3_real1","3L6L49WXW0YNRUDF2HCVCAC28N6540","11","0","GRENADE","7","COOKIE","13","1","3176",,,,,"1","2018-10-22 14:04:19","287089"
"A3BSFYZJI3P2WS","cs_wg_rev_conf_v3_real1","32M8BPYGATNFFY1E42XQA8DA3EKIG9","8","0","COWBOY","1","SAUCE","8","0","3642",,,,,"0","2018-10-22 14:04:21","287090"
"A4WP2DU4JVUH0","cs_wg_rev_conf_v3_real1","3FIJLY1B6U51IKSN6DHS1KEAODGPFU","27","0","VOLCANO","7","DONKEY","13","1","933",,,,,"0","2018-10-22 14:04:21","287091"
"A6G30K3SIWKZ9","cs_wg_rev_conf_v3_real1","3300DTYQT2IUCIT6BFCBJ7JKH8MQE3","3","0","NAPKIN","13","BANANA","7","1","2428",,,,,"0","2018-10-22 14:04:21","287092"
"AGTIA5T9ET7AA","cs_wg_rev_conf_v3_real1","3TY7ZAOG5FL9APGHQ3TZ2W57O1M0K1","3","0","LIQUID","8","BANANA","7","0","5687",,,,,"1","2018-10-22 14:04:22","287093"
"A14R1LITTLBHR8","cs_wg_rev_conf_v3_real1","3ERET4BTVMAR6J4UQZCSV760R5FK9W","5","0","BASKET","3","BLANKET","13","0","1699",,,,,"0","2018-10-22 14:04:22","287094"
"ADJYYMK4V3YJV","cs_wg_rev_conf_v3_real1","3X4MXAO0BGPO5JUX9UVHA30PKYUWRR","11","0","DONKEY","3","NAPKIN","13","1","1637",,,,,"0","2018-10-22 14:04:23","287095"
"A1D68GESUYX17I","cs_wg_rev_conf_v3_real1","3YW4XOSQKQMNKA6BG011MOXFVKP1U1","1","0","BLANKET","13","THUMB","8","0","2681",,,,,"0","2018-10-22 14:04:23","287096"
"A4WP2DU4JVUH0","cs_wg_rev_conf_v3_real1","3FIJLY1B6U51IKSN6DHS1KEAODGPFU","28","0","VOLCANO","7","DONKEY","13","1","1014",,,,,"0","2018-10-22 14:04:24","287097"
"A3BSFYZJI3P2WS","cs_wg_rev_conf_v3_real1","32M8BPYGATNFFY1E42XQA8DA3EKIG9","9","0","BICYCLE","6","SAUCE","8","0","1096",,,,,"0","2018-10-22 14:04:24","287098"
"A2V98P6N59LY9M","cs_wg_rev_conf_v3_real1","3L6L49WXW0YNRUDF2HCVCAC28N6540","12","0","COOKIE","13","PENGUIN","8","0","2917",,,,,"0","2018-10-22 14:04:25","287099"
"A6G30K3SIWKZ9","cs_wg_rev_conf_v3_real1","3300DTYQT2IUCIT6BFCBJ7JKH8MQE3","4","0","NAPKIN","13","SEAGULL","8","0","1511",,,,,"0","2018-10-22 14:04:26","287100"
"ADJYYMK4V3YJV","cs_wg_rev_conf_v3_real1","3X4MXAO0BGPO5JUX9UVHA30PKYUWRR","12","0","POTATO","7","NAPKIN","13","1","1465",,,,,"0","2018-10-22 14:04:26","287101"
"A3BSFYZJI3P2WS","cs_wg_rev_conf_v3_real1","32M8BPYGATNFFY1E42XQA8DA3EKIG9","10","0","HOCKEY","3","CRICKET","13","0","517",,,,,"0","2018-10-22 14:04:27","287102"
"A14R1LITTLBHR8","cs_wg_rev_conf_v3_real1","3ERET4BTVMAR6J4UQZCSV760R5FK9W","6","0","GRENADE","7","BLANKET","13","1","1411",,,,,"0","2018-10-22 14:04:27","287103"
"A1D68GESUYX17I","cs_wg_rev_conf_v3_real1","3YW4XOSQKQMNKA6BG011MOXFVKP1U1","2","0","THUMB","8","BAKER","3","0","2152",,,,,"0","2018-10-22 14:04:27","287104"
"AGTIA5T9ET7AA","cs_wg_rev_conf_v3_real1","3TY7ZAOG5FL9APGHQ3TZ2W57O1M0K1","4","0","CHICKEN","13","BANANA","7","0","3234",,,,,"1","2018-10-22 14:04:27","287105"
"A4WP2DU4JVUH0","cs_wg_rev_conf_v3_real1","3FIJLY1B6U51IKSN6DHS1KEAODGPFU","29","0","BUCKET","3","SUNBURN","8","1","2253",,,,,"0","2018-10-22 14:04:28","287106"
"A3BSFYZJI3P2WS","cs_wg_rev_conf_v3_real1","32M8BPYGATNFFY1E42XQA8DA3EKIG9","11","0","CRICKET","13","HOCKEY","3","0","521",,,,,"0","2018-10-22 14:04:29","287107"
"A2V98P6N59LY9M","cs_wg_rev_conf_v3_real1","3L6L49WXW0YNRUDF2HCVCAC28N6540","13","0","GRENADE","7","MONKEY","3","0","2002",,,,,"0","2018-10-22 14:04:29","287108"
"ADJYYMK4V3YJV","cs_wg_rev_conf_v3_real1","3X4MXAO0BGPO5JUX9UVHA30PKYUWRR","13","0","GROUND","8","DONKEY","3","0","1529",,,,,"0","2018-10-22 14:04:30","287109"
"A14R1LITTLBHR8","cs_wg_rev_conf_v3_real1","3ERET4BTVMAR6J4UQZCSV760R5FK9W","7","0","BASKET","3","GRENADE","7","0","1198",,,,,"0","2018-10-22 14:04:30","287110"
"AGTIA5T9ET7AA","cs_wg_rev_conf_v3_real1","3TY7ZAOG5FL9APGHQ3TZ2W57O1M0K1","5","0","LIQUID","8","BANANA","7","0","1594",,,,,"0","2018-10-22 14:04:30","287111"
"A3BSFYZJI3P2WS","cs_wg_rev_conf_v3_real1","32M8BPYGATNFFY1E42XQA8DA3EKIG9","12","0","PALACE","15","WIZARD","10","0","427",,,,,"0","2018-10-22 14:04:31","287112"
"A6G30K3SIWKZ9","cs_wg_rev_conf_v3_real1","3300DTYQT2IUCIT6BFCBJ7JKH8MQE3","5","0","SEAGULL","8","BANANA","7","0","2186",,,,,"0","2018-10-22 14:04:31","287113"
"A1D68GESUYX17I","cs_wg_rev_conf_v3_real1","3YW4XOSQKQMNKA6BG011MOXFVKP1U1","3","0","TOMATO","7","THUMB","8","1","2945",,,,,"0","2018-10-22 14:04:32","287114"
"A16LAWY44MSFDQ","cs_wg_rev_conf_v3_real1","38F71OA9GTXVXHVAEXP0KGKFJ85MFV","0","0","BUCKET","13","PELICAN","7","0","13354",,,,,"1","2018-10-22 14:04:32","287115"
"A4WP2DU4JVUH0","cs_wg_rev_conf_v3_real1","3FIJLY1B6U51IKSN6DHS1KEAODGPFU","30","0","VOLCANO","7","BUCKET","3","0","2973",,,,,"0","2018-10-22 14:04:32","287116"
"A2V98P6N59LY9M","cs_wg_rev_conf_v3_real1","3L6L49WXW0YNRUDF2HCVCAC28N6540","14","0","MONKEY","3","PENGUIN","8","1","1248",,,,,"0","2018-10-22 14:04:32","287117"
"ADJYYMK4V3YJV","cs_wg_rev_conf_v3_real1","3X4MXAO0BGPO5JUX9UVHA30PKYUWRR","14","0","GROUND","8","POTATO","7","0","789",,,,,"0","2018-10-22 14:04:33","287118"
"A3BSFYZJI3P2WS","cs_wg_rev_conf_v3_real1","32M8BPYGATNFFY1E42XQA8DA3EKIG9","13","0","PALACE","15","BANANA","11","1","1520",,,,,"0","2018-10-22 14:04:34","287119"
"A14R1LITTLBHR8","cs_wg_rev_conf_v3_real1","3ERET4BTVMAR6J4UQZCSV760R5FK9W","8","0","GRENADE","7","JAGUAR","8","0","1525",,,,,"0","2018-10-22 14:04:34","287120"
"A2GE0QTOZHNX1G","cs_wg_rev_conf_v3_real1","3QECW5O0KH278FS5HID3KIOUOMN5TW","0","0","MONKEY","3","BAKER","13","1","4760",,,,,"0","2018-10-22 14:04:34","287121"
"A4WP2DU4JVUH0","cs_wg_rev_conf_v3_real1","3FIJLY1B6U51IKSN6DHS1KEAODGPFU","31","0","DONKEY","13","BUCKET","3","0","1102",,,,,"0","2018-10-22 14:04:35","287122"
"A2V98P6N59LY9M","cs_wg_rev_conf_v3_real1","3L6L49WXW0YNRUDF2HCVCAC28N6540","15","0","COOKIE","13","GRENADE","7","0","1494",,,,,"0","2018-10-22 14:04:36","287123"
"ADJYYMK4V3YJV","cs_wg_rev_conf_v3_real1","3X4MXAO0BGPO5JUX9UVHA30PKYUWRR","15","0","GROUND","8","POTATO","7","0","1009",,,,,"0","2018-10-22 14:04:36","287124"
"A3BSFYZJI3P2WS","cs_wg_rev_conf_v3_real1","32M8BPYGATNFFY1E42XQA8DA3EKIG9","14","0","POTATO","7","VOLCANO","9","0","906",,,,,"0","2018-10-22 14:04:36","287125"
"A3BSFYZJI3P2WS","cs_wg_rev_conf_v3_real1","32M8BPYGATNFFY1E42XQA8DA3EKIG9","15","0","BICYCLE","6","CRICKET","13","1","254",,,,,"0","2018-10-22 14:04:38","287126"
"A1D68GESUYX17I","cs_wg_rev_conf_v3_real1","3YW4XOSQKQMNKA6BG011MOXFVKP1U1","4","0","TOMATO","7","BAKER","3","0","4083",,,,,"0","2018-10-22 14:04:38","287127"
"A4WP2DU4JVUH0","cs_wg_rev_conf_v3_real1","3FIJLY1B6U51IKSN6DHS1KEAODGPFU","32","0","VOLCANO","7","DONKEY","13","1","1213",,,,,"0","2018-10-22 14:04:38","287128"
"A14R1LITTLBHR8","cs_wg_rev_conf_v3_real1","3ERET4BTVMAR6J4UQZCSV760R5FK9W","9","0","GRENADE","7","BLANKET","13","1","1310",,,,,"0","2018-10-22 14:04:38","287129"
"AGTIA5T9ET7AA","cs_wg_rev_conf_v3_real1","3TY7ZAOG5FL9APGHQ3TZ2W57O1M0K1","6","0","WHISKER","3","BANANA","7","1","5344",,,,,"1","2018-10-22 14:04:38","287130"
"A3BSFYZJI3P2WS","cs_wg_rev_conf_v3_real1","32M8BPYGATNFFY1E42XQA8DA3EKIG9","16","0","HOCKEY","3","COWBOY","1","1","392",,,,,"0","2018-10-22 14:04:39","287131"
"A4WP2DU4JVUH0","cs_wg_rev_conf_v3_real1","3FIJLY1B6U51IKSN6DHS1KEAODGPFU","33","0","BUCKET","3","SUNBURN","8","1","1030",,,,,"0","2018-10-22 14:04:41","287132"
"A2V98P6N59LY9M","cs_wg_rev_conf_v3_real1","3L6L49WXW0YNRUDF2HCVCAC28N6540","16","0","MONKEY","3","PENGUIN","8","1","3832",,,,,"0","2018-10-22 14:04:41","287133"
"ADJYYMK4V3YJV","cs_wg_rev_conf_v3_real1","3X4MXAO0BGPO5JUX9UVHA30PKYUWRR","16","0","DONKEY","3","GROUND","8","1","3612",,,,,"0","2018-10-22 14:04:42","287134"
"A3BSFYZJI3P2WS","cs_wg_rev_conf_v3_real1","32M8BPYGATNFFY1E42XQA8DA3EKIG9","17","0","BICYCLE","6","POTATO","7","1","471",,,,,"0","2018-10-22 14:04:42","287135"
"A1D68GESUYX17I","cs_wg_rev_conf_v3_real1","3YW4XOSQKQMNKA6BG011MOXFVKP1U1","5","0","BAKER","3","BLANKET","13","1","2573",,,,,"0","2018-10-22 14:04:42","287136"
"A14R1LITTLBHR8","cs_wg_rev_conf_v3_real1","3ERET4BTVMAR6J4UQZCSV760R5FK9W","10","0","BASKET","3","JAGUAR","8","0","984",,,,,"0","2018-10-22 14:04:42","287137"
"A2GE0QTOZHNX1G","cs_wg_rev_conf_v3_real1","3QECW5O0KH278FS5HID3KIOUOMN5TW","1","0","BAKER","13","WIZARD","7","0","4096",,,,,"0","2018-10-22 14:04:42","287138"
"A16LAWY44MSFDQ","cs_wg_rev_conf_v3_real1","38F71OA9GTXVXHVAEXP0KGKFJ85MFV","1","0","JAGUAR","8","BUCKET","13","0","4624",,,,,"1","2018-10-22 14:04:43","287139"
"A2V98P6N59LY9M","cs_wg_rev_conf_v3_real1","3L6L49WXW0YNRUDF2HCVCAC28N6540","17","0","COOKIE","13","MONKEY","3","0","1037",,,,,"0","2018-10-22 14:04:44","287140"
"A3BSFYZJI3P2WS","cs_wg_rev_conf_v3_real1","32M8BPYGATNFFY1E42XQA8DA3EKIG9","18","0","POTATO","7","SAUCE","8","1","714",,,,,"0","2018-10-22 14:04:45","287141"
"A4WP2DU4JVUH0","cs_wg_rev_conf_v3_real1","3FIJLY1B6U51IKSN6DHS1KEAODGPFU","34","0","VOLCANO","7","SUNBURN","8","1","2110",,,,,"0","2018-10-22 14:04:45","287142"
"AGTIA5T9ET7AA","cs_wg_rev_conf_v3_real1","3TY7ZAOG5FL9APGHQ3TZ2W57O1M0K1","7","0","BANANA","7","CHICKEN","13","1","4528",,,,,"1","2018-10-22 14:04:45","287143"
"A1D68GESUYX17I","cs_wg_rev_conf_v3_real1","3YW4XOSQKQMNKA6BG011MOXFVKP1U1","6","0","TOMATO","7","BLANKET","13","1","1435",,,,,"0","2018-10-22 14:04:45","287144"
"A14R1LITTLBHR8","cs_wg_rev_conf_v3_real1","3ERET4BTVMAR6J4UQZCSV760R5FK9W","11","0","BASKET","3","JAGUAR","8","0","1133",,,,,"0","2018-10-22 14:04:47","287145"
"A2V98P6N59LY9M","cs_wg_rev_conf_v3_real1","3L6L49WXW0YNRUDF2HCVCAC28N6540","18","0","COOKIE","13","PENGUIN","8","0","1371",,,,,"0","2018-10-22 14:04:47","287146"
"A3BSFYZJI3P2WS","cs_wg_rev_conf_v3_real1","32M8BPYGATNFFY1E42XQA8DA3EKIG9","19","0","SAUCE","8","BICYCLE","6","1","798",,,,,"0","2018-10-22 14:04:47","287147"
"ADJYYMK4V3YJV","cs_wg_rev_conf_v3_real1","3X4MXAO0BGPO5JUX9UVHA30PKYUWRR","17","0","POTATO","7","DONKEY","3","1","3486",,,,,"0","2018-10-22 14:04:47","287148"
"A2GE0QTOZHNX1G","cs_wg_rev_conf_v3_real1","3QECW5O0KH278FS5HID3KIOUOMN5TW","2","0","BAKER","13","SAUCE","8","0","1659",,,,,"0","2018-10-22 14:04:48","287149"
"A12LI6GAHU6S2H","cs_wg_rev_conf_v3_real1","3S0TNUHWKTJJE8FATQKRRYGZNQ08DI","0","0","CHICKEN","3","MONKEY","13","1","4281",,,,,"0","2018-10-22 14:04:48","287150"
"A4WP2DU4JVUH0","cs_wg_rev_conf_v3_real1","3FIJLY1B6U51IKSN6DHS1KEAODGPFU","35","0","BUCKET","3","VOLCANO","7","1","2005",,,,,"0","2018-10-22 14:04:48","287151"
"AGTIA5T9ET7AA","cs_wg_rev_conf_v3_real1","3TY7ZAOG5FL9APGHQ3TZ2W57O1M0K1","8","0","CHICKEN","13","BANANA","7","0","1720",,,,,"0","2018-10-22 14:04:48","287152"
"A2V98P6N59LY9M","cs_wg_rev_conf_v3_real1","3L6L49WXW0YNRUDF2HCVCAC28N6540","19","0","GRENADE","7","PENGUIN","8","1","893",,,,,"0","2018-10-22 14:04:49","287153"
"A3BSFYZJI3P2WS","cs_wg_rev_conf_v3_real1","32M8BPYGATNFFY1E42XQA8DA3EKIG9","20","0","HOCKEY","3","SAUCE","8","1","708",,,,,"0","2018-10-22 14:04:50","287154"
"A1D68GESUYX17I","cs_wg_rev_conf_v3_real1","3YW4XOSQKQMNKA6BG011MOXFVKP1U1","7","0","BAKER","3","TOMATO","7","1","2967",,,,,"0","2018-10-22 14:04:50","287155"
"A14R1LITTLBHR8","cs_wg_rev_conf_v3_real1","3ERET4BTVMAR6J4UQZCSV760R5FK9W","12","0","BASKET","3","BLANKET","13","0","1318",,,,,"0","2018-10-22 14:04:50","287156"
"ADJYYMK4V3YJV","cs_wg_rev_conf_v3_real1","3X4MXAO0BGPO5JUX9UVHA30PKYUWRR","18","0","DONKEY","3","POTATO","7","0","2297",,,,,"0","2018-10-22 14:04:52","287157"
"A3BSFYZJI3P2WS","cs_wg_rev_conf_v3_real1","32M8BPYGATNFFY1E42XQA8DA3EKIG9","21","0","VOLCANO","9","HOCKEY","3","0","865",,,,,"0","2018-10-22 14:04:52","287158"
"A2V98P6N59LY9M","cs_wg_rev_conf_v3_real1","3L6L49WXW0YNRUDF2HCVCAC28N6540","20","0","PENGUIN","8","GRENADE","7","0","1183",,,,,"0","2018-10-22 14:04:52","287159"
"A2GE0QTOZHNX1G","cs_wg_rev_conf_v3_real1","3QECW5O0KH278FS5HID3KIOUOMN5TW","3","0","MONKEY","3","BAKER","13","1","1911",,,,,"0","2018-10-22 14:04:52","287160"
"A10JXOU89D5RXR","cs_wg_rev_conf_v3_real1","3UNH76FOCS61X8C5JNHO91RVPJVYM4","0","0","BAKER","3","SAUCE","8","1","17896",,,,,"1","2018-10-22 14:04:53","287161"
"A6G30K3SIWKZ9","cs_wg_rev_conf_v3_real1","3300DTYQT2IUCIT6BFCBJ7JKH8MQE3","6","0","BLANKET","3","SEAGULL","8","1","8050",,,,,"0","2018-10-22 14:04:53","287162"
"AGTIA5T9ET7AA","cs_wg_rev_conf_v3_real1","3TY7ZAOG5FL9APGHQ3TZ2W57O1M0K1","9","0","BANANA","7","LIQUID","8","1","3523",,,,,"1","2018-10-22 14:04:54","287163"
"A14R1LITTLBHR8","cs_wg_rev_conf_v3_real1","3ERET4BTVMAR6J4UQZCSV760R5FK9W","13","0","BLANKET","13","BASKET","3","0","1281",,,,,"0","2018-10-22 14:04:54","287164"
"A3BSFYZJI3P2WS","cs_wg_rev_conf_v3_real1","32M8BPYGATNFFY1E42XQA8DA3EKIG9","22","0","HOCKEY","3","GRENADE","5","0","702",,,,,"0","2018-10-22 14:04:54","287165"
"A2V98P6N59LY9M","cs_wg_rev_conf_v3_real1","3L6L49WXW0YNRUDF2HCVCAC28N6540","21","0","COOKIE","13","MONKEY","3","0","890",,,,,"0","2018-10-22 14:04:55","287166"
"ADJYYMK4V3YJV","cs_wg_rev_conf_v3_real1","3X4MXAO0BGPO5JUX9UVHA30PKYUWRR","19","0","DONKEY","3","GROUND","8","1","1308",,,,,"0","2018-10-22 14:04:55","287167"
"A12LI6GAHU6S2H","cs_wg_rev_conf_v3_real1","3S0TNUHWKTJJE8FATQKRRYGZNQ08DI","1","0","CHICKEN","3","PELICAN","7","1","2278",,,,,"0","2018-10-22 14:04:55","287168"
"A3BSFYZJI3P2WS","cs_wg_rev_conf_v3_real1","32M8BPYGATNFFY1E42XQA8DA3EKIG9","23","0","POTATO","7","HOCKEY","3","1","332",,,,,"0","2018-10-22 14:04:56","287169"
"A2GE0QTOZHNX1G","cs_wg_rev_conf_v3_real1","3QECW5O0KH278FS5HID3KIOUOMN5TW","4","0","BAKER","13","WIZARD","7","0","2309",,,,,"0","2018-10-22 14:04:57","287170"
"A16LAWY44MSFDQ","cs_wg_rev_conf_v3_real1","38F71OA9GTXVXHVAEXP0KGKFJ85MFV","2","0","CRICKET","3","JAGUAR","8","1","6230",,,,,"1","2018-10-22 14:04:57","287171"
"A14R1LITTLBHR8","cs_wg_rev_conf_v3_real1","3ERET4BTVMAR6J4UQZCSV760R5FK9W","14","0","JAGUAR","8","BLANKET","13","0","613",,,,,"0","2018-10-22 14:04:57","287172"
"A3BSFYZJI3P2WS","cs_wg_rev_conf_v3_real1","32M8BPYGATNFFY1E42XQA8DA3EKIG9","24","0","BANANA","11","BICYCLE","6","1","300",,,,,"0","2018-10-22 14:04:58","287173"
"A2V98P6N59LY9M","cs_wg_rev_conf_v3_real1","3L6L49WXW0YNRUDF2HCVCAC28N6540","22","0","MONKEY","3","GRENADE","7","1","1543",,,,,"0","2018-10-22 14:04:58","287174"
"ADJYYMK4V3YJV","cs_wg_rev_conf_v3_real1","3X4MXAO0BGPO5JUX9UVHA30PKYUWRR","20","0","GROUND","8","NAPKIN","13","0","1163",,,,,"0","2018-10-22 14:04:58","287175"
"A6G30K3SIWKZ9","cs_wg_rev_conf_v3_real1","3300DTYQT2IUCIT6BFCBJ7JKH8MQE3","7","0","BANANA","7","BLANKET","3","0","2372",,,,,"0","2018-10-22 14:04:58","287176"
"AGTIA5T9ET7AA","cs_wg_rev_conf_v3_real1","3TY7ZAOG5FL9APGHQ3TZ2W57O1M0K1","10","0","CHICKEN","13","WHISKER","3","0","1985",,,,,"0","2018-10-22 14:04:59","287177"
"A12LI6GAHU6S2H","cs_wg_rev_conf_v3_real1","3S0TNUHWKTJJE8FATQKRRYGZNQ08DI","2","0","MONKEY","13","CHICKEN","3","0","1710",,,,,"0","2018-10-22 14:05:00","287178"
"A3BSFYZJI3P2WS","cs_wg_rev_conf_v3_real1","32M8BPYGATNFFY1E42XQA8DA3EKIG9","25","0","BANANA","11","VOLCANO","9","1","233",,,,,"0","2018-10-22 14:05:00","287179"
"A2V98P6N59LY9M","cs_wg_rev_conf_v3_real1","3L6L49WXW0YNRUDF2HCVCAC28N6540","23","0","GRENADE","7","MONKEY","3","0","1137",,,,,"0","2018-10-22 14:05:00","287180"
"ADJYYMK4V3YJV","cs_wg_rev_conf_v3_real1","3X4MXAO0BGPO5JUX9UVHA30PKYUWRR","21","0","DONKEY","3","POTATO","7","0","889",,,,,"0","2018-10-22 14:05:01","287181"
"A14R1LITTLBHR8","cs_wg_rev_conf_v3_real1","3ERET4BTVMAR6J4UQZCSV760R5FK9W","15","0","JAGUAR","8","BASKET","3","1","1259",,,,,"0","2018-10-22 14:05:01","287182"
"A3BSFYZJI3P2WS","cs_wg_rev_conf_v3_real1","32M8BPYGATNFFY1E42XQA8DA3EKIG9","26","0","GRENADE","5","BANANA","11","1","38",,,,,"0","2018-10-22 14:05:02","287183"
"A16LAWY44MSFDQ","cs_wg_rev_conf_v3_real1","38F71OA9GTXVXHVAEXP0KGKFJ85MFV","3","0","CRICKET","3","PELICAN","7","1","2558",,,,,"0","2018-10-22 14:05:02","287184"
"A3CXJ18H14DXBN","cs_wg_rev_conf_v3_real1","3DY46V3X3PJ5NDHFGMV5H2IG8J2556","0","0","BASKET","13","BAKER","3","0","11927",,,,,"1","2018-10-22 14:05:02","287185"
"AGTIA5T9ET7AA","cs_wg_rev_conf_v3_real1","3TY7ZAOG5FL9APGHQ3TZ2W57O1M0K1","11","0","WHISKER","3","CHICKEN","13","1","1598",,,,,"0","2018-10-22 14:05:02","287186"
"A3BSFYZJI3P2WS","cs_wg_rev_conf_v3_real1","32M8BPYGATNFFY1E42XQA8DA3EKIG9","27","0","BANANA","11","HOCKEY","3","0","450",,,,,"0","2018-10-22 14:05:03","287187"
"A2GE0QTOZHNX1G","cs_wg_rev_conf_v3_real1","3QECW5O0KH278FS5HID3KIOUOMN5TW","5","0","MONKEY","3","BAKER","13","1","3360",,,,,"0","2018-10-22 14:05:04","287188"
"A6G30K3SIWKZ9","cs_wg_rev_conf_v3_real1","3300DTYQT2IUCIT6BFCBJ7JKH8MQE3","8","0","SEAGULL","8","BLANKET","3","0","3138",,,,,"0","2018-10-22 14:05:04","287189"
"A14R1LITTLBHR8","cs_wg_rev_conf_v3_real1","3ERET4BTVMAR6J4UQZCSV760R5FK9W","16","0","BLANKET","13","BASKET","3","0","621",,,,,"0","2018-10-22 14:05:04","287190"
"A3BSFYZJI3P2WS","cs_wg_rev_conf_v3_real1","32M8BPYGATNFFY1E42XQA8DA3EKIG9","28","0","SAUCE","8","CRICKET","13","0","81",,,,,"0","2018-10-22 14:05:04","287191"
"ADJYYMK4V3YJV","cs_wg_rev_conf_v3_real1","3X4MXAO0BGPO5JUX9UVHA30PKYUWRR","22","0","NAPKIN","13","POTATO","7","0","1486",,,,,"0","2018-10-22 14:05:05","287192"
"A12LI6GAHU6S2H","cs_wg_rev_conf_v3_real1","3S0TNUHWKTJJE8FATQKRRYGZNQ08DI","3","0","MONKEY","13","PELICAN","7","0","2672",,,,,"0","2018-10-22 14:05:05","287193"
"AGTIA5T9ET7AA","cs_wg_rev_conf_v3_real1","3TY7ZAOG5FL9APGHQ3TZ2W57O1M0K1","12","0","BANANA","7","CHICKEN","13","1","1259",,,,,"0","2018-10-22 14:05:06","287194"
"A3BSFYZJI3P2WS","cs_wg_rev_conf_v3_real1","32M8BPYGATNFFY1E42XQA8DA3EKIG9","29","0","COWBOY","1","CRICKET","13","0","153",,,,,"0","2018-10-22 14:05:06","287195"
"A2V98P6N59LY9M","cs_wg_rev_conf_v3_real1","3L6L49WXW0YNRUDF2HCVCAC28N6540","24","0","PENGUIN","8","MONKEY","3","0","1570",,,,,"0","2018-10-22 14:05:06","287196"
"A2GE0QTOZHNX1G","cs_wg_rev_conf_v3_real1","3QECW5O0KH278FS5HID3KIOUOMN5TW","6","0","BAKER","13","MONKEY","3","1","1085",,,,,"0","2018-10-22 14:05:06","287197"
"A16LAWY44MSFDQ","cs_wg_rev_conf_v3_real1","38F71OA9GTXVXHVAEXP0KGKFJ85MFV","4","0","JAGUAR","8","BUCKET","13","1","2042",,,,,"0","2018-10-22 14:05:06","287198"
"A10JXOU89D5RXR","cs_wg_rev_conf_v3_real1","3UNH76FOCS61X8C5JNHO91RVPJVYM4","1","0","SAUCE","8","PALACE","7","0","8680",,,,,"1","2018-10-22 14:05:07","287199"
"A2NDN67FSZQIVE","cs_wg_rev_conf_v3_real1","3M0NZ3JDP1Z3UR14NA2L66PB9IA5ZD","0","0","AVOCADO","7","MARKET","13","0","10535",,,,,"0","2018-10-22 14:05:07","287200"
"ADJYYMK4V3YJV","cs_wg_rev_conf_v3_real1","3X4MXAO0BGPO5JUX9UVHA30PKYUWRR","23","0","NAPKIN","13","POTATO","7","0","492",,,,,"0","2018-10-22 14:05:07","287201"
"A3BSFYZJI3P2WS","cs_wg_rev_conf_v3_real1","32M8BPYGATNFFY1E42XQA8DA3EKIG9","30","0","POTATO","7","GRENADE","5","0","285",,,,,"0","2018-10-22 14:05:07","287202"
"A6G30K3SIWKZ9","cs_wg_rev_conf_v3_real1","3300DTYQT2IUCIT6BFCBJ7JKH8MQE3","9","0","NAPKIN","13","BLANKET","3","0","1742",,,,,"0","2018-10-22 14:05:08","287203"
"A14R1LITTLBHR8","cs_wg_rev_conf_v3_real1","3ERET4BTVMAR6J4UQZCSV760R5FK9W","17","0","JAGUAR","8","BASKET","3","0","846",,,,,"0","2018-10-22 14:05:08","287204"
"A2GE0QTOZHNX1G","cs_wg_rev_conf_v3_real1","3QECW5O0KH278FS5HID3KIOUOMN5TW","7","0","BAKER","13","SAUCE","8","0","613",,,,,"0","2018-10-22 14:05:09","287205"
"AGTIA5T9ET7AA","cs_wg_rev_conf_v3_real1","3TY7ZAOG5FL9APGHQ3TZ2W57O1M0K1","13","0","LIQUID","8","WHISKER","3","0","1353",,,,,"0","2018-10-22 14:05:09","287206"
"A3BSFYZJI3P2WS","cs_wg_rev_conf_v3_real1","32M8BPYGATNFFY1E42XQA8DA3EKIG9","31","0","VOLCANO","9","GRENADE","5","0","249",,,,,"0","2018-10-22 14:05:09","287207"
"A3CXJ18H14DXBN","cs_wg_rev_conf_v3_real1","3DY46V3X3PJ5NDHFGMV5H2IG8J2556","1","0","BAKER","3","BASKET","13","1","5415",,,,,"1","2018-10-22 14:05:10","287208"
"ADJYYMK4V3YJV","cs_wg_rev_conf_v3_real1","3X4MXAO0BGPO5JUX9UVHA30PKYUWRR","24","0","DONKEY","3","NAPKIN","13","1","1304",,,,,"0","2018-10-22 14:05:10","287209"
"A6G30K3SIWKZ9","cs_wg_rev_conf_v3_real1","3300DTYQT2IUCIT6BFCBJ7JKH8MQE3","10","0","NAPKIN","13","SEAGULL","8","0","1203",,,,,"0","2018-10-22 14:05:11","287210"
"A2GE0QTOZHNX1G","cs_wg_rev_conf_v3_real1","3QECW5O0KH278FS5HID3KIOUOMN5TW","8","0","WIZARD","7","BAKER","13","0","430",,,,,"0","2018-10-22 14:05:11","287211"
"A3BSFYZJI3P2WS","cs_wg_rev_conf_v3_real1","32M8BPYGATNFFY1E42XQA8DA3EKIG9","32","0","SAUCE","8","GRENADE","5","0","474",,,,,"0","2018-10-22 14:05:11","287212"
"A14R1LITTLBHR8","cs_wg_rev_conf_v3_real1","3ERET4BTVMAR6J4UQZCSV760R5FK9W","18","0","JAGUAR","8","BASKET","3","0","895",,,,,"0","2018-10-22 14:05:12","287213"
"A2S2R828LEF0JM","cs_wg_rev_conf_v3_real1","39GHHAVOMFSVYTS0RJGPDKV7QO1J40","0","0","BANANA","11","HOCKEY","13","1","6304",,,,,"1","2018-10-22 14:05:12","287214"
"A12LI6GAHU6S2H","cs_wg_rev_conf_v3_real1","3S0TNUHWKTJJE8FATQKRRYGZNQ08DI","4","0","CHICKEN","3","THUMB","8","1","2067",,,,,"0","2018-10-22 14:05:13","287215"
"AGTIA5T9ET7AA","cs_wg_rev_conf_v3_real1","3TY7ZAOG5FL9APGHQ3TZ2W57O1M0K1","14","0","LIQUID","8","WHISKER","3","0","1651",,,,,"0","2018-10-22 14:05:13","287216"
"A1D68GESUYX17I","cs_wg_rev_conf_v3_real1","3YW4XOSQKQMNKA6BG011MOXFVKP1U1","8","0","BAKER","3","THUMB","8","1","1893",,,,,"0","2018-10-22 14:05:13","287217"
"A16LAWY44MSFDQ","cs_wg_rev_conf_v3_real1","38F71OA9GTXVXHVAEXP0KGKFJ85MFV","5","0","BUCKET","13","PELICAN","7","0","1756",,,,,"0","2018-10-22 14:05:13","287218"
"A2NDN67FSZQIVE","cs_wg_rev_conf_v3_real1","3M0NZ3JDP1Z3UR14NA2L66PB9IA5ZD","1","0","SUNBURN","8","PUMPKIN","3","1","1340",,,,,"0","2018-10-22 14:05:13","287219"
"A3BSFYZJI3P2WS","cs_wg_rev_conf_v3_real1","32M8BPYGATNFFY1E42XQA8DA3EKIG9","33","0","GRENADE","5","BICYCLE","6","1","1257",,,,,"0","2018-10-22 14:05:14","287220"
"ADJYYMK4V3YJV","cs_wg_rev_conf_v3_real1","3X4MXAO0BGPO5JUX9UVHA30PKYUWRR","25","0","GROUND","8","POTATO","7","1","1212",,,,,"0","2018-10-22 14:05:14","287221"
"A2GE0QTOZHNX1G","cs_wg_rev_conf_v3_real1","3QECW5O0KH278FS5HID3KIOUOMN5TW","9","0","BAKER","13","SAUCE","8","1","665",,,,,"0","2018-10-22 14:05:14","287222"
"A14R1LITTLBHR8","cs_wg_rev_conf_v3_real1","3ERET4BTVMAR6J4UQZCSV760R5FK9W","19","0","JAGUAR","8","BLANKET","13","0","766",,,,,"0","2018-10-22 14:05:15","287223"
"AGTIA5T9ET7AA","cs_wg_rev_conf_v3_real1","3TY7ZAOG5FL9APGHQ3TZ2W57O1M0K1","15","0","CHICKEN","13","LIQUID","8","0","707",,,,,"0","2018-10-22 14:05:15","287224"
"A6G30K3SIWKZ9","cs_wg_rev_conf_v3_real1","3300DTYQT2IUCIT6BFCBJ7JKH8MQE3","11","0","SEAGULL","8","BLANKET","3","0","2628",,,,,"0","2018-10-22 14:05:16","287225"
"A16LAWY44MSFDQ","cs_wg_rev_conf_v3_real1","38F71OA9GTXVXHVAEXP0KGKFJ85MFV","6","0","BUCKET","13","JAGUAR","8","0","1655",,,,,"0","2018-10-22 14:05:17","287226"
"ADJYYMK4V3YJV","cs_wg_rev_conf_v3_real1","3X4MXAO0BGPO5JUX9UVHA30PKYUWRR","26","0","NAPKIN","13","DONKEY","3","0","1703",,,,,"0","2018-10-22 14:05:18","287227"
"A12LI6GAHU6S2H","cs_wg_rev_conf_v3_real1","3S0TNUHWKTJJE8FATQKRRYGZNQ08DI","5","0","PELICAN","7","THUMB","8","1","2874",,,,,"0","2018-10-22 14:05:18","287228"
"A2S2R828LEF0JM","cs_wg_rev_conf_v3_real1","39GHHAVOMFSVYTS0RJGPDKV7QO1J40","1","0","BICYCLE","10","WHISKER","3","0","3100",,,,,"1","2018-10-22 14:05:18","287229"
"A2GE0QTOZHNX1G","cs_wg_rev_conf_v3_real1","3QECW5O0KH278FS5HID3KIOUOMN5TW","10","0","BAKER","13","WIZARD","7","1","1490",,,,,"0","2018-10-22 14:05:18","287230"
"AGTIA5T9ET7AA","cs_wg_rev_conf_v3_real1","3TY7ZAOG5FL9APGHQ3TZ2W57O1M0K1","16","0","CHICKEN","13","LIQUID","8","0","779",,,,,"0","2018-10-22 14:05:18","287231"
"A6G30K3SIWKZ9","cs_wg_rev_conf_v3_real1","3300DTYQT2IUCIT6BFCBJ7JKH8MQE3","12","0","SEAGULL","8","BANANA","7","0","729",,,,,"0","2018-10-22 14:05:18","287232"
"A14R1LITTLBHR8","cs_wg_rev_conf_v3_real1","3ERET4BTVMAR6J4UQZCSV760R5FK9W","20","0","BLANKET","13","BASKET","3","0","684",,,,,"0","2018-10-22 14:05:18","287233"
"A1D68GESUYX17I","cs_wg_rev_conf_v3_real1","3YW4XOSQKQMNKA6BG011MOXFVKP1U1","9","0","TOMATO","7","THUMB","8","1","3999",,,,,"0","2018-10-22 14:05:18","287234"
"A3BSFYZJI3P2WS","cs_wg_rev_conf_v3_real1","32M8BPYGATNFFY1E42XQA8DA3EKIG9","34","0","POTATO","7","CRICKET","13","1","2028",,,,,"0","2018-10-22 14:05:19","287235"
"A2NDN67FSZQIVE","cs_wg_rev_conf_v3_real1","3M0NZ3JDP1Z3UR14NA2L66PB9IA5ZD","2","0","PUMPKIN","3","MARKET","13","1","2094",,,,,"0","2018-10-22 14:05:19","287236"
"A12LI6GAHU6S2H","cs_wg_rev_conf_v3_real1","3S0TNUHWKTJJE8FATQKRRYGZNQ08DI","6","0","CHICKEN","3","MONKEY","13","1","1110",,,,,"0","2018-10-22 14:05:21","287237"
"A3BSFYZJI3P2WS","cs_wg_rev_conf_v3_real1","32M8BPYGATNFFY1E42XQA8DA3EKIG9","35","0","GRENADE","5","WIZARD","10","1","506",,,,,"0","2018-10-22 14:05:21","287238"
"AGTIA5T9ET7AA","cs_wg_rev_conf_v3_real1","3TY7ZAOG5FL9APGHQ3TZ2W57O1M0K1","17","0","CHICKEN","13","BANANA","7","0","707",,,,,"0","2018-10-22 14:05:21","287239"
"A6G30K3SIWKZ9","cs_wg_rev_conf_v3_real1","3300DTYQT2IUCIT6BFCBJ7JKH8MQE3","13","0","NAPKIN","13","BANANA","7","0","475",,,,,"0","2018-10-22 14:05:21","287240"
"ADJYYMK4V3YJV","cs_wg_rev_conf_v3_real1","3X4MXAO0BGPO5JUX9UVHA30PKYUWRR","27","0","POTATO","7","NAPKIN","13","0","1141",,,,,"0","2018-10-22 14:05:21","287241"
"A3CXJ18H14DXBN","cs_wg_rev_conf_v3_real1","3DY46V3X3PJ5NDHFGMV5H2IG8J2556","2","0","GRENADE","7","BASKET","13","1","4817",,,,,"1","2018-10-22 14:05:21","287242"
"A14R1LITTLBHR8","cs_wg_rev_conf_v3_real1","3ERET4BTVMAR6J4UQZCSV760R5FK9W","21","0","BLANKET","13","GRENADE","7","0","753",,,,,"0","2018-10-22 14:05:21","287243"
"A2V98P6N59LY9M","cs_wg_rev_conf_v3_real1","3L6L49WXW0YNRUDF2HCVCAC28N6540","25","0","PENGUIN","8","GRENADE","7","0","6884",,,,,"0","2018-10-22 14:05:22","287244"
"A2GE0QTOZHNX1G","cs_wg_rev_conf_v3_real1","3QECW5O0KH278FS5HID3KIOUOMN5TW","11","0","SAUCE","8","WIZARD","7","0","404",,,,,"0","2018-10-22 14:05:22","287245"
"A3BSFYZJI3P2WS","cs_wg_rev_conf_v3_real1","32M8BPYGATNFFY1E42XQA8DA3EKIG9","36","0","BICYCLE","6","VOLCANO","9","1","405",,,,,"0","2018-10-22 14:05:23","287246"
"A2S2R828LEF0JM","cs_wg_rev_conf_v3_real1","39GHHAVOMFSVYTS0RJGPDKV7QO1J40","2","0","BICYCLE","10","SAUCE","8","0","2709",,,,,"1","2018-10-22 14:05:23","287247"
"A10JXOU89D5RXR","cs_wg_rev_conf_v3_real1","3UNH76FOCS61X8C5JNHO91RVPJVYM4","2","0","BAKER","3","PALACE","7","1","11097",,,,,"1","2018-10-22 14:05:23","287248"
"A6G30K3SIWKZ9","cs_wg_rev_conf_v3_real1","3300DTYQT2IUCIT6BFCBJ7JKH8MQE3","14","0","BLANKET","3","NAPKIN","13","1","775",,,,,"0","2018-10-22 14:05:24","287249"
"A12LI6GAHU6S2H","cs_wg_rev_conf_v3_real1","3S0TNUHWKTJJE8FATQKRRYGZNQ08DI","7","0","PELICAN","7","MONKEY","13","1","1370",,,,,"0","2018-10-22 14:05:24","287250"
"A2NDN67FSZQIVE","cs_wg_rev_conf_v3_real1","3M0NZ3JDP1Z3UR14NA2L66PB9IA5ZD","3","0","SUNBURN","8","MARKET","13","0","2047",,,,,"0","2018-10-22 14:05:24","287251"
"A3BSFYZJI3P2WS","cs_wg_rev_conf_v3_real1","32M8BPYGATNFFY1E42XQA8DA3EKIG9","37","0","HOCKEY","3","PALACE","15","1","261",,,,,"0","2018-10-22 14:05:24","287252"
"A14R1LITTLBHR8","cs_wg_rev_conf_v3_real1","3ERET4BTVMAR6J4UQZCSV760R5FK9W","22","0","BLANKET","13","JAGUAR","8","0","571",,,,,"0","2018-10-22 14:05:24","287253"
"A2GE0QTOZHNX1G","cs_wg_rev_conf_v3_real1","3QECW5O0KH278FS5HID3KIOUOMN5TW","12","0","SAUCE","8","BAKER","13","0","260",,,,,"0","2018-10-22 14:05:25","287254"
"ADJYYMK4V3YJV","cs_wg_rev_conf_v3_real1","3X4MXAO0BGPO5JUX9UVHA30PKYUWRR","28","0","DONKEY","3","POTATO","7","1","1507",,,,,"0","2018-10-22 14:05:25","287255"
"A2V98P6N59LY9M","cs_wg_rev_conf_v3_real1","3L6L49WXW0YNRUDF2HCVCAC28N6540","26","0","COOKIE","13","GRENADE","7","0","985",,,,,"0","2018-10-22 14:05:25","287256"
"AGTIA5T9ET7AA","cs_wg_rev_conf_v3_real1","3TY7ZAOG5FL9APGHQ3TZ2W57O1M0K1","18","0","WHISKER","3","BANANA","7","1","2196",,,,,"0","2018-10-22 14:05:25","287257"
"A3BSFYZJI3P2WS","cs_wg_rev_conf_v3_real1","32M8BPYGATNFFY1E42XQA8DA3EKIG9","38","0","HOCKEY","3","WIZARD","10","1","240",,,,,"0","2018-10-22 14:05:26","287258"
"A6G30K3SIWKZ9","cs_wg_rev_conf_v3_real1","3300DTYQT2IUCIT6BFCBJ7JKH8MQE3","15","0","NAPKIN","13","SEAGULL","8","0","1081",,,,,"0","2018-10-22 14:05:27","287259"
"A12LI6GAHU6S2H","cs_wg_rev_conf_v3_real1","3S0TNUHWKTJJE8FATQKRRYGZNQ08DI","8","0","CHICKEN","3","MONKEY","13","1","1088",,,,,"0","2018-10-22 14:05:27","287260"
"A2GE0QTOZHNX1G","cs_wg_rev_conf_v3_real1","3QECW5O0KH278FS5HID3KIOUOMN5TW","13","0","SAUCE","8","WIZARD","7","1","370",,,,,"0","2018-10-22 14:05:27","287261"
"A2S2R828LEF0JM","cs_wg_rev_conf_v3_real1","39GHHAVOMFSVYTS0RJGPDKV7QO1J40","3","0","PALACE","9","COWBOY","5","0","936",,,,,"0","2018-10-22 14:05:27","287262"
"A3BSFYZJI3P2WS","cs_wg_rev_conf_v3_real1","32M8BPYGATNFFY1E42XQA8DA3EKIG9","39","0","BICYCLE","6","WIZARD","10","1","213",,,,,"0","2018-10-22 14:05:27","287263"
"A3GCYGO7UPKXO9","cs_wg_rev_conf_v3_real1","3I33IC7ZWF3AUMA9TZKOR6VQGNBA2F","0","0","SAUCE","8","LIZARD","9","1","9557",,,,,"0","2018-10-22 14:05:28","287264"
"ADJYYMK4V3YJV","cs_wg_rev_conf_v3_real1","3X4MXAO0BGPO5JUX9UVHA30PKYUWRR","29","0","DONKEY","3","GROUND","8","0","1186",,,,,"0","2018-10-22 14:05:28","287265"
"A14R1LITTLBHR8","cs_wg_rev_conf_v3_real1","3ERET4BTVMAR6J4UQZCSV760R5FK9W","23","0","BLANKET","13","GRENADE","7","0","789",,,,,"0","2018-10-22 14:05:28","287266"
"A2V98P6N59LY9M","cs_wg_rev_conf_v3_real1","3L6L49WXW0YNRUDF2HCVCAC28N6540","27","0","GRENADE","7","MONKEY","3","0","1556",,,,,"0","2018-10-22 14:05:28","287267"
"A16LAWY44MSFDQ","cs_wg_rev_conf_v3_real1","38F71OA9GTXVXHVAEXP0KGKFJ85MFV","7","0","PELICAN","7","BUCKET","13","1","9622",,,,,"0","2018-10-22 14:05:29","287268"
"AGTIA5T9ET7AA","cs_wg_rev_conf_v3_real1","3TY7ZAOG5FL9APGHQ3TZ2W57O1M0K1","19","0","LIQUID","8","CHICKEN","13","1","1565",,,,,"0","2018-10-22 14:05:29","287269"
"A3BSFYZJI3P2WS","cs_wg_rev_conf_v3_real1","32M8BPYGATNFFY1E42XQA8DA3EKIG9","40","0","CRICKET","13","PALACE","15","1","251",,,,,"0","2018-10-22 14:05:29","287270"
"A2NDN67FSZQIVE","cs_wg_rev_conf_v3_real1","3M0NZ3JDP1Z3UR14NA2L66PB9IA5ZD","4","0","MARKET","13","PUMPKIN","3","0","2441",,,,,"0","2018-10-22 14:05:29","287271"
"A12LI6GAHU6S2H","cs_wg_rev_conf_v3_real1","3S0TNUHWKTJJE8FATQKRRYGZNQ08DI","9","0","MONKEY","13","THUMB","8","0","1121",,,,,"0","2018-10-22 14:05:30","287272"
"A6G30K3SIWKZ9","cs_wg_rev_conf_v3_real1","3300DTYQT2IUCIT6BFCBJ7JKH8MQE3","16","0","BLANKET","3","BANANA","7","1","1843",,,,,"0","2018-10-22 14:05:31","287273"
"ADJYYMK4V3YJV","cs_wg_rev_conf_v3_real1","3X4MXAO0BGPO5JUX9UVHA30PKYUWRR","30","0","NAPKIN","13","POTATO","7","0","1293",,,,,"0","2018-10-22 14:05:31","287274"
"A14R1LITTLBHR8","cs_wg_rev_conf_v3_real1","3ERET4BTVMAR6J4UQZCSV760R5FK9W","24","0","GRENADE","7","BASKET","3","0","671",,,,,"0","2018-10-22 14:05:31","287275"
"A3BSFYZJI3P2WS","cs_wg_rev_conf_v3_real1","32M8BPYGATNFFY1E42XQA8DA3EKIG9","41","0","BANANA","11","CRICKET","13","1","597",,,,,"0","2018-10-22 14:05:31","287276"
"A2S2R828LEF0JM","cs_wg_rev_conf_v3_real1","39GHHAVOMFSVYTS0RJGPDKV7QO1J40","4","0","ACROBAT","6","AVOCADO","1","0","2144",,,,,"1","2018-10-22 14:05:32","287277"
"AGTIA5T9ET7AA","cs_wg_rev_conf_v3_real1","3TY7ZAOG5FL9APGHQ3TZ2W57O1M0K1","20","0","BANANA","7","WHISKER","3","0","1108",,,,,"0","2018-10-22 14:05:32","287278"
"A3GCYGO7UPKXO9","cs_wg_rev_conf_v3_real1","3I33IC7ZWF3AUMA9TZKOR6VQGNBA2F","1","0","LIZARD","9","WIZARD","6","1","2726",,,,,"0","2018-10-22 14:05:33","287279"
"A12LI6GAHU6S2H","cs_wg_rev_conf_v3_real1","3S0TNUHWKTJJE8FATQKRRYGZNQ08DI","10","0","THUMB","8","PELICAN","7","0","1196",,,,,"0","2018-10-22 14:05:33","287280"
"A2GE0QTOZHNX1G","cs_wg_rev_conf_v3_real1","3QECW5O0KH278FS5HID3KIOUOMN5TW","14","0","MONKEY","3","WIZARD","7","1","4215",,,,,"0","2018-10-22 14:05:33","287281"
"A16LAWY44MSFDQ","cs_wg_rev_conf_v3_real1","38F71OA9GTXVXHVAEXP0KGKFJ85MFV","8","0","CRICKET","3","JAGUAR","8","1","2464",,,,,"0","2018-10-22 14:05:33","287282"
"A2V98P6N59LY9M","cs_wg_rev_conf_v3_real1","3L6L49WXW0YNRUDF2HCVCAC28N6540","28","0","PENGUIN","8","COOKIE","13","1","2155",,,,,"0","2018-10-22 14:05:33","287283"
"A2NDN67FSZQIVE","cs_wg_rev_conf_v3_real1","3M0NZ3JDP1Z3UR14NA2L66PB9IA5ZD","5","0","PUMPKIN","3","AVOCADO","7","1","1696",,,,,"0","2018-10-22 14:05:33","287284"
"A14R1LITTLBHR8","cs_wg_rev_conf_v3_real1","3ERET4BTVMAR6J4UQZCSV760R5FK9W","25","0","JAGUAR","8","GRENADE","7","0","346",,,,,"0","2018-10-22 14:05:34","287285"
"A6G30K3SIWKZ9","cs_wg_rev_conf_v3_real1","3300DTYQT2IUCIT6BFCBJ7JKH8MQE3","17","0","BLANKET","3","NAPKIN","13","1","1509",,,,,"0","2018-10-22 14:05:34","287286"
"A10JXOU89D5RXR","cs_wg_rev_conf_v3_real1","3UNH76FOCS61X8C5JNHO91RVPJVYM4","3","0","PALACE","7","MARKET","13","1","7114",,,,,"1","2018-10-22 14:05:34","287287"
"A3BSFYZJI3P2WS","cs_wg_rev_conf_v3_real1","32M8BPYGATNFFY1E42XQA8DA3EKIG9","42","0","BANANA","11","SAUCE","8","1","460",,,,,"0","2018-10-22 14:05:35","287288"
"A2GE0QTOZHNX1G","cs_wg_rev_conf_v3_real1","3QECW5O0KH278FS5HID3KIOUOMN5TW","15","0","WIZARD","7","SAUCE","8","0","484",,,,,"0","2018-10-22 14:05:35","287289"
"A3CXJ18H14DXBN","cs_wg_rev_conf_v3_real1","3DY46V3X3PJ5NDHFGMV5H2IG8J2556","3","0","GRENADE","7","BASKET","13","1","2967",,,,,"1","2018-10-22 14:05:35","287290"
"A3CXJ18H14DXBN","cs_wg_rev_conf_v3_real1","3DY46V3X3PJ5NDHFGMV5H2IG8J2556","4","0","GRENADE","7","BAKER","3","0","2767",,,,,"1","2018-10-22 14:05:35","287291"
"A12LI6GAHU6S2H","cs_wg_rev_conf_v3_real1","3S0TNUHWKTJJE8FATQKRRYGZNQ08DI","11","0","MONKEY","13","PELICAN","7","0","852",,,,,"0","2018-10-22 14:05:35","287292"
"A3CXJ18H14DXBN","cs_wg_rev_conf_v3_real1","3DY46V3X3PJ5NDHFGMV5H2IG8J2556","5","0","BASKET","13","GRENADE","7","0","2214",,,,,"1","2018-10-22 14:05:35","287293"
"A2V98P6N59LY9M","cs_wg_rev_conf_v3_real1","3L6L49WXW0YNRUDF2HCVCAC28N6540","29","0","COOKIE","13","GRENADE","7","0","637",,,,,"0","2018-10-22 14:05:35","287294"
"A21EIC343LEXM1","cs_wg_rev_conf_v3_real1","3M1CVSFP606RM5CUVAAPNOTTWTOQA8","0","0","SUNBURN","8","ACROBAT","6","0","9718",,,,,"1","2018-10-22 14:05:36","287295"
"ADJYYMK4V3YJV","cs_wg_rev_conf_v3_real1","3X4MXAO0BGPO5JUX9UVHA30PKYUWRR","31","0","GROUND","8","DONKEY","3","0","2905",,,,,"0","2018-10-22 14:05:36","287296"
"A2NDN67FSZQIVE","cs_wg_rev_conf_v3_real1","3M0NZ3JDP1Z3UR14NA2L66PB9IA5ZD","6","0","MARKET","13","AVOCADO","7","0","803",,,,,"0","2018-10-22 14:05:36","287297"
"AGTIA5T9ET7AA","cs_wg_rev_conf_v3_real1","3TY7ZAOG5FL9APGHQ3TZ2W57O1M0K1","21","0","WHISKER","3","LIQUID","8","1","2615",,,,,"0","2018-10-22 14:05:36","287298"
"A3BSFYZJI3P2WS","cs_wg_rev_conf_v3_real1","32M8BPYGATNFFY1E42XQA8DA3EKIG9","43","0","PALACE","15","BICYCLE","6","0","75",,,,,"0","2018-10-22 14:05:37","287299"
"A2GE0QTOZHNX1G","cs_wg_rev_conf_v3_real1","3QECW5O0KH278FS5HID3KIOUOMN5TW","16","0","SAUCE","8","MONKEY","3","0","298",,,,,"0","2018-10-22 14:05:37","287300"
"A14R1LITTLBHR8","cs_wg_rev_conf_v3_real1","3ERET4BTVMAR6J4UQZCSV760R5FK9W","26","0","BASKET","3","GRENADE","7","0","544",,,,,"0","2018-10-22 14:05:37","287301"
"A3CXJ18H14DXBN","cs_wg_rev_conf_v3_real1","3DY46V3X3PJ5NDHFGMV5H2IG8J2556","6","0","GRENADE","7","SCUBA","8","1","3468",,,,,"1","2018-10-22 14:05:37","287302"
"A6G30K3SIWKZ9","cs_wg_rev_conf_v3_real1","3300DTYQT2IUCIT6BFCBJ7JKH8MQE3","18","0","SEAGULL","8","BANANA","7","0","1106",,,,,"0","2018-10-22 14:05:37","287303"
"A16LAWY44MSFDQ","cs_wg_rev_conf_v3_real1","38F71OA9GTXVXHVAEXP0KGKFJ85MFV","9","0","JAGUAR","8","BUCKET","13","1","2381",,,,,"0","2018-10-22 14:05:38","287304"
"A3GCYGO7UPKXO9","cs_wg_rev_conf_v3_real1","3I33IC7ZWF3AUMA9TZKOR6VQGNBA2F","2","0","SAUCE","8","AVOCADO","1","1","3308",,,,,"0","2018-10-22 14:05:38","287305"
"A3BSFYZJI3P2WS","cs_wg_rev_conf_v3_real1","32M8BPYGATNFFY1E42XQA8DA3EKIG9","44","0","GRENADE","5","HOCKEY","3","0","239",,,,,"0","2018-10-22 14:05:38","287306"
"A12LI6GAHU6S2H","cs_wg_rev_conf_v3_real1","3S0TNUHWKTJJE8FATQKRRYGZNQ08DI","12","0","THUMB","8","CHICKEN","3","0","1476",,,,,"0","2018-10-22 14:05:38","287307"
"ADJYYMK4V3YJV","cs_wg_rev_conf_v3_real1","3X4MXAO0BGPO5JUX9UVHA30PKYUWRR","32","0","GROUND","8","NAPKIN","13","0","772",,,,,"0","2018-10-22 14:05:39","287308"
"A2V98P6N59LY9M","cs_wg_rev_conf_v3_real1","3L6L49WXW0YNRUDF2HCVCAC28N6540","30","0","MONKEY","3","GRENADE","7","1","2613",,,,,"0","2018-10-22 14:05:39","287309"
"A14R1LITTLBHR8","cs_wg_rev_conf_v3_real1","3ERET4BTVMAR6J4UQZCSV760R5FK9W","27","0","GRENADE","7","BASKET","3","0","483",,,,,"0","2018-10-22 14:05:40","287310"
"A3BSFYZJI3P2WS","cs_wg_rev_conf_v3_real1","32M8BPYGATNFFY1E42XQA8DA3EKIG9","45","0","BANANA","11","WIZARD","10","1","168",,,,,"0","2018-10-22 14:05:40","287311"
"A2GE0QTOZHNX1G","cs_wg_rev_conf_v3_real1","3QECW5O0KH278FS5HID3KIOUOMN5TW","17","0","WIZARD","7","BAKER","13","0","318",,,,,"0","2018-10-22 14:05:40","287312"
"A6G30K3SIWKZ9","cs_wg_rev_conf_v3_real1","3300DTYQT2IUCIT6BFCBJ7JKH8MQE3","19","0","BANANA","7","BLANKET","3","0","1623",,,,,"0","2018-10-22 14:05:41","287313"
"A2NDN67FSZQIVE","cs_wg_rev_conf_v3_real1","3M0NZ3JDP1Z3UR14NA2L66PB9IA5ZD","7","0","AVOCADO","7","PUMPKIN","3","1","2046",,,,,"0","2018-10-22 14:05:41","287314"
"A2S2R828LEF0JM","cs_wg_rev_conf_v3_real1","39GHHAVOMFSVYTS0RJGPDKV7QO1J40","5","0","PALACE","9","BICYCLE","10","1","6689",,,,,"1","2018-10-22 14:05:41","287315"
"A2V98P6N59LY9M","cs_wg_rev_conf_v3_real1","3L6L49WXW0YNRUDF2HCVCAC28N6540","31","0","COOKIE","13","PENGUIN","8","0","923",,,,,"0","2018-10-22 14:05:42","287316"
"A3CXJ18H14DXBN","cs_wg_rev_conf_v3_real1","3DY46V3X3PJ5NDHFGMV5H2IG8J2556","7","0","BAKER","3","BASKET","13","1","2669",,,,,"1","2018-10-22 14:05:42","287317"
"A16LAWY44MSFDQ","cs_wg_rev_conf_v3_real1","38F71OA9GTXVXHVAEXP0KGKFJ85MFV","10","0","CRICKET","3","BUCKET","13","1","2046",,,,,"0","2018-10-22 14:05:42","287318"
"A3BSFYZJI3P2WS","cs_wg_rev_conf_v3_real1","32M8BPYGATNFFY1E42XQA8DA3EKIG9","46","0","GRENADE","5","POTATO","7","1","368",,,,,"0","2018-10-22 14:05:42","287319"
"ADJYYMK4V3YJV","cs_wg_rev_conf_v3_real1","3X4MXAO0BGPO5JUX9UVHA30PKYUWRR","33","0","NAPKIN","13","DONKEY","3","1","1288",,,,,"0","2018-10-22 14:05:42","287320"
"A12LI6GAHU6S2H","cs_wg_rev_conf_v3_real1","3S0TNUHWKTJJE8FATQKRRYGZNQ08DI","13","0","PELICAN","7","CHICKEN","3","0","1991",,,,,"0","2018-10-22 14:05:42","287321"
"A14R1LITTLBHR8","cs_wg_rev_conf_v3_real1","3ERET4BTVMAR6J4UQZCSV760R5FK9W","28","0","JAGUAR","8","BLANKET","13","0","494",,,,,"0","2018-10-22 14:05:43","287322"
"A2GE0QTOZHNX1G","cs_wg_rev_conf_v3_real1","3QECW5O0KH278FS5HID3KIOUOMN5TW","18","0","MONKEY","3","SAUCE","8","1","1377",,,,,"0","2018-10-22 14:05:43","287323"
"A3GCYGO7UPKXO9","cs_wg_rev_conf_v3_real1","3I33IC7ZWF3AUMA9TZKOR6VQGNBA2F","3","0","WHISKER","13","WIZARD","6","1","3298",,,,,"0","2018-10-22 14:05:44","287324"
"A2V98P6N59LY9M","cs_wg_rev_conf_v3_real1","3L6L49WXW0YNRUDF2HCVCAC28N6540","32","0","PENGUIN","8","COOKIE","13","1","557",,,,,"0","2018-10-22 14:05:44","287325"
"A6G30K3SIWKZ9","cs_wg_rev_conf_v3_real1","3300DTYQT2IUCIT6BFCBJ7JKH8MQE3","20","0","BLANKET","3","NAPKIN","13","1","1108",,,,,"0","2018-10-22 14:05:44","287326"
"AGTIA5T9ET7AA","cs_wg_rev_conf_v3_real1","3TY7ZAOG5FL9APGHQ3TZ2W57O1M0K1","23","0","BANANA","7","CHICKEN","13","1","1368",,,,,"0","2018-10-22 14:05:44","287327"
"A10JXOU89D5RXR","cs_wg_rev_conf_v3_real1","3UNH76FOCS61X8C5JNHO91RVPJVYM4","4","0","MARKET","13","PALACE","7","0","5706",,,,,"1","2018-10-22 14:05:44","287328"
"A3BSFYZJI3P2WS","cs_wg_rev_conf_v3_real1","32M8BPYGATNFFY1E42XQA8DA3EKIG9","47","0","CRICKET","13","WIZARD","10","1","489",,,,,"0","2018-10-22 14:05:44","287329"
"A2NDN67FSZQIVE","cs_wg_rev_conf_v3_real1","3M0NZ3JDP1Z3UR14NA2L66PB9IA5ZD","8","0","MARKET","13","PUMPKIN","3","0","1653",,,,,"0","2018-10-22 14:05:44","287330"
"ADJYYMK4V3YJV","cs_wg_rev_conf_v3_real1","3X4MXAO0BGPO5JUX9UVHA30PKYUWRR","34","0","DONKEY","3","NAPKIN","13","1","1314",,,,,"0","2018-10-22 14:05:46","287331"
"A16LAWY44MSFDQ","cs_wg_rev_conf_v3_real1","38F71OA9GTXVXHVAEXP0KGKFJ85MFV","11","0","BUCKET","13","JAGUAR","8","0","1856",,,,,"0","2018-10-22 14:05:46","287332"
"A14R1LITTLBHR8","cs_wg_rev_conf_v3_real1","3ERET4BTVMAR6J4UQZCSV760R5FK9W","29","0","GRENADE","7","BLANKET","13","0","970",,,,,"0","2018-10-22 14:05:46","287333"
"A3BSFYZJI3P2WS","cs_wg_rev_conf_v3_real1","32M8BPYGATNFFY1E42XQA8DA3EKIG9","48","0","PALACE","15","GRENADE","5","1","237",,,,,"0","2018-10-22 14:05:46","287334"
"A2V98P6N59LY9M","cs_wg_rev_conf_v3_real1","3L6L49WXW0YNRUDF2HCVCAC28N6540","33","0","PENGUIN","8","MONKEY","3","0","1257",,,,,"0","2018-10-22 14:05:46","287335"
"A12LI6GAHU6S2H","cs_wg_rev_conf_v3_real1","3S0TNUHWKTJJE8FATQKRRYGZNQ08DI","14","0","THUMB","8","PELICAN","7","0","2640",,,,,"0","2018-10-22 14:05:46","287336"
"AGTIA5T9ET7AA","cs_wg_rev_conf_v3_real1","3TY7ZAOG5FL9APGHQ3TZ2W57O1M0K1","24","0","WHISKER","3","CHICKEN","13","1","1035",,,,,"0","2018-10-22 14:05:46","287337"
"A3CXJ18H14DXBN","cs_wg_rev_conf_v3_real1","3DY46V3X3PJ5NDHFGMV5H2IG8J2556","8","0","SCUBA","8","GRENADE","7","0","3091",,,,,"1","2018-10-22 14:05:47","287338"
"A2S2R828LEF0JM","cs_wg_rev_conf_v3_real1","39GHHAVOMFSVYTS0RJGPDKV7QO1J40","6","0","AIRBAG","15","SAUCE","8","0","3667",,,,,"1","2018-10-22 14:05:47","287339"
"A2NDN67FSZQIVE","cs_wg_rev_conf_v3_real1","3M0NZ3JDP1Z3UR14NA2L66PB9IA5ZD","9","0","PUMPKIN","3","MARKET","13","1","1339",,,,,"0","2018-10-22 14:05:48","287340"
"A3GCYGO7UPKXO9","cs_wg_rev_conf_v3_real1","3I33IC7ZWF3AUMA9TZKOR6VQGNBA2F","4","0","WHISKER","13","SAUCE","8","0","2184",,,,,"0","2018-10-22 14:05:48","287341"
"A2V98P6N59LY9M","cs_wg_rev_conf_v3_real1","3L6L49WXW0YNRUDF2HCVCAC28N6540","34","0","PENGUIN","8","MONKEY","3","0","753",,,,,"0","2018-10-22 14:05:49","287342"
"A6G30K3SIWKZ9","cs_wg_rev_conf_v3_real1","3300DTYQT2IUCIT6BFCBJ7JKH8MQE3","21","0","BLANKET","3","BANANA","7","1","3195",,,,,"0","2018-10-22 14:05:49","287343"
"ADJYYMK4V3YJV","cs_wg_rev_conf_v3_real1","3X4MXAO0BGPO5JUX9UVHA30PKYUWRR","35","0","GROUND","8","NAPKIN","13","1","1115",,,,,"0","2018-10-22 14:05:49","287344"
"A3BSFYZJI3P2WS","cs_wg_rev_conf_v3_real1","32M8BPYGATNFFY1E42XQA8DA3EKIG9","49","0","VOLCANO","9","CRICKET","13","1","1032",,,,,"0","2018-10-22 14:05:49","287345"
"A21EIC343LEXM1","cs_wg_rev_conf_v3_real1","3M1CVSFP606RM5CUVAAPNOTTWTOQA8","1","0","BICYCLE","15","LIZARD","9","1","11430",,,,,"1","2018-10-22 14:05:49","287346"
"A12LI6GAHU6S2H","cs_wg_rev_conf_v3_real1","3S0TNUHWKTJJE8FATQKRRYGZNQ08DI","15","0","THUMB","8","MONKEY","13","1","1316",,,,,"0","2018-10-22 14:05:50","287347"
"AGTIA5T9ET7AA","cs_wg_rev_conf_v3_real1","3TY7ZAOG5FL9APGHQ3TZ2W57O1M0K1","25","0","WHISKER","3","LIQUID","8","1","1521",,,,,"0","2018-10-22 14:05:50","287348"
"A2GE0QTOZHNX1G","cs_wg_rev_conf_v3_real1","3QECW5O0KH278FS5HID3KIOUOMN5TW","19","0","WIZARD","7","SAUCE","8","0","4355",,,,,"0","2018-10-22 14:05:50","287349"
"A16LAWY44MSFDQ","cs_wg_rev_conf_v3_real1","38F71OA9GTXVXHVAEXP0KGKFJ85MFV","12","0","JAGUAR","8","PELICAN","7","0","2306",,,,,"0","2018-10-22 14:05:50","287350"
"A14R1LITTLBHR8","cs_wg_rev_conf_v3_real1","3ERET4BTVMAR6J4UQZCSV760R5FK9W","30","0","BASKET","3","JAGUAR","8","1","2070",,,,,"0","2018-10-22 14:05:51","287351"
"A2NDN67FSZQIVE","cs_wg_rev_conf_v3_real1","3M0NZ3JDP1Z3UR14NA2L66PB9IA5ZD","10","0","MARKET","13","SUNBURN","8","0","1170",,,,,"0","2018-10-22 14:05:51","287352"
"A3BSFYZJI3P2WS","cs_wg_rev_conf_v3_real1","32M8BPYGATNFFY1E42XQA8DA3EKIG9","50","0","WIZARD","10","BANANA","11","1","843",,,,,"0","2018-10-22 14:05:51","287353"
"A3CXJ18H14DXBN","cs_wg_rev_conf_v3_real1","3DY46V3X3PJ5NDHFGMV5H2IG8J2556","9","0","BAKER","3","GRENADE","7","1","2934",,,,,"1","2018-10-22 14:05:52","287354"
"A6G30K3SIWKZ9","cs_wg_rev_conf_v3_real1","3300DTYQT2IUCIT6BFCBJ7JKH8MQE3","22","0","BANANA","7","BLANKET","3","0","1229",,,,,"0","2018-10-22 14:05:52","287355"
"A12LI6GAHU6S2H","cs_wg_rev_conf_v3_real1","3S0TNUHWKTJJE8FATQKRRYGZNQ08DI","16","0","THUMB","8","MONKEY","13","1","918",,,,,"0","2018-10-22 14:05:52","287356"
"AGTIA5T9ET7AA","cs_wg_rev_conf_v3_real1","3TY7ZAOG5FL9APGHQ3TZ2W57O1M0K1","26","0","LIQUID","8","CHICKEN","13","1","971",,,,,"0","2018-10-22 14:05:52","287357"
"A2S2R828LEF0JM","cs_wg_rev_conf_v3_real1","39GHHAVOMFSVYTS0RJGPDKV7QO1J40","7","0","HOCKEY","13","ACROBAT","6","0","2907",,,,,"1","2018-10-22 14:05:52","287358"
"A2V98P6N59LY9M","cs_wg_rev_conf_v3_real1","3L6L49WXW0YNRUDF2HCVCAC28N6540","35","0","MONKEY","3","GRENADE","7","1","2586",,,,,"0","2018-10-22 14:05:53","287359"
"A14R1LITTLBHR8","cs_wg_rev_conf_v3_real1","3ERET4BTVMAR6J4UQZCSV760R5FK9W","31","0","GRENADE","7","JAGUAR","8","1","388",,,,,"0","2018-10-22 14:05:53","287360"
"A3BSFYZJI3P2WS","cs_wg_rev_conf_v3_real1","32M8BPYGATNFFY1E42XQA8DA3EKIG9","51","0","BICYCLE","6","HOCKEY","3","0","342",,,,,"0","2018-10-22 14:05:53","287361"
"AJW15EZADTNAF","cs_wg_rev_conf_v3_real1","3YWRV122CS05VAQWFLAG1YKN9QVU8E","0","0","TOMATO","11","LIZARD","9","0","10680",,,,,"1","2018-10-22 14:05:54","287362"
"A10JXOU89D5RXR","cs_wg_rev_conf_v3_real1","3UNH76FOCS61X8C5JNHO91RVPJVYM4","5","0","PALACE","7","SAUCE","8","1","6588",,,,,"1","2018-10-22 14:05:54","287363"
"A2NDN67FSZQIVE","cs_wg_rev_conf_v3_real1","3M0NZ3JDP1Z3UR14NA2L66PB9IA5ZD","11","0","AVOCADO","7","PUMPKIN","3","0","1523",,,,,"0","2018-10-22 14:05:55","287364"
"A12LI6GAHU6S2H","cs_wg_rev_conf_v3_real1","3S0TNUHWKTJJE8FATQKRRYGZNQ08DI","17","0","PELICAN","7","THUMB","8","1","1162",,,,,"0","2018-10-22 14:05:55","287365"
"A3GCYGO7UPKXO9","cs_wg_rev_conf_v3_real1","3I33IC7ZWF3AUMA9TZKOR6VQGNBA2F","5","0","PALACE","11","SAUCE","8","0","3110",,,,,"0","2018-10-22 14:05:55","287366"
"A2GE0QTOZHNX1G","cs_wg_rev_conf_v3_real1","3QECW5O0KH278FS5HID3KIOUOMN5TW","20","0","MONKEY","3","WIZARD","7","0","479",,,,,"0","2018-10-22 14:05:56","287367"
"AGTIA5T9ET7AA","cs_wg_rev_conf_v3_real1","3TY7ZAOG5FL9APGHQ3TZ2W57O1M0K1","27","0","BANANA","7","LIQUID","8","0","1551",,,,,"0","2018-10-22 14:05:56","287368"
"A3BSFYZJI3P2WS","cs_wg_rev_conf_v3_real1","32M8BPYGATNFFY1E42XQA8DA3EKIG9","52","0","HOCKEY","3","POTATO","7","0","974",,,,,"0","2018-10-22 14:05:56","287369"
"A2S2R828LEF0JM","cs_wg_rev_conf_v3_real1","39GHHAVOMFSVYTS0RJGPDKV7QO1J40","8","0","AIRBAG","15","BANANA","11","0","1966",,,,,"1","2018-10-22 14:05:57","287370"
"A16LAWY44MSFDQ","cs_wg_rev_conf_v3_real1","38F71OA9GTXVXHVAEXP0KGKFJ85MFV","13","0","CRICKET","3","PELICAN","7","1","1805",,,,,"0","2018-10-22 14:05:57","287371"
"A14R1LITTLBHR8","cs_wg_rev_conf_v3_real1","3ERET4BTVMAR6J4UQZCSV760R5FK9W","32","0","BLANKET","13","GRENADE","7","1","602",,,,,"0","2018-10-22 14:05:57","287372"
"A6G30K3SIWKZ9","cs_wg_rev_conf_v3_real1","3300DTYQT2IUCIT6BFCBJ7JKH8MQE3","23","0","BLANKET","3","SEAGULL","8","1","2697",,,,,"0","2018-10-22 14:05:57","287373"
"APEL59XES65M6","cs_wg_rev_conf_v3_real1","3NVC2EB65Q00BM4VD5C9D2IPPSDY3N","0","0","AIRBAG","11","BANANA","15","1","8000",,,,,"0","2018-10-22 14:05:57","287374"
"A12LI6GAHU6S2H","cs_wg_rev_conf_v3_real1","3S0TNUHWKTJJE8FATQKRRYGZNQ08DI","18","0","THUMB","8","CHICKEN","3","0","1188",,,,,"0","2018-10-22 14:05:58","287375"
"A3CXJ18H14DXBN","cs_wg_rev_conf_v3_real1","3DY46V3X3PJ5NDHFGMV5H2IG8J2556","10","0","BASKET","13","SCUBA","8","0","2505",,,,,"1","2018-10-22 14:05:58","287376"
"A2GE0QTOZHNX1G","cs_wg_rev_conf_v3_real1","3QECW5O0KH278FS5HID3KIOUOMN5TW","21","0","SAUCE","8","BAKER","13","1","329",,,,,"0","2018-10-22 14:05:58","287377"
"A3BSFYZJI3P2WS","cs_wg_rev_conf_v3_real1","32M8BPYGATNFFY1E42XQA8DA3EKIG9","53","0","BANANA","11","GRENADE","5","0","564",,,,,"0","2018-10-22 14:05:58","287378"
"A3GCYGO7UPKXO9","cs_wg_rev_conf_v3_real1","3I33IC7ZWF3AUMA9TZKOR6VQGNBA2F","6","0","PALACE","11","BICYCLE","10","0","848",,,,,"0","2018-10-22 14:05:59","287379"
"A2NDN67FSZQIVE","cs_wg_rev_conf_v3_real1","3M0NZ3JDP1Z3UR14NA2L66PB9IA5ZD","12","0","MARKET","13","PUMPKIN","3","0","2088",,,,,"0","2018-10-22 14:05:59","287380"
"AGTIA5T9ET7AA","cs_wg_rev_conf_v3_real1","3TY7ZAOG5FL9APGHQ3TZ2W57O1M0K1","28","0","BANANA","7","WHISKER","3","0","1491",,,,,"0","2018-10-22 14:05:59","287381"
"A6G30K3SIWKZ9","cs_wg_rev_conf_v3_real1","3300DTYQT2IUCIT6BFCBJ7JKH8MQE3","24","0","BANANA","7","NAPKIN","13","0","1114",,,,,"0","2018-10-22 14:06:01","287382"
"A14R1LITTLBHR8","cs_wg_rev_conf_v3_real1","3ERET4BTVMAR6J4UQZCSV760R5FK9W","33","0","BLANKET","13","JAGUAR","8","0","508",,,,,"0","2018-10-22 14:06:01","287383"
"A12LI6GAHU6S2H","cs_wg_rev_conf_v3_real1","3S0TNUHWKTJJE8FATQKRRYGZNQ08DI","19","0","PELICAN","7","THUMB","8","1","1541",,,,,"0","2018-10-22 14:06:01","287384"
"A3BSFYZJI3P2WS","cs_wg_rev_conf_v3_real1","32M8BPYGATNFFY1E42XQA8DA3EKIG9","54","0","SAUCE","8","POTATO","7","0","969",,,,,"0","2018-10-22 14:06:01","287385"
"A16LAWY44MSFDQ","cs_wg_rev_conf_v3_real1","38F71OA9GTXVXHVAEXP0KGKFJ85MFV","14","0","BUCKET","13","JAGUAR","8","0","1532",,,,,"0","2018-10-22 14:06:02","287386"
"AGTIA5T9ET7AA","cs_wg_rev_conf_v3_real1","3TY7ZAOG5FL9APGHQ3TZ2W57O1M0K1","29","0","WHISKER","3","CHICKEN","13","1","1055",,,,,"0","2018-10-22 14:06:02","287387"
"A2NDN67FSZQIVE","cs_wg_rev_conf_v3_real1","3M0NZ3JDP1Z3UR14NA2L66PB9IA5ZD","13","0","SUNBURN","8","AVOCADO","7","1","1452",,,,,"0","2018-10-22 14:06:02","287388"
"AJW15EZADTNAF","cs_wg_rev_conf_v3_real1","3YWRV122CS05VAQWFLAG1YKN9QVU8E","1","0","PALACE","10","LIQUID","8","0","5007",,,,,"1","2018-10-22 14:06:02","287389"
"A2GE0QTOZHNX1G","cs_wg_rev_conf_v3_real1","3QECW5O0KH278FS5HID3KIOUOMN5TW","22","0","BAKER","13","MONKEY","3","0","1601",,,,,"0","2018-10-22 14:06:03","287390"
"A21EIC343LEXM1","cs_wg_rev_conf_v3_real1","3M1CVSFP606RM5CUVAAPNOTTWTOQA8","2","0","SUNBURN","8","COWBOY","5","0","10894",,,,,"1","2018-10-22 14:06:03","287391"
"A2S2R828LEF0JM","cs_wg_rev_conf_v3_real1","39GHHAVOMFSVYTS0RJGPDKV7QO1J40","9","0","COWBOY","5","HOCKEY","13","1","3562",,,,,"1","2018-10-22 14:06:03","287392"
"A3CXJ18H14DXBN","cs_wg_rev_conf_v3_real1","3DY46V3X3PJ5NDHFGMV5H2IG8J2556","11","0","BAKER","3","GRENADE","7","1","2903",,,,,"1","2018-10-22 14:06:03","287393"
"A12LI6GAHU6S2H","cs_wg_rev_conf_v3_real1","3S0TNUHWKTJJE8FATQKRRYGZNQ08DI","20","0","CHICKEN","3","THUMB","8","1","1195",,,,,"0","2018-10-22 14:06:04","287394"
"APEL59XES65M6","cs_wg_rev_conf_v3_real1","3NVC2EB65Q00BM4VD5C9D2IPPSDY3N","1","0","MOUSE","8","VOLCANO","7","0","4006",,,,,"0","2018-10-22 14:06:04","287395"
"A10JXOU89D5RXR","cs_wg_rev_conf_v3_real1","3UNH76FOCS61X8C5JNHO91RVPJVYM4","6","0","MARKET","13","PALACE","7","0","4970",,,,,"1","2018-10-22 14:06:04","287396"
"A6G30K3SIWKZ9","cs_wg_rev_conf_v3_real1","3300DTYQT2IUCIT6BFCBJ7JKH8MQE3","25","0","BANANA","7","SEAGULL","8","1","1661",,,,,"0","2018-10-22 14:06:05","287397"
"A2GE0QTOZHNX1G","cs_wg_rev_conf_v3_real1","3QECW5O0KH278FS5HID3KIOUOMN5TW","23","0","MONKEY","3","SAUCE","8","1","498",,,,,"0","2018-10-22 14:06:05","287398"
"A3BSFYZJI3P2WS","cs_wg_rev_conf_v3_real1","32M8BPYGATNFFY1E42XQA8DA3EKIG9","55","0","BANANA","11","PALACE","15","1","1623",,,,,"0","2018-10-22 14:06:05","287399"
"A14R1LITTLBHR8","cs_wg_rev_conf_v3_real1","3ERET4BTVMAR6J4UQZCSV760R5FK9W","34","0","JAGUAR","8","GRENADE","7","0","1958",,,,,"0","2018-10-22 14:06:05","287400"
"A16LAWY44MSFDQ","cs_wg_rev_conf_v3_real1","38F71OA9GTXVXHVAEXP0KGKFJ85MFV","15","0","BUCKET","13","PELICAN","7","0","1273",,,,,"0","2018-10-22 14:06:06","287401"
"A12LI6GAHU6S2H","cs_wg_rev_conf_v3_real1","3S0TNUHWKTJJE8FATQKRRYGZNQ08DI","21","0","MONKEY","13","THUMB","8","0","830",,,,,"0","2018-10-22 14:06:06","287402"
"AGTIA5T9ET7AA","cs_wg_rev_conf_v3_real1","3TY7ZAOG5FL9APGHQ3TZ2W57O1M0K1","30","0","LIQUID","8","CHICKEN","13","1","1383",,,,,"0","2018-10-22 14:06:06","287403"
"A3GCYGO7UPKXO9","cs_wg_rev_conf_v3_real1","3I33IC7ZWF3AUMA9TZKOR6VQGNBA2F","7","0","AIRBAG","7","WIZARD","6","0","4077",,,,,"0","2018-10-22 14:06:07","287404"
"A6G30K3SIWKZ9","cs_wg_rev_conf_v3_real1","3300DTYQT2IUCIT6BFCBJ7JKH8MQE3","26","0","NAPKIN","13","BANANA","7","0","709",,,,,"0","2018-10-22 14:06:07","287405"
"A2GE0QTOZHNX1G","cs_wg_rev_conf_v3_real1","3QECW5O0KH278FS5HID3KIOUOMN5TW","24","0","WIZARD","7","SAUCE","8","0","1083",,,,,"0","2018-10-22 14:06:08","287406"
"A2NDN67FSZQIVE","cs_wg_rev_conf_v3_real1","3M0NZ3JDP1Z3UR14NA2L66PB9IA5ZD","14","0","PUMPKIN","3","MARKET","13","1","3409",,,,,"0","2018-10-22 14:06:08","287407"
"A12LI6GAHU6S2H","cs_wg_rev_conf_v3_real1","3S0TNUHWKTJJE8FATQKRRYGZNQ08DI","22","0","THUMB","8","MONKEY","13","1","599",,,,,"0","2018-10-22 14:06:08","287408"
"A3BSFYZJI3P2WS","cs_wg_rev_conf_v3_real1","32M8BPYGATNFFY1E42XQA8DA3EKIG9","56","0","WIZARD","10","GRENADE","5","0","1643",,,,,"0","2018-10-22 14:06:08","287409"
"A3CXJ18H14DXBN","cs_wg_rev_conf_v3_real1","3DY46V3X3PJ5NDHFGMV5H2IG8J2556","12","0","BASKET","13","BAKER","3","0","3410",,,,,"0","2018-10-22 14:06:08","287410"
"A14R1LITTLBHR8","cs_wg_rev_conf_v3_real1","3ERET4BTVMAR6J4UQZCSV760R5FK9W","35","0","GRENADE","7","JAGUAR","8","0","1145",,,,,"0","2018-10-22 14:06:09","287411"
"AGTIA5T9ET7AA","cs_wg_rev_conf_v3_real1","3TY7ZAOG5FL9APGHQ3TZ2W57O1M0K1","31","0","CHICKEN","13","LIQUID","8","0","1599",,,,,"0","2018-10-22 14:06:10","287412"
"A2GE0QTOZHNX1G","cs_wg_rev_conf_v3_real1","3QECW5O0KH278FS5HID3KIOUOMN5TW","25","0","SAUCE","8","BAKER","13","0","810",,,,,"0","2018-10-22 14:06:10","287413"
"A16LAWY44MSFDQ","cs_wg_rev_conf_v3_real1","38F71OA9GTXVXHVAEXP0KGKFJ85MFV","16","0","PELICAN","7","CRICKET","3","0","2254",,,,,"0","2018-10-22 14:06:11","287414"
"A12LI6GAHU6S2H","cs_wg_rev_conf_v3_real1","3S0TNUHWKTJJE8FATQKRRYGZNQ08DI","23","0","MONKEY","13","PELICAN","7","0","910",,,,,"0","2018-10-22 14:06:11","287415"
"A6G30K3SIWKZ9","cs_wg_rev_conf_v3_real1","3300DTYQT2IUCIT6BFCBJ7JKH8MQE3","27","0","BANANA","7","SEAGULL","8","1","1915",,,,,"0","2018-10-22 14:06:11","287416"
"AJW15EZADTNAF","cs_wg_rev_conf_v3_real1","3YWRV122CS05VAQWFLAG1YKN9QVU8E","2","0","CANCER","15","GRENADE","5","0","5606",,,,,"1","2018-10-22 14:06:11","287417"
"A2NDN67FSZQIVE","cs_wg_rev_conf_v3_real1","3M0NZ3JDP1Z3UR14NA2L66PB9IA5ZD","15","0","SUNBURN","8","PUMPKIN","3","0","1376",,,,,"0","2018-10-22 14:06:11","287418"
"A3BSFYZJI3P2WS","cs_wg_rev_conf_v3_real1","32M8BPYGATNFFY1E42XQA8DA3EKIG9","57","0","CRICKET","13","BANANA","11","1","1409",,,,,"0","2018-10-22 14:06:12","287419"
"A3GCYGO7UPKXO9","cs_wg_rev_conf_v3_real1","3I33IC7ZWF3AUMA9TZKOR6VQGNBA2F","8","0","CHICKEN","3","LIZARD","9","1","2474",,,,,"0","2018-10-22 14:06:12","287420"
"A3CXJ18H14DXBN","cs_wg_rev_conf_v3_real1","3DY46V3X3PJ5NDHFGMV5H2IG8J2556","13","0","SCUBA","8","BASKET","13","0","1038",,,,,"0","2018-10-22 14:06:12","287421"
"A2GE0QTOZHNX1G","cs_wg_rev_conf_v3_real1","3QECW5O0KH278FS5HID3KIOUOMN5TW","26","0","BAKER","13","MONKEY","3","1","467",,,,,"0","2018-10-22 14:06:13","287422"
"A10JXOU89D5RXR","cs_wg_rev_conf_v3_real1","3UNH76FOCS61X8C5JNHO91RVPJVYM4","7","0","SAUCE","8","BAKER","3","0","5478",,,,,"1","2018-10-22 14:06:14","287423"
"A2NDN67FSZQIVE","cs_wg_rev_conf_v3_real1","3M0NZ3JDP1Z3UR14NA2L66PB9IA5ZD","16","0","MARKET","13","AVOCADO","7","0","1074",,,,,"0","2018-10-22 14:06:14","287424"
"A12LI6GAHU6S2H","cs_wg_rev_conf_v3_real1","3S0TNUHWKTJJE8FATQKRRYGZNQ08DI","24","0","PELICAN","7","CHICKEN","3","0","1744",,,,,"0","2018-10-22 14:06:14","287425"
"A3BSFYZJI3P2WS","cs_wg_rev_conf_v3_real1","32M8BPYGATNFFY1E42XQA8DA3EKIG9","58","0","WIZARD","10","BICYCLE","6","1","510",,,,,"0","2018-10-22 14:06:14","287426"
"A3CXJ18H14DXBN","cs_wg_rev_conf_v3_real1","3DY46V3X3PJ5NDHFGMV5H2IG8J2556","14","0","BAKER","3","BASKET","13","0","1274",,,,,"0","2018-10-22 14:06:15","287427"
"A2GE0QTOZHNX1G","cs_wg_rev_conf_v3_real1","3QECW5O0KH278FS5HID3KIOUOMN5TW","27","0","MONKEY","3","WIZARD","7","1","521",,,,,"0","2018-10-22 14:06:15","287428"
"A21EIC343LEXM1","cs_wg_rev_conf_v3_real1","3M1CVSFP606RM5CUVAAPNOTTWTOQA8","3","0","BAKER","3","LIZARD","9","0","10182",,,,,"1","2018-10-22 14:06:15","287429"
"APEL59XES65M6","cs_wg_rev_conf_v3_real1","3NVC2EB65Q00BM4VD5C9D2IPPSDY3N","2","0","BANANA","15","AIRBAG","11","1","9312",,,,,"0","2018-10-22 14:06:15","287430"
"AGTIA5T9ET7AA","cs_wg_rev_conf_v3_real1","3TY7ZAOG5FL9APGHQ3TZ2W57O1M0K1","33","0","BANANA","7","LIQUID","8","1","1317",,,,,"0","2018-10-22 14:06:16","287431"
"A16LAWY44MSFDQ","cs_wg_rev_conf_v3_real1","38F71OA9GTXVXHVAEXP0KGKFJ85MFV","17","0","PELICAN","7","JAGUAR","8","1","3223",,,,,"0","2018-10-22 14:06:17","287432"
"A2NDN67FSZQIVE","cs_wg_rev_conf_v3_real1","3M0NZ3JDP1Z3UR14NA2L66PB9IA5ZD","17","0","AVOCADO","7","MARKET","13","1","989",,,,,"0","2018-10-22 14:06:17","287433"
"A12LI6GAHU6S2H","cs_wg_rev_conf_v3_real1","3S0TNUHWKTJJE8FATQKRRYGZNQ08DI","25","0","CHICKEN","3","PELICAN","7","1","1412",,,,,"0","2018-10-22 14:06:17","287434"
"A2GE0QTOZHNX1G","cs_wg_rev_conf_v3_real1","3QECW5O0KH278FS5HID3KIOUOMN5TW","28","0","WIZARD","7","MONKEY","3","1","977",,,,,"0","2018-10-22 14:06:18","287435"
"A3CXJ18H14DXBN","cs_wg_rev_conf_v3_real1","3DY46V3X3PJ5NDHFGMV5H2IG8J2556","15","0","SCUBA","8","BASKET","13","0","897",,,,,"0","2018-10-22 14:06:18","287436"
"AJW15EZADTNAF","cs_wg_rev_conf_v3_real1","3YWRV122CS05VAQWFLAG1YKN9QVU8E","3","0","VOLCANO","6","PELICAN","1","0","3394",,,,,"1","2018-10-22 14:06:18","287437"
"A3BSFYZJI3P2WS","cs_wg_rev_conf_v3_real1","32M8BPYGATNFFY1E42XQA8DA3EKIG9","59","0","SAUCE","8","VOLCANO","9","0","1772",,,,,"0","2018-10-22 14:06:18","287438"
"A6G30K3SIWKZ9","cs_wg_rev_conf_v3_real1","3300DTYQT2IUCIT6BFCBJ7JKH8MQE3","28","0","BLANKET","3","SEAGULL","8","1","4658",,,,,"0","2018-10-22 14:06:19","287439"
"AGTIA5T9ET7AA","cs_wg_rev_conf_v3_real1","3TY7ZAOG5FL9APGHQ3TZ2W57O1M0K1","34","0","LIQUID","8","WHISKER","3","0","1241",,,,,"0","2018-10-22 14:06:19","287440"
"A3GCYGO7UPKXO9","cs_wg_rev_conf_v3_real1","3I33IC7ZWF3AUMA9TZKOR6VQGNBA2F","9","0","BANANA","15","LIZARD","9","0","3147",,,,,"0","2018-10-22 14:06:20","287441"
"A2GE0QTOZHNX1G","cs_wg_rev_conf_v3_real1","3QECW5O0KH278FS5HID3KIOUOMN5TW","29","0","MONKEY","3","SAUCE","8","0","739",,,,,"0","2018-10-22 14:06:20","287442"
"A12LI6GAHU6S2H","cs_wg_rev_conf_v3_real1","3S0TNUHWKTJJE8FATQKRRYGZNQ08DI","26","0","CHICKEN","3","THUMB","8","1","1506",,,,,"0","2018-10-22 14:06:20","287443"
"A3BSFYZJI3P2WS","cs_wg_rev_conf_v3_real1","32M8BPYGATNFFY1E42XQA8DA3EKIG9","60","0","PALACE","15","VOLCANO","9","0","275",,,,,"0","2018-10-22 14:06:20","287444"
"A3CXJ18H14DXBN","cs_wg_rev_conf_v3_real1","3DY46V3X3PJ5NDHFGMV5H2IG8J2556","16","0","BASKET","13","BAKER","3","1","919",,,,,"0","2018-10-22 14:06:21","287445"
"A2NDN67FSZQIVE","cs_wg_rev_conf_v3_real1","3M0NZ3JDP1Z3UR14NA2L66PB9IA5ZD","18","0","PUMPKIN","3","SUNBURN","8","1","868",,,,,"0","2018-10-22 14:06:21","287446"
"A16LAWY44MSFDQ","cs_wg_rev_conf_v3_real1","38F71OA9GTXVXHVAEXP0KGKFJ85MFV","18","0","JAGUAR","8","CRICKET","3","0","2484",,,,,"0","2018-10-22 14:06:22","287447"
"AGTIA5T9ET7AA","cs_wg_rev_conf_v3_real1","3TY7ZAOG5FL9APGHQ3TZ2W57O1M0K1","35","0","BANANA","7","WHISKER","3","0","753",,,,,"0","2018-10-22 14:06:22","287448"
"A6G30K3SIWKZ9","cs_wg_rev_conf_v3_real1","3300DTYQT2IUCIT6BFCBJ7JKH8MQE3","29","0","BANANA","7","SEAGULL","8","1","1923",,,,,"0","2018-10-22 14:06:23","287449"
"A2GE0QTOZHNX1G","cs_wg_rev_conf_v3_real1","3QECW5O0KH278FS5HID3KIOUOMN5TW","30","0","WIZARD","7","BAKER","13","0","926",,,,,"0","2018-10-22 14:06:23","287450"
"A10JXOU89D5RXR","cs_wg_rev_conf_v3_real1","3UNH76FOCS61X8C5JNHO91RVPJVYM4","8","0","BAKER","3","MARKET","13","1","4287",,,,,"1","2018-10-22 14:06:23","287451"
"A21EIC343LEXM1","cs_wg_rev_conf_v3_real1","3M1CVSFP606RM5CUVAAPNOTTWTOQA8","4","0","SUNBURN","8","POTATO","1","0","1845",,,,,"0","2018-10-22 14:06:23","287452"
"A12LI6GAHU6S2H","cs_wg_rev_conf_v3_real1","3S0TNUHWKTJJE8FATQKRRYGZNQ08DI","27","0","MONKEY","13","THUMB","8","0","1413",,,,,"0","2018-10-22 14:06:23","287453"
"A3KTVSK9NTAPLZ","cs_wg_rev_conf_v3_real1","3MHW492WW0EKTEH0ECU422N172SVMR","0","0","PUMPKIN","3","POTATO","6","1","13581",,,,,"1","2018-10-22 14:06:23","287454"
"A3BSFYZJI3P2WS","cs_wg_rev_conf_v3_real1","32M8BPYGATNFFY1E42XQA8DA3EKIG9","61","0","WIZARD","10","POTATO","7","0","1289",,,,,"0","2018-10-22 14:06:23","287455"
"A3CXJ18H14DXBN","cs_wg_rev_conf_v3_real1","3DY46V3X3PJ5NDHFGMV5H2IG8J2556","17","0","GRENADE","7","BAKER","3","1","686",,,,,"0","2018-10-22 14:06:24","287456"
"A3GCYGO7UPKXO9","cs_wg_rev_conf_v3_real1","3I33IC7ZWF3AUMA9TZKOR6VQGNBA2F","10","0","PALACE","11","LIZARD","9","0","2192",,,,,"0","2018-10-22 14:06:24","287457"
"A2NDN67FSZQIVE","cs_wg_rev_conf_v3_real1","3M0NZ3JDP1Z3UR14NA2L66PB9IA5ZD","19","0","PUMPKIN","3","SUNBURN","8","0","1300",,,,,"0","2018-10-22 14:06:25","287458"
"AJW15EZADTNAF","cs_wg_rev_conf_v3_real1","3YWRV122CS05VAQWFLAG1YKN9QVU8E","4","0","GRENADE","5","VOLCANO","6","0","890",,,,,"0","2018-10-22 14:06:25","287459"
"A12LI6GAHU6S2H","cs_wg_rev_conf_v3_real1","3S0TNUHWKTJJE8FATQKRRYGZNQ08DI","28","0","PELICAN","7","MONKEY","13","1","633",,,,,"0","2018-10-22 14:06:25","287460"
"A6G30K3SIWKZ9","cs_wg_rev_conf_v3_real1","3300DTYQT2IUCIT6BFCBJ7JKH8MQE3","30","0","BANANA","7","NAPKIN","13","1","1061",,,,,"0","2018-10-22 14:06:25","287461"
"A16LAWY44MSFDQ","cs_wg_rev_conf_v3_real1","38F71OA9GTXVXHVAEXP0KGKFJ85MFV","19","0","BUCKET","13","CRICKET","3","0","1377",,,,,"0","2018-10-22 14:06:26","287462"
"A3CXJ18H14DXBN","cs_wg_rev_conf_v3_real1","3DY46V3X3PJ5NDHFGMV5H2IG8J2556","18","0","SCUBA","8","GRENADE","7","0","577",,,,,"0","2018-10-22 14:06:26","287463"
"A3BSFYZJI3P2WS","cs_wg_rev_conf_v3_real1","32M8BPYGATNFFY1E42XQA8DA3EKIG9","62","0","CRICKET","13","VOLCANO","9","1","1715",,,,,"0","2018-10-22 14:06:27","287464"
"A2GE0QTOZHNX1G","cs_wg_rev_conf_v3_real1","3QECW5O0KH278FS5HID3KIOUOMN5TW","31","0","WIZARD","7","MONKEY","3","0","2178",,,,,"0","2018-10-22 14:06:27","287465"
"A12LI6GAHU6S2H","cs_wg_rev_conf_v3_real1","3S0TNUHWKTJJE8FATQKRRYGZNQ08DI","29","0","MONKEY","13","CHICKEN","3","0","567",,,,,"0","2018-10-22 14:06:27","287466"
"APEL59XES65M6","cs_wg_rev_conf_v3_real1","3NVC2EB65Q00BM4VD5C9D2IPPSDY3N","3","0","VOLCANO","7","BANANA","15","0","6200",,,,,"0","2018-10-22 14:06:27","287467"
"A2NDN67FSZQIVE","cs_wg_rev_conf_v3_real1","3M0NZ3JDP1Z3UR14NA2L66PB9IA5ZD","20","0","SUNBURN","8","PUMPKIN","3","0","988",,,,,"0","2018-10-22 14:06:27","287468"
"A2S2R828LEF0JM","cs_wg_rev_conf_v3_real1","39GHHAVOMFSVYTS0RJGPDKV7QO1J40","10","0","ACROBAT","6","BANANA","11","1","23040",,,,,"1","2018-10-22 14:06:28","287469"
"A3GCYGO7UPKXO9","cs_wg_rev_conf_v3_real1","3I33IC7ZWF3AUMA9TZKOR6VQGNBA2F","11","0","WIZARD","6","AVOCADO","1","0","2141",,,,,"0","2018-10-22 14:06:28","287470"
"A6G30K3SIWKZ9","cs_wg_rev_conf_v3_real1","3300DTYQT2IUCIT6BFCBJ7JKH8MQE3","31","0","SEAGULL","8","NAPKIN","13","1","1629",,,,,"0","2018-10-22 14:06:29","287471"
"A3CXJ18H14DXBN","cs_wg_rev_conf_v3_real1","3DY46V3X3PJ5NDHFGMV5H2IG8J2556","19","0","BAKER","3","GRENADE","7","0","664",,,,,"0","2018-10-22 14:06:29","287472"
"A12LI6GAHU6S2H","cs_wg_rev_conf_v3_real1","3S0TNUHWKTJJE8FATQKRRYGZNQ08DI","30","0","MONKEY","13","CHICKEN","3","0","669",,,,,"0","2018-10-22 14:06:29","287473"
"A1ER7Z5J872XAB","cs_wg_rev_conf_v3_real1","3WT783CTPBISBE73W69QYUOIAWABCL","0","0","ACROBAT","7","SKUNK","8","0","5110",,,,,"0","2018-10-22 14:06:30","287474"
"A3BSFYZJI3P2WS","cs_wg_rev_conf_v3_real1","32M8BPYGATNFFY1E42XQA8DA3EKIG9","63","0","SAUCE","8","HOCKEY","3","0","1518",,,,,"0","2018-10-22 14:06:30","287475"
"A2GE0QTOZHNX1G","cs_wg_rev_conf_v3_real1","3QECW5O0KH278FS5HID3KIOUOMN5TW","32","0","SAUCE","8","MONKEY","3","1","1031",,,,,"0","2018-10-22 14:06:31","287476"
"A121FRZFN86KC1","cs_wg_rev_conf_v3_real1","3ZR9AIQJUBAOWNRE5B6JVFGBRFV04A","0","0","WIZARD","7","AIRBAG","1","0","3102",,,,,"0","2018-10-22 14:06:31","287477"
"A2NDN67FSZQIVE","cs_wg_rev_conf_v3_real1","3M0NZ3JDP1Z3UR14NA2L66PB9IA5ZD","21","0","MARKET","13","SUNBURN","8","0","1465",,,,,"0","2018-10-22 14:06:31","287478"
"A3CXJ18H14DXBN","cs_wg_rev_conf_v3_real1","3DY46V3X3PJ5NDHFGMV5H2IG8J2556","20","0","SCUBA","8","GRENADE","7","1","337",,,,,"0","2018-10-22 14:06:31","287479"
"A16LAWY44MSFDQ","cs_wg_rev_conf_v3_real1","38F71OA9GTXVXHVAEXP0KGKFJ85MFV","20","0","JAGUAR","8","CRICKET","3","0","2662",,,,,"0","2018-10-22 14:06:32","287480"
"A10JXOU89D5RXR","cs_wg_rev_conf_v3_real1","3UNH76FOCS61X8C5JNHO91RVPJVYM4","9","0","SAUCE","8","MARKET","13","1","5246",,,,,"1","2018-10-22 14:06:32","287481"
"A3BSFYZJI3P2WS","cs_wg_rev_conf_v3_real1","32M8BPYGATNFFY1E42XQA8DA3EKIG9","64","0","SAUCE","8","BANANA","11","0","639",,,,,"0","2018-10-22 14:06:32","287482"
"A11SIGUFXU7LA6","cs_wg_rev_conf_v3_real1","3UWN2HHPUY6AJ4LWWI4Z4USUDO9SNK","0","0","AVOCADO","9","BICYCLE","11","1","19887",,,,,"1","2018-10-22 14:06:32","287483"
"APEL59XES65M6","cs_wg_rev_conf_v3_real1","3NVC2EB65Q00BM4VD5C9D2IPPSDY3N","4","0","POTATO","5","BANANA","15","1","2963",,,,,"0","2018-10-22 14:06:32","287484"
"A12LI6GAHU6S2H","cs_wg_rev_conf_v3_real1","3S0TNUHWKTJJE8FATQKRRYGZNQ08DI","31","0","PELICAN","7","CHICKEN","3","0","1393",,,,,"0","2018-10-22 14:06:32","287485"
"A2GE0QTOZHNX1G","cs_wg_rev_conf_v3_real1","3QECW5O0KH278FS5HID3KIOUOMN5TW","33","0","WIZARD","7","MONKEY","3","1","675",,,,,"0","2018-10-22 14:06:33","287486"
"A3GCYGO7UPKXO9","cs_wg_rev_conf_v3_real1","3I33IC7ZWF3AUMA9TZKOR6VQGNBA2F","12","0","BICYCLE","10","LIZARD","9","0","2691",,,,,"0","2018-10-22 14:06:33","287487"
"A1ER7Z5J872XAB","cs_wg_rev_conf_v3_real1","3WT783CTPBISBE73W69QYUOIAWABCL","1","0","ACROBAT","7","MONKEY","13","0","1304",,,,,"0","2018-10-22 14:06:34","287488"
"AJW15EZADTNAF","cs_wg_rev_conf_v3_real1","3YWRV122CS05VAQWFLAG1YKN9QVU8E","5","0","TOMATO","11","WIZARD","7","0","6001",,,,,"1","2018-10-22 14:06:34","287489"
"A3CXJ18H14DXBN","cs_wg_rev_conf_v3_real1","3DY46V3X3PJ5NDHFGMV5H2IG8J2556","21","0","BAKER","3","SCUBA","8","0","398",,,,,"0","2018-10-22 14:06:34","287490"
"A6G30K3SIWKZ9","cs_wg_rev_conf_v3_real1","3300DTYQT2IUCIT6BFCBJ7JKH8MQE3","32","0","BLANKET","3","BANANA","7","1","3207",,,,,"0","2018-10-22 14:06:34","287491"
"A2NDN67FSZQIVE","cs_wg_rev_conf_v3_real1","3M0NZ3JDP1Z3UR14NA2L66PB9IA5ZD","22","0","PUMPKIN","3","AVOCADO","7","1","1894",,,,,"0","2018-10-22 14:06:35","287492"
"A2GE0QTOZHNX1G","cs_wg_rev_conf_v3_real1","3QECW5O0KH278FS5HID3KIOUOMN5TW","34","0","SAUCE","8","WIZARD","7","1","491",,,,,"0","2018-10-22 14:06:35","287493"
"A3BSFYZJI3P2WS","cs_wg_rev_conf_v3_real1","32M8BPYGATNFFY1E42XQA8DA3EKIG9","65","0","COWBOY","1","POTATO","7","0","1176",,,,,"0","2018-10-22 14:06:35","287494"
"A3CXJ18H14DXBN","cs_wg_rev_conf_v3_real1","3DY46V3X3PJ5NDHFGMV5H2IG8J2556","22","0","SCUBA","8","BAKER","3","0","444",,,,,"0","2018-10-22 14:06:36","287495"
"A12LI6GAHU6S2H","cs_wg_rev_conf_v3_real1","3S0TNUHWKTJJE8FATQKRRYGZNQ08DI","32","0","CHICKEN","3","PELICAN","7","1","2475",,,,,"0","2018-10-22 14:06:37","287496"
"A16LAWY44MSFDQ","cs_wg_rev_conf_v3_real1","38F71OA9GTXVXHVAEXP0KGKFJ85MFV","21","0","JAGUAR","8","CRICKET","3","0","1788",,,,,"0","2018-10-22 14:06:37","287497"
"A21EIC343LEXM1","cs_wg_rev_conf_v3_real1","3M1CVSFP606RM5CUVAAPNOTTWTOQA8","5","0","POTATO","1","GRENADE","7","1","10255",,,,,"1","2018-10-22 14:06:37","287498"
"A6G30K3SIWKZ9","cs_wg_rev_conf_v3_real1","3300DTYQT2IUCIT6BFCBJ7JKH8MQE3","33","0","SEAGULL","8","BLANKET","3","0","1563",,,,,"0","2018-10-22 14:06:37","287499"
"A1D68GESUYX17I","cs_wg_rev_conf_v3_real1","3YW4XOSQKQMNKA6BG011MOXFVKP1U1","10","0","BLANKET","13","TOMATO","7","0","76542",,,,,"0","2018-10-22 14:06:38","287500"
"A3BSFYZJI3P2WS","cs_wg_rev_conf_v3_real1","32M8BPYGATNFFY1E42XQA8DA3EKIG9","66","0","HOCKEY","3","VOLCANO","9","1","1296",,,,,"0","2018-10-22 14:06:38","287501"
"A2GE0QTOZHNX1G","cs_wg_rev_conf_v3_real1","3QECW5O0KH278FS5HID3KIOUOMN5TW","35","0","SAUCE","8","MONKEY","3","1","775",,,,,"0","2018-10-22 14:06:38","287502"
"A3KTVSK9NTAPLZ","cs_wg_rev_conf_v3_real1","3MHW492WW0EKTEH0ECU422N172SVMR","1","0","AVOCADO","9","POTATO","6","0","4929",,,,,"1","2018-10-22 14:06:38","287503"
"A2NDN67FSZQIVE","cs_wg_rev_conf_v3_real1","3M0NZ3JDP1Z3UR14NA2L66PB9IA5ZD","23","0","MARKET","13","AVOCADO","7","0","1458",,,,,"0","2018-10-22 14:06:38","287504"
"A1YZ1KLA7ASXK7","cs_wg_rev_conf_v3_real1","3K3R2QNK8B459F96KDGU1UFYTWDU93","0","0","COOKIE","3","BLOUSE","8","1","5883",,,,,"1","2018-10-22 14:06:38","287505"
"A3GCYGO7UPKXO9","cs_wg_rev_conf_v3_real1","3I33IC7ZWF3AUMA9TZKOR6VQGNBA2F","13","0","AIRBAG","7","BICYCLE","10","1","2635",,,,,"0","2018-10-22 14:06:38","287506"
"A1ER7Z5J872XAB","cs_wg_rev_conf_v3_real1","3WT783CTPBISBE73W69QYUOIAWABCL","2","0","MONKEY","13","SKUNK","8","1","924",,,,,"0","2018-10-22 14:06:38","287507"
"A3CXJ18H14DXBN","cs_wg_rev_conf_v3_real1","3DY46V3X3PJ5NDHFGMV5H2IG8J2556","23","0","GRENADE","7","SCUBA","8","0","451",,,,,"0","2018-10-22 14:06:39","287508"
"A19RMYC38G1HAF","cs_wg_rev_conf_v3_real1","3DI28L7YXAF6VE9PQ0MWI6BC9WVE1X","0","0","BAKER","3","POTATO","7","1","8644",,,,,"1","2018-10-22 14:06:40","287509"
"A6G30K3SIWKZ9","cs_wg_rev_conf_v3_real1","3300DTYQT2IUCIT6BFCBJ7JKH8MQE3","34","0","BANANA","7","NAPKIN","13","1","637",,,,,"0","2018-10-22 14:06:40","287510"
"A10JXOU89D5RXR","cs_wg_rev_conf_v3_real1","3UNH76FOCS61X8C5JNHO91RVPJVYM4","10","0","BAKER","3","PALACE","7","1","4755",,,,,"1","2018-10-22 14:06:40","287511"
"A18MDBFDY3PXA6","cs_wg_rev_conf_v3_real1","373ERPL3YO9WD2Q3EPQ6NJTQG4DRTX","0","0","PENGUIN","8","COWBOY","7","1","6343",,,,,"0","2018-10-22 14:06:40","287512"
"A12LI6GAHU6S2H","cs_wg_rev_conf_v3_real1","3S0TNUHWKTJJE8FATQKRRYGZNQ08DI","33","0","THUMB","8","PELICAN","7","0","2156",,,,,"0","2018-10-22 14:06:40","287513"
"A121FRZFN86KC1","cs_wg_rev_conf_v3_real1","3ZR9AIQJUBAOWNRE5B6JVFGBRFV04A","1","0","PALACE","5","MONKEY","13","1","2365",,,,,"0","2018-10-22 14:06:40","287514"
"A1D68GESUYX17I","cs_wg_rev_conf_v3_real1","3YW4XOSQKQMNKA6BG011MOXFVKP1U1","11","0","THUMB","8","TOMATO","7","1","1445",,,,,"0","2018-10-22 14:06:41","287515"
"A3BSFYZJI3P2WS","cs_wg_rev_conf_v3_real1","32M8BPYGATNFFY1E42XQA8DA3EKIG9","67","0","COWBOY","1","PALACE","15","1","1608",,,,,"0","2018-10-22 14:06:41","287516"
"A3CXJ18H14DXBN","cs_wg_rev_conf_v3_real1","3DY46V3X3PJ5NDHFGMV5H2IG8J2556","24","0","BASKET","13","SCUBA","8","1","613",,,,,"0","2018-10-22 14:06:41","287517"
"A16LAWY44MSFDQ","cs_wg_rev_conf_v3_real1","38F71OA9GTXVXHVAEXP0KGKFJ85MFV","22","0","PELICAN","7","CRICKET","3","0","1603",,,,,"0","2018-10-22 14:06:41","287518"
"A11SIGUFXU7LA6","cs_wg_rev_conf_v3_real1","3UWN2HHPUY6AJ4LWWI4Z4USUDO9SNK","1","0","COWBOY","10","WIZARD","6","0","4715",,,,,"1","2018-10-22 14:06:42","287519"
"A3GCYGO7UPKXO9","cs_wg_rev_conf_v3_real1","3I33IC7ZWF3AUMA9TZKOR6VQGNBA2F","14","0","SAUCE","8","WHISKER","13","1","1471",,,,,"0","2018-10-22 14:06:42","287520"
"A6G30K3SIWKZ9","cs_wg_rev_conf_v3_real1","3300DTYQT2IUCIT6BFCBJ7JKH8MQE3","35","0","NAPKIN","13","BLANKET","3","0","781",,,,,"0","2018-10-22 14:06:42","287521"
"A2NDN67FSZQIVE","cs_wg_rev_conf_v3_real1","3M0NZ3JDP1Z3UR14NA2L66PB9IA5ZD","24","0","AVOCADO","7","MARKET","13","1","2198",,,,,"0","2018-10-22 14:06:42","287522"
"AJW15EZADTNAF","cs_wg_rev_conf_v3_real1","3YWRV122CS05VAQWFLAG1YKN9QVU8E","6","0","TOMATO","11","VOLCANO","6","0","5925",,,,,"1","2018-10-22 14:06:42","287523"
"A1ER7Z5J872XAB","cs_wg_rev_conf_v3_real1","3WT783CTPBISBE73W69QYUOIAWABCL","3","0","ACROBAT","7","BUCKET","3","0","1466",,,,,"0","2018-10-22 14:06:43","287524"
"A12LI6GAHU6S2H","cs_wg_rev_conf_v3_real1","3S0TNUHWKTJJE8FATQKRRYGZNQ08DI","34","0","PELICAN","7","MONKEY","13","1","838",,,,,"0","2018-10-22 14:06:43","287525"
"A2S2R828LEF0JM","cs_wg_rev_conf_v3_real1","39GHHAVOMFSVYTS0RJGPDKV7QO1J40","11","0","AVOCADO","1","AIRBAG","15","1","5727",,,,,"1","2018-10-22 14:06:43","287526"
"APEL59XES65M6","cs_wg_rev_conf_v3_real1","3NVC2EB65Q00BM4VD5C9D2IPPSDY3N","5","0","WHISKER","13","GRENADE","9","0","8535",,,,,"1","2018-10-22 14:06:44","287527"
"A3CXJ18H14DXBN","cs_wg_rev_conf_v3_real1","3DY46V3X3PJ5NDHFGMV5H2IG8J2556","25","0","BASKET","13","SCUBA","8","0","442",,,,,"0","2018-10-22 14:06:44","287528"
"A3BSFYZJI3P2WS","cs_wg_rev_conf_v3_real1","32M8BPYGATNFFY1E42XQA8DA3EKIG9","68","0","PALACE","15","COWBOY","1","1","530",,,,,"0","2018-10-22 14:06:44","287529"
"A12LI6GAHU6S2H","cs_wg_rev_conf_v3_real1","3S0TNUHWKTJJE8FATQKRRYGZNQ08DI","35","0","THUMB","8","CHICKEN","3","0","1085",,,,,"0","2018-10-22 14:06:46","287530"
"A16LAWY44MSFDQ","cs_wg_rev_conf_v3_real1","38F71OA9GTXVXHVAEXP0KGKFJ85MFV","23","0","BUCKET","13","CRICKET","3","0","1416",,,,,"0","2018-10-22 14:06:46","287531"
"A3GCYGO7UPKXO9","cs_wg_rev_conf_v3_real1","3I33IC7ZWF3AUMA9TZKOR6VQGNBA2F","15","0","LIZARD","9","POTATO","5","0","2475",,,,,"0","2018-10-22 14:06:46","287532"
"A1D68GESUYX17I","cs_wg_rev_conf_v3_real1","3YW4XOSQKQMNKA6BG011MOXFVKP1U1","12","0","BLANKET","13","THUMB","8","0","3649",,,,,"0","2018-10-22 14:06:46","287533"
"A3BSFYZJI3P2WS","cs_wg_rev_conf_v3_real1","32M8BPYGATNFFY1E42XQA8DA3EKIG9","69","0","SAUCE","8","WIZARD","10","1","794",,,,,"0","2018-10-22 14:06:46","287534"
"A3CXJ18H14DXBN","cs_wg_rev_conf_v3_real1","3DY46V3X3PJ5NDHFGMV5H2IG8J2556","26","0","SCUBA","8","BAKER","3","0","390",,,,,"0","2018-10-22 14:06:46","287535"
"A19RMYC38G1HAF","cs_wg_rev_conf_v3_real1","3DI28L7YXAF6VE9PQ0MWI6BC9WVE1X","1","0","POTATO","7","BAKER","3","1","3986",,,,,"1","2018-10-22 14:06:47","287536"
"A2NDN67FSZQIVE","cs_wg_rev_conf_v3_real1","3M0NZ3JDP1Z3UR14NA2L66PB9IA5ZD","25","0","AVOCADO","7","PUMPKIN","3","0","3182",,,,,"0","2018-10-22 14:06:48","287537"
"A1YZ1KLA7ASXK7","cs_wg_rev_conf_v3_real1","3K3R2QNK8B459F96KDGU1UFYTWDU93","1","0","WIZARD","15","BLOUSE","8","1","1953",,,,,"0","2018-10-22 14:06:48","287538"
"A1ER7Z5J872XAB","cs_wg_rev_conf_v3_real1","3WT783CTPBISBE73W69QYUOIAWABCL","4","0","SKUNK","8","MONKEY","13","1","2631",,,,,"0","2018-10-22 14:06:48","287539"
"A11SIGUFXU7LA6","cs_wg_rev_conf_v3_real1","3UWN2HHPUY6AJ4LWWI4Z4USUDO9SNK","2","0","PELICAN","5","PALACE","7","1","3725",,,,,"1","2018-10-22 14:06:48","287540"
"AJW15EZADTNAF","cs_wg_rev_conf_v3_real1","3YWRV122CS05VAQWFLAG1YKN9QVU8E","7","0","WIZARD","7","CRICKET","3","0","4170",,,,,"1","2018-10-22 14:06:49","287541"
"A3CXJ18H14DXBN","cs_wg_rev_conf_v3_real1","3DY46V3X3PJ5NDHFGMV5H2IG8J2556","27","0","BASKET","13","GRENADE","7","1","442",,,,,"0","2018-10-22 14:06:49","287542"
"AMK9LJTZOOWC5","cs_wg_rev_conf_v3_real1","3STRJBFXOWSAQYD8O5H9M77CLCIKTW","0","0","ROCKET","3","GRENADE","7","0","7041",,,,,"0","2018-10-22 14:06:50","287543"
"A3BSFYZJI3P2WS","cs_wg_rev_conf_v3_real1","32M8BPYGATNFFY1E42XQA8DA3EKIG9","70","0","GRENADE","5","COWBOY","1","1","1419",,,,,"0","2018-10-22 14:06:50","287544"
"A121FRZFN86KC1","cs_wg_rev_conf_v3_real1","3ZR9AIQJUBAOWNRE5B6JVFGBRFV04A","2","0","WIZARD","7","SCUBA","8","0","1469",,,,,"0","2018-10-22 14:06:50","287545"
"A10JXOU89D5RXR","cs_wg_rev_conf_v3_real1","3UNH76FOCS61X8C5JNHO91RVPJVYM4","11","0","SAUCE","8","PALACE","7","0","6292",,,,,"1","2018-10-22 14:06:50","287546"
"A1D68GESUYX17I","cs_wg_rev_conf_v3_real1","3YW4XOSQKQMNKA6BG011MOXFVKP1U1","13","0","BAKER","3","THUMB","8","1","2060",,,,,"0","2018-10-22 14:06:50","287547"
"A3GCYGO7UPKXO9","cs_wg_rev_conf_v3_real1","3I33IC7ZWF3AUMA9TZKOR6VQGNBA2F","16","0","BANANA","15","AIRBAG","7","0","2165",,,,,"0","2018-10-22 14:06:50","287548"
"A16LAWY44MSFDQ","cs_wg_rev_conf_v3_real1","38F71OA9GTXVXHVAEXP0KGKFJ85MFV","24","0","CRICKET","3","PELICAN","7","1","1953",,,,,"0","2018-10-22 14:06:50","287549"
"A21EIC343LEXM1","cs_wg_rev_conf_v3_real1","3M1CVSFP606RM5CUVAAPNOTTWTOQA8","6","0","AIRBAG","10","LIZARD","9","0","9039",,,,,"1","2018-10-22 14:06:51","287550"
"A3CXJ18H14DXBN","cs_wg_rev_conf_v3_real1","3DY46V3X3PJ5NDHFGMV5H2IG8J2556","28","0","GRENADE","7","SCUBA","8","0","243",,,,,"0","2018-10-22 14:06:51","287551"
"A2NDN67FSZQIVE","cs_wg_rev_conf_v3_real1","3M0NZ3JDP1Z3UR14NA2L66PB9IA5ZD","26","0","PUMPKIN","3","AVOCADO","7","1","1845",,,,,"0","2018-10-22 14:06:51","287552"
"A1ER7Z5J872XAB","cs_wg_rev_conf_v3_real1","3WT783CTPBISBE73W69QYUOIAWABCL","5","0","MONKEY","13","BUCKET","3","0","1388",,,,,"0","2018-10-22 14:06:52","287553"
"A18MDBFDY3PXA6","cs_wg_rev_conf_v3_real1","373ERPL3YO9WD2Q3EPQ6NJTQG4DRTX","1","0","HOCKEY","3","COWBOY","7","1","7755",,,,,"0","2018-10-22 14:06:52","287554"
"A3BSFYZJI3P2WS","cs_wg_rev_conf_v3_real1","32M8BPYGATNFFY1E42XQA8DA3EKIG9","71","0","COWBOY","1","BICYCLE","6","1","1135",,,,,"0","2018-10-22 14:06:52","287555"
"A3GCYGO7UPKXO9","cs_wg_rev_conf_v3_real1","3I33IC7ZWF3AUMA9TZKOR6VQGNBA2F","17","0","WHISKER","13","BANANA","15","0","676",,,,,"0","2018-10-22 14:06:52","287556"
"A2S2R828LEF0JM","cs_wg_rev_conf_v3_real1","39GHHAVOMFSVYTS0RJGPDKV7QO1J40","12","0","CANCER","7","ACROBAT","6","0","7242",,,,,"1","2018-10-22 14:06:53","287557"
"A1D68GESUYX17I","cs_wg_rev_conf_v3_real1","3YW4XOSQKQMNKA6BG011MOXFVKP1U1","14","0","THUMB","8","BAKER","3","0","1666",,,,,"0","2018-10-22 14:06:53","287558"
"A19RMYC38G1HAF","cs_wg_rev_conf_v3_real1","3DI28L7YXAF6VE9PQ0MWI6BC9WVE1X","2","0","BAKER","3","POTATO","7","1","4826",,,,,"1","2018-10-22 14:06:54","287559"
"A3CXJ18H14DXBN","cs_wg_rev_conf_v3_real1","3DY46V3X3PJ5NDHFGMV5H2IG8J2556","29","0","GRENADE","7","BASKET","13","0","387",,,,,"0","2018-10-22 14:06:54","287560"
"A2NDN67FSZQIVE","cs_wg_rev_conf_v3_real1","3M0NZ3JDP1Z3UR14NA2L66PB9IA5ZD","27","0","AVOCADO","7","SUNBURN","8","1","1606",,,,,"0","2018-10-22 14:06:55","287561"
"APEL59XES65M6","cs_wg_rev_conf_v3_real1","3NVC2EB65Q00BM4VD5C9D2IPPSDY3N","6","0","TOMATO","10","COWBOY","1","0","8842",,,,,"1","2018-10-22 14:06:55","287562"
"A1ER7Z5J872XAB","cs_wg_rev_conf_v3_real1","3WT783CTPBISBE73W69QYUOIAWABCL","6","0","ACROBAT","7","MONKEY","13","1","1052",,,,,"0","2018-10-22 14:06:55","287563"
"A16LAWY44MSFDQ","cs_wg_rev_conf_v3_real1","38F71OA9GTXVXHVAEXP0KGKFJ85MFV","25","0","CRICKET","3","BUCKET","13","1","1531",,,,,"0","2018-10-22 14:06:55","287564"
"A3GCYGO7UPKXO9","cs_wg_rev_conf_v3_real1","3I33IC7ZWF3AUMA9TZKOR6VQGNBA2F","18","0","WIZARD","6","AIRBAG","7","0","1151",,,,,"0","2018-10-22 14:06:55","287565"
"AJW15EZADTNAF","cs_wg_rev_conf_v3_real1","3YWRV122CS05VAQWFLAG1YKN9QVU8E","8","0","CANCER","15","VOLCANO","6","0","4335",,,,,"1","2018-10-22 14:06:56","287566"
"A3BSFYZJI3P2WS","cs_wg_rev_conf_v3_real1","32M8BPYGATNFFY1E42XQA8DA3EKIG9","72","0","COWBOY","1","VOLCANO","9","1","1930",,,,,"0","2018-10-22 14:06:56","287567"
