"subject","version","assignmentId","trial","trial_type","word","value","alt","value2","choice","rt","resp","resp2","resp3","resp4","used_hint","stamp","id"
"A5TI9UQEPLNWI","cs_wg_mon_deconf_v1_pilot2","317HQ483I7TLPQI0R6AL0SM879ZNIM","0","0","JUNE","12","NOVEMBER","3","0","7069",,,,,"0","2018-11-02 20:08:02","363592"
"A5TI9UQEPLNWI","cs_wg_mon_deconf_v1_pilot2","317HQ483I7TLPQI0R6AL0SM879ZNIM","1","0","MARCH","1","SEPTEMBER","8","0","2443",,,,,"0","2018-11-02 20:08:10","363596"
"AYYL6SPHBIWB","cs_wg_mon_deconf_v1_pilot2","3ATTHHXXWAPQ1KW4TCXUYUD69N9IX1","0","0","FEBRUARY","14","OCTOBER","2","0","8385",,,,,"1","2018-11-02 20:08:14","363598"
"A5TI9UQEPLNWI","cs_wg_mon_deconf_v1_pilot2","317HQ483I7TLPQI0R6AL0SM879ZNIM","2","0","NOVEMBER","3","JUNE","12","0","3239",,,,,"0","2018-11-02 20:08:18","363600"
"AYYL6SPHBIWB","cs_wg_mon_deconf_v1_pilot2","3ATTHHXXWAPQ1KW4TCXUYUD69N9IX1","1","0","JULY","3","DECEMBER","10","1","5591",,,,,"1","2018-11-02 20:08:22","363603"
"A5TI9UQEPLNWI","cs_wg_mon_deconf_v1_pilot2","317HQ483I7TLPQI0R6AL0SM879ZNIM","3","0","NOVEMBER","3","JUNE","12","1","1921",,,,,"0","2018-11-02 20:08:24","363604"
"AYYL6SPHBIWB","cs_wg_mon_deconf_v1_pilot2","3ATTHHXXWAPQ1KW4TCXUYUD69N9IX1","2","0","JANUARY","2","NOVEMBER","4","1","5159",,,,,"1","2018-11-02 20:08:29","363607"
"A5TI9UQEPLNWI","cs_wg_mon_deconf_v1_pilot2","317HQ483I7TLPQI0R6AL0SM879ZNIM","4","0","OCTOBER","14","JANUARY","2","0","2476",,,,,"0","2018-11-02 20:08:32","363608"
"A27Y4NEIQQH00M","cs_wg_mon_deconf_v1_pilot2","3TXMY6UCAEPFFK9SFO6GTJJIZF2QCA","0","0","MARCH","14","JULY","3","0","11988",,,,,"1","2018-11-02 20:08:35","363611"
"AYYL6SPHBIWB","cs_wg_mon_deconf_v1_pilot2","3ATTHHXXWAPQ1KW4TCXUYUD69N9IX1","3","0","DECEMBER","10","JULY","3","0","3887",,,,,"1","2018-11-02 20:08:35","363612"
"A5TI9UQEPLNWI","cs_wg_mon_deconf_v1_pilot2","317HQ483I7TLPQI0R6AL0SM879ZNIM","5","0","APRIL","6","FEBRUARY","3","0","2791",,,,,"0","2018-11-02 20:08:39","363613"
"A1XZ40T91S5YFU","cs_wg_mon_deconf_v1_pilot2","37TRT2X24QSFJSD96YQCLY1E3ZABJX","0","0","MAY","3","NOVEMBER","14","0","8322",,,,,"0","2018-11-02 20:08:40","363615"
"AYYL6SPHBIWB","cs_wg_mon_deconf_v1_pilot2","3ATTHHXXWAPQ1KW4TCXUYUD69N9IX1","4","0","MARCH","8","APRIL","1","0","3734",,,,,"1","2018-11-02 20:08:41","363617"
"A27Y4NEIQQH00M","cs_wg_mon_deconf_v1_pilot2","3TXMY6UCAEPFFK9SFO6GTJJIZF2QCA","1","0","FEBRUARY","3","JUNE","12","1","3594",,,,,"0","2018-11-02 20:08:43","363618"
"A5TI9UQEPLNWI","cs_wg_mon_deconf_v1_pilot2","317HQ483I7TLPQI0R6AL0SM879ZNIM","6","0","MARCH","1","SEPTEMBER","8","1","2264",,,,,"0","2018-11-02 20:08:45","363619"
"AYYL6SPHBIWB","cs_wg_mon_deconf_v1_pilot2","3ATTHHXXWAPQ1KW4TCXUYUD69N9IX1","5","0","MAY","1","JUNE","6","1","3250",,,,,"1","2018-11-02 20:08:47","363621"
"A27Y4NEIQQH00M","cs_wg_mon_deconf_v1_pilot2","3TXMY6UCAEPFFK9SFO6GTJJIZF2QCA","2","0","FEBRUARY","3","JUNE","12","1","3330",,,,,"0","2018-11-02 20:08:49","363623"
"A1XZ40T91S5YFU","cs_wg_mon_deconf_v1_pilot2","37TRT2X24QSFJSD96YQCLY1E3ZABJX","1","0","DECEMBER","2","AUGUST","8","0","1188",,,,,"0","2018-11-02 20:08:50","363624"
"A5TI9UQEPLNWI","cs_wg_mon_deconf_v1_pilot2","317HQ483I7TLPQI0R6AL0SM879ZNIM","7","0","OCTOBER","14","JANUARY","2","0","1749",,,,,"0","2018-11-02 20:08:50","363625"
"A2VZIJ7AZ537QP","cs_wg_mon_deconf_v1_pilot2","3H0W84IWBK3UOJ86OU1BOXTQGDHRE5","0","0","FEBRUARY","3","APRIL","8","1","5907",,,,,"0","2018-11-02 20:08:52","363627"
"A27Y4NEIQQH00M","cs_wg_mon_deconf_v1_pilot2","3TXMY6UCAEPFFK9SFO6GTJJIZF2QCA","3","0","APRIL","10","AUGUST","1","1","1985",,,,,"0","2018-11-02 20:08:53","363628"
"AYYL6SPHBIWB","cs_wg_mon_deconf_v1_pilot2","3ATTHHXXWAPQ1KW4TCXUYUD69N9IX1","6","0","FEBRUARY","14","OCTOBER","2","0","4509",,,,,"1","2018-11-02 20:08:54","363629"
"A1XZ40T91S5YFU","cs_wg_mon_deconf_v1_pilot2","37TRT2X24QSFJSD96YQCLY1E3ZABJX","2","0","MAY","3","NOVEMBER","14","1","3666",,,,,"0","2018-11-02 20:08:56","363631"
"A2VZIJ7AZ537QP","cs_wg_mon_deconf_v1_pilot2","3H0W84IWBK3UOJ86OU1BOXTQGDHRE5","1","0","JULY","10","DECEMBER","1","0","1821",,,,,"0","2018-11-02 20:08:58","363632"
"A27Y4NEIQQH00M","cs_wg_mon_deconf_v1_pilot2","3TXMY6UCAEPFFK9SFO6GTJJIZF2QCA","4","0","FEBRUARY","3","JUNE","12","1","3560",,,,,"0","2018-11-02 20:08:59","363634"
"A1XZ40T91S5YFU","cs_wg_mon_deconf_v1_pilot2","37TRT2X24QSFJSD96YQCLY1E3ZABJX","3","0","APRIL","3","JULY","12","0","1259",,,,,"0","2018-11-02 20:09:00","363635"
"AYYL6SPHBIWB","cs_wg_mon_deconf_v1_pilot2","3ATTHHXXWAPQ1KW4TCXUYUD69N9IX1","7","0","JUNE","6","MAY","1","0","4351",,,,,"1","2018-11-02 20:09:00","363636"
"A2VZIJ7AZ537QP","cs_wg_mon_deconf_v1_pilot2","3H0W84IWBK3UOJ86OU1BOXTQGDHRE5","2","0","DECEMBER","1","JULY","10","0","2250",,,,,"0","2018-11-02 20:09:03","363637"
"A5TI9UQEPLNWI","cs_wg_mon_deconf_v1_pilot2","317HQ483I7TLPQI0R6AL0SM879ZNIM","8","0","AUGUST","4","JULY","2","0","10659",,,,,"1","2018-11-02 20:09:04","363638"
"A27Y4NEIQQH00M","cs_wg_mon_deconf_v1_pilot2","3TXMY6UCAEPFFK9SFO6GTJJIZF2QCA","5","0","SEPTEMBER","1","NOVEMBER","6","0","3033",,,,,"0","2018-11-02 20:09:05","363640"
"AYYL6SPHBIWB","cs_wg_mon_deconf_v1_pilot2","3ATTHHXXWAPQ1KW4TCXUYUD69N9IX1","8","0","JUNE","6","MAY","1","0","3057",,,,,"0","2018-11-02 20:09:06","363641"
"A2VZIJ7AZ537QP","cs_wg_mon_deconf_v1_pilot2","3H0W84IWBK3UOJ86OU1BOXTQGDHRE5","3","0","FEBRUARY","3","APRIL","8","1","2236",,,,,"0","2018-11-02 20:09:07","363643"
"A1XZ40T91S5YFU","cs_wg_mon_deconf_v1_pilot2","37TRT2X24QSFJSD96YQCLY1E3ZABJX","4","0","NOVEMBER","14","MAY","3","0","6482",,,,,"1","2018-11-02 20:09:09","363644"
"ANU6OTXYGSSTX","cs_wg_mon_deconf_v1_pilot2","3MD9PLUKKIF7KG7ARAY70NPY3M1NZJ","0","0","AUGUST","6","OCTOBER","1","0","5083",,,,,"0","2018-11-02 20:09:10","363645"
"A2VZIJ7AZ537QP","cs_wg_mon_deconf_v1_pilot2","3H0W84IWBK3UOJ86OU1BOXTQGDHRE5","4","0","JUNE","4","SEPTEMBER","2","1","1362",,,,,"0","2018-11-02 20:09:11","363646"
"A27Y4NEIQQH00M","cs_wg_mon_deconf_v1_pilot2","3TXMY6UCAEPFFK9SFO6GTJJIZF2QCA","6","0","JANUARY","2","MAY","4","0","3382",,,,,"0","2018-11-02 20:09:11","363647"
"AYYL6SPHBIWB","cs_wg_mon_deconf_v1_pilot2","3ATTHHXXWAPQ1KW4TCXUYUD69N9IX1","9","0","JANUARY","2","NOVEMBER","4","1","4084",,,,,"1","2018-11-02 20:09:13","363648"
"A5TI9UQEPLNWI","cs_wg_mon_deconf_v1_pilot2","317HQ483I7TLPQI0R6AL0SM879ZNIM","9","0","MAY","10","DECEMBER","1","0","4953",,,,,"1","2018-11-02 20:09:13","363649"
"A1XZ40T91S5YFU","cs_wg_mon_deconf_v1_pilot2","37TRT2X24QSFJSD96YQCLY1E3ZABJX","5","0","JUNE","4","MARCH","1","0","1130",,,,,"0","2018-11-02 20:09:13","363650"
"A2VXEPC4KG1CWU","cs_wg_mon_deconf_v1_pilot2","3IGI0VL647LVLCT3P1NQKPIUJIYNOH","0","0","OCTOBER","3","FEBRUARY","14","1","10487",,,,,"1","2018-11-02 20:09:14","363651"
"A2VZIJ7AZ537QP","cs_wg_mon_deconf_v1_pilot2","3H0W84IWBK3UOJ86OU1BOXTQGDHRE5","5","0","JANUARY","14","MAY","3","0","965",,,,,"0","2018-11-02 20:09:14","363652"
"AC05CZ95ORIMY","cs_wg_mon_deconf_v1_pilot2","3TR2532VIPV9DGWEA794AIFMPYZJ6K","0","0","APRIL","2","NOVEMBER","14","1","6980",,,,,"1","2018-11-02 20:09:15","363653"
"A277V4SHQB8JRS","cs_wg_mon_deconf_v1_pilot2","3IAEQB9FMELU49BSRT0X5EJM8GVDW1","0","0","OCTOBER","3","NOVEMBER","14","1","9869",,,,,"1","2018-11-02 20:09:15","363654"
"A2VZIJ7AZ537QP","cs_wg_mon_deconf_v1_pilot2","3H0W84IWBK3UOJ86OU1BOXTQGDHRE5","6","0","AUGUST","12","NOVEMBER","1","1","1427",,,,,"0","2018-11-02 20:09:18","363655"
"A27Y4NEIQQH00M","cs_wg_mon_deconf_v1_pilot2","3TXMY6UCAEPFFK9SFO6GTJJIZF2QCA","7","0","APRIL","10","AUGUST","1","1","3006",,,,,"0","2018-11-02 20:09:18","363656"
"ANU6OTXYGSSTX","cs_wg_mon_deconf_v1_pilot2","3MD9PLUKKIF7KG7ARAY70NPY3M1NZJ","1","0","APRIL","14","JUNE","3","0","4631",,,,,"0","2018-11-02 20:09:18","363657"
"AYYL6SPHBIWB","cs_wg_mon_deconf_v1_pilot2","3ATTHHXXWAPQ1KW4TCXUYUD69N9IX1","10","0","OCTOBER","2","FEBRUARY","14","1","2870",,,,,"1","2018-11-02 20:09:18","363658"
"A2VZIJ7AZ537QP","cs_wg_mon_deconf_v1_pilot2","3H0W84IWBK3UOJ86OU1BOXTQGDHRE5","7","0","NOVEMBER","1","AUGUST","12","0","754",,,,,"0","2018-11-02 20:09:21","363659"
"A5TI9UQEPLNWI","cs_wg_mon_deconf_v1_pilot2","317HQ483I7TLPQI0R6AL0SM879ZNIM","10","0","APRIL","6","FEBRUARY","3","0","5287",,,,,"1","2018-11-02 20:09:22","363660"
"AYYL6SPHBIWB","cs_wg_mon_deconf_v1_pilot2","3ATTHHXXWAPQ1KW4TCXUYUD69N9IX1","11","0","FEBRUARY","14","OCTOBER","2","0","2227",,,,,"0","2018-11-02 20:09:22","363661"
"A27Y4NEIQQH00M","cs_wg_mon_deconf_v1_pilot2","3TXMY6UCAEPFFK9SFO6GTJJIZF2QCA","8","0","JUNE","12","FEBRUARY","3","0","2090",,,,,"0","2018-11-02 20:09:22","363662"
"AC05CZ95ORIMY","cs_wg_mon_deconf_v1_pilot2","3TR2532VIPV9DGWEA794AIFMPYZJ6K","1","0","MAY","1","DECEMBER","6","1","4286",,,,,"1","2018-11-02 20:09:22","363663"
"ANU6OTXYGSSTX","cs_wg_mon_deconf_v1_pilot2","3MD9PLUKKIF7KG7ARAY70NPY3M1NZJ","2","0","SEPTEMBER","8","DECEMBER","1","0","2153",,,,,"0","2018-11-02 20:09:23","363664"
"A3NGQ3WR96BKQ3","cs_wg_mon_deconf_v1_pilot2","36V4Q8R5ZK1SO6LJSD0UWFOUTT6QMS","0","0","JULY","6","SEPTEMBER","3","1","16150",,,,,"0","2018-11-02 20:09:23","363665"
"A1XZ40T91S5YFU","cs_wg_mon_deconf_v1_pilot2","37TRT2X24QSFJSD96YQCLY1E3ZABJX","6","0","JULY","12","APRIL","3","1","2075",,,,,"0","2018-11-02 20:09:23","363666"
"A2VXEPC4KG1CWU","cs_wg_mon_deconf_v1_pilot2","3IGI0VL647LVLCT3P1NQKPIUJIYNOH","1","0","MAY","10","AUGUST","1","0","2461",,,,,"1","2018-11-02 20:09:23","363667"
"A2VZIJ7AZ537QP","cs_wg_mon_deconf_v1_pilot2","3H0W84IWBK3UOJ86OU1BOXTQGDHRE5","8","0","MARCH","2","OCTOBER","6","1","1554",,,,,"0","2018-11-02 20:09:25","363668"
"AYYL6SPHBIWB","cs_wg_mon_deconf_v1_pilot2","3ATTHHXXWAPQ1KW4TCXUYUD69N9IX1","12","0","MAY","1","JUNE","6","1","2608",,,,,"0","2018-11-02 20:09:27","363669"
"A27Y4NEIQQH00M","cs_wg_mon_deconf_v1_pilot2","3TXMY6UCAEPFFK9SFO6GTJJIZF2QCA","9","0","JULY","3","MARCH","14","1","2786",,,,,"0","2018-11-02 20:09:27","363670"
"A277V4SHQB8JRS","cs_wg_mon_deconf_v1_pilot2","3IAEQB9FMELU49BSRT0X5EJM8GVDW1","1","0","JANUARY","1","DECEMBER","4","1","8965",,,,,"1","2018-11-02 20:09:27","363671"
"A2VZIJ7AZ537QP","cs_wg_mon_deconf_v1_pilot2","3H0W84IWBK3UOJ86OU1BOXTQGDHRE5","9","0","OCTOBER","6","MARCH","2","0","703",,,,,"0","2018-11-02 20:09:28","363672"
"AZA73HKJIZ7FL","cs_wg_mon_deconf_v1_pilot2","34X6J5FLPTZ2NYFYPGN2GNWDPZBQJO","0","0","NOVEMBER","2","JULY","10","0","6615",,,,,"0","2018-11-02 20:09:28","363673"
"A1XZ40T91S5YFU","cs_wg_mon_deconf_v1_pilot2","37TRT2X24QSFJSD96YQCLY1E3ZABJX","7","0","JANUARY","1","OCTOBER","10","0","1700",,,,,"0","2018-11-02 20:09:30","363674"
"A5TI9UQEPLNWI","cs_wg_mon_deconf_v1_pilot2","317HQ483I7TLPQI0R6AL0SM879ZNIM","11","0","FEBRUARY","3","APRIL","6","1","4623",,,,,"1","2018-11-02 20:09:30","363675"
"ANU6OTXYGSSTX","cs_wg_mon_deconf_v1_pilot2","3MD9PLUKKIF7KG7ARAY70NPY3M1NZJ","3","0","JANUARY","3","MAY","10","0","4114",,,,,"0","2018-11-02 20:09:30","363676"
"A2VXEPC4KG1CWU","cs_wg_mon_deconf_v1_pilot2","3IGI0VL647LVLCT3P1NQKPIUJIYNOH","2","0","NOVEMBER","4","JANUARY","1","0","2990",,,,,"1","2018-11-02 20:09:30","363677"
"AC05CZ95ORIMY","cs_wg_mon_deconf_v1_pilot2","3TR2532VIPV9DGWEA794AIFMPYZJ6K","2","0","DECEMBER","6","MAY","1","0","5128",,,,,"1","2018-11-02 20:09:30","363678"
"A2VZIJ7AZ537QP","cs_wg_mon_deconf_v1_pilot2","3H0W84IWBK3UOJ86OU1BOXTQGDHRE5","10","0","JANUARY","14","MAY","3","0","834",,,,,"0","2018-11-02 20:09:31","363679"
"A1XZ40T91S5YFU","cs_wg_mon_deconf_v1_pilot2","37TRT2X24QSFJSD96YQCLY1E3ZABJX","8","0","AUGUST","8","DECEMBER","2","0","1361",,,,,"0","2018-11-02 20:09:31","363680"
"A27Y4NEIQQH00M","cs_wg_mon_deconf_v1_pilot2","3TXMY6UCAEPFFK9SFO6GTJJIZF2QCA","10","0","JUNE","12","FEBRUARY","3","0","1964",,,,,"0","2018-11-02 20:09:31","363681"
"AZA73HKJIZ7FL","cs_wg_mon_deconf_v1_pilot2","34X6J5FLPTZ2NYFYPGN2GNWDPZBQJO","1","0","MARCH","2","OCTOBER","4","1","1440",,,,,"0","2018-11-02 20:09:32","363682"
"A2VZIJ7AZ537QP","cs_wg_mon_deconf_v1_pilot2","3H0W84IWBK3UOJ86OU1BOXTQGDHRE5","11","0","MAY","3","JANUARY","14","0","1054",,,,,"0","2018-11-02 20:09:34","363683"
"A1XZ40T91S5YFU","cs_wg_mon_deconf_v1_pilot2","37TRT2X24QSFJSD96YQCLY1E3ZABJX","9","0","AUGUST","8","DECEMBER","2","0","1473",,,,,"0","2018-11-02 20:09:35","363684"
"A27Y4NEIQQH00M","cs_wg_mon_deconf_v1_pilot2","3TXMY6UCAEPFFK9SFO6GTJJIZF2QCA","11","0","FEBRUARY","3","JUNE","12","1","2700",,,,,"0","2018-11-02 20:09:36","363685"
"AYYL6SPHBIWB","cs_wg_mon_deconf_v1_pilot2","3ATTHHXXWAPQ1KW4TCXUYUD69N9IX1","13","0","NOVEMBER","4","JANUARY","2","0","5895",,,,,"1","2018-11-02 20:09:36","363686"
"ANU6OTXYGSSTX","cs_wg_mon_deconf_v1_pilot2","3MD9PLUKKIF7KG7ARAY70NPY3M1NZJ","4","0","FEBRUARY","4","NOVEMBER","2","1","2825",,,,,"0","2018-11-02 20:09:36","363687"
"A2VXEPC4KG1CWU","cs_wg_mon_deconf_v1_pilot2","3IGI0VL647LVLCT3P1NQKPIUJIYNOH","3","0","MARCH","8","DECEMBER","3","0","3133",,,,,"1","2018-11-02 20:09:36","363688"
"A5TI9UQEPLNWI","cs_wg_mon_deconf_v1_pilot2","317HQ483I7TLPQI0R6AL0SM879ZNIM","12","0","MAY","10","DECEMBER","1","0","3389",,,,,"0","2018-11-02 20:09:36","363689"
"A2VZIJ7AZ537QP","cs_wg_mon_deconf_v1_pilot2","3H0W84IWBK3UOJ86OU1BOXTQGDHRE5","12","0","NOVEMBER","1","AUGUST","12","1","841",,,,,"0","2018-11-02 20:09:37","363690"
"AC05CZ95ORIMY","cs_wg_mon_deconf_v1_pilot2","3TR2532VIPV9DGWEA794AIFMPYZJ6K","3","0","SEPTEMBER","10","JUNE","3","0","4562",,,,,"1","2018-11-02 20:09:38","363691"
"AZA73HKJIZ7FL","cs_wg_mon_deconf_v1_pilot2","34X6J5FLPTZ2NYFYPGN2GNWDPZBQJO","2","0","JANUARY","14","AUGUST","3","0","1794",,,,,"0","2018-11-02 20:09:38","363692"
"A3NGQ3WR96BKQ3","cs_wg_mon_deconf_v1_pilot2","36V4Q8R5ZK1SO6LJSD0UWFOUTT6QMS","1","0","APRIL","4","JANUARY","3","0","12451",,,,,"0","2018-11-02 20:09:38","363693"
"A27Y4NEIQQH00M","cs_wg_mon_deconf_v1_pilot2","3TXMY6UCAEPFFK9SFO6GTJJIZF2QCA","12","0","MARCH","14","JULY","3","0","1893",,,,,"0","2018-11-02 20:09:39","363694"
"AYYL6SPHBIWB","cs_wg_mon_deconf_v1_pilot2","3ATTHHXXWAPQ1KW4TCXUYUD69N9IX1","14","0","NOVEMBER","4","JANUARY","2","0","1805",,,,,"0","2018-11-02 20:09:39","363695"
"A277V4SHQB8JRS","cs_wg_mon_deconf_v1_pilot2","3IAEQB9FMELU49BSRT0X5EJM8GVDW1","2","0","NOVEMBER","14","OCTOBER","3","0","10396",,,,,"1","2018-11-02 20:09:40","363696"
"A1XZ40T91S5YFU","cs_wg_mon_deconf_v1_pilot2","37TRT2X24QSFJSD96YQCLY1E3ZABJX","10","0","OCTOBER","10","JANUARY","1","0","1118",,,,,"0","2018-11-02 20:09:40","363697"
"A2VZIJ7AZ537QP","cs_wg_mon_deconf_v1_pilot2","3H0W84IWBK3UOJ86OU1BOXTQGDHRE5","13","0","JULY","10","DECEMBER","1","1","2062",,,,,"0","2018-11-02 20:09:41","363698"
"AZA73HKJIZ7FL","cs_wg_mon_deconf_v1_pilot2","34X6J5FLPTZ2NYFYPGN2GNWDPZBQJO","3","0","OCTOBER","4","MARCH","2","0","1518",,,,,"0","2018-11-02 20:09:42","363699"
"A5TI9UQEPLNWI","cs_wg_mon_deconf_v1_pilot2","317HQ483I7TLPQI0R6AL0SM879ZNIM","13","0","DECEMBER","1","MAY","10","1","2507",,,,,"0","2018-11-02 20:09:43","363700"
"A1XZ40T91S5YFU","cs_wg_mon_deconf_v1_pilot2","37TRT2X24QSFJSD96YQCLY1E3ZABJX","11","0","MAY","3","NOVEMBER","14","0","1363",,,,,"0","2018-11-02 20:09:43","363701"
"A2VXEPC4KG1CWU","cs_wg_mon_deconf_v1_pilot2","3IGI0VL647LVLCT3P1NQKPIUJIYNOH","4","0","JANUARY","1","NOVEMBER","4","1","4697",,,,,"1","2018-11-02 20:09:43","363702"
"ANU6OTXYGSSTX","cs_wg_mon_deconf_v1_pilot2","3MD9PLUKKIF7KG7ARAY70NPY3M1NZJ","5","0","MAY","10","JANUARY","3","0","4586",,,,,"0","2018-11-02 20:09:43","363703"
"AC05CZ95ORIMY","cs_wg_mon_deconf_v1_pilot2","3TR2532VIPV9DGWEA794AIFMPYZJ6K","4","0","JUNE","3","SEPTEMBER","10","1","3201",,,,,"1","2018-11-02 20:09:44","363704"
"A27Y4NEIQQH00M","cs_wg_mon_deconf_v1_pilot2","3TXMY6UCAEPFFK9SFO6GTJJIZF2QCA","13","0","DECEMBER","8","OCTOBER","2","0","2287",,,,,"0","2018-11-02 20:09:44","363705"
"A2VZIJ7AZ537QP","cs_wg_mon_deconf_v1_pilot2","3H0W84IWBK3UOJ86OU1BOXTQGDHRE5","14","0","FEBRUARY","3","APRIL","8","1","1405",,,,,"0","2018-11-02 20:09:44","363706"
"AZA73HKJIZ7FL","cs_wg_mon_deconf_v1_pilot2","34X6J5FLPTZ2NYFYPGN2GNWDPZBQJO","4","0","MARCH","2","OCTOBER","4","1","718",,,,,"0","2018-11-02 20:09:45","363707"
"A1XZ40T91S5YFU","cs_wg_mon_deconf_v1_pilot2","37TRT2X24QSFJSD96YQCLY1E3ZABJX","12","0","DECEMBER","2","AUGUST","8","0","979",,,,,"0","2018-11-02 20:09:46","363708"
"AYYL6SPHBIWB","cs_wg_mon_deconf_v1_pilot2","3ATTHHXXWAPQ1KW4TCXUYUD69N9IX1","15","0","AUGUST","12","SEPTEMBER","3","0","3823",,,,,"1","2018-11-02 20:09:46","363709"
"A27Y4NEIQQH00M","cs_wg_mon_deconf_v1_pilot2","3TXMY6UCAEPFFK9SFO6GTJJIZF2QCA","14","0","MARCH","14","JULY","3","0","1240",,,,,"0","2018-11-02 20:09:47","363710"
"A2VZIJ7AZ537QP","cs_wg_mon_deconf_v1_pilot2","3H0W84IWBK3UOJ86OU1BOXTQGDHRE5","15","0","JUNE","4","SEPTEMBER","2","1","1049",,,,,"0","2018-11-02 20:09:47","363711"
"A277V4SHQB8JRS","cs_wg_mon_deconf_v1_pilot2","3IAEQB9FMELU49BSRT0X5EJM8GVDW1","3","0","JUNE","10","APRIL","2","0","4990",,,,,"1","2018-11-02 20:09:48","363712"
"A5TI9UQEPLNWI","cs_wg_mon_deconf_v1_pilot2","317HQ483I7TLPQI0R6AL0SM879ZNIM","14","0","JANUARY","2","OCTOBER","14","1","2392",,,,,"0","2018-11-02 20:09:48","363713"
"A3NGQ3WR96BKQ3","cs_wg_mon_deconf_v1_pilot2","36V4Q8R5ZK1SO6LJSD0UWFOUTT6QMS","2","0","MARCH","1","FEBRUARY","8","0","6904",,,,,"0","2018-11-02 20:09:48","363714"
"A2VXEPC4KG1CWU","cs_wg_mon_deconf_v1_pilot2","3IGI0VL647LVLCT3P1NQKPIUJIYNOH","5","0","JUNE","12","APRIL","2","0","3188",,,,,"1","2018-11-02 20:09:49","363715"
"A27Y4NEIQQH00M","cs_wg_mon_deconf_v1_pilot2","3TXMY6UCAEPFFK9SFO6GTJJIZF2QCA","15","0","MARCH","14","JULY","3","0","1345",,,,,"0","2018-11-02 20:09:50","363716"
"ANU6OTXYGSSTX","cs_wg_mon_deconf_v1_pilot2","3MD9PLUKKIF7KG7ARAY70NPY3M1NZJ","6","0","SEPTEMBER","8","DECEMBER","1","0","4362",,,,,"0","2018-11-02 20:09:51","363717"
"A1XZ40T91S5YFU","cs_wg_mon_deconf_v1_pilot2","37TRT2X24QSFJSD96YQCLY1E3ZABJX","13","0","FEBRUARY","6","SEPTEMBER","2","1","2413",,,,,"0","2018-11-02 20:09:51","363718"
"A2VZIJ7AZ537QP","cs_wg_mon_deconf_v1_pilot2","3H0W84IWBK3UOJ86OU1BOXTQGDHRE5","16","0","SEPTEMBER","2","JUNE","4","1","2296",,,,,"0","2018-11-02 20:09:51","363719"
"AYYL6SPHBIWB","cs_wg_mon_deconf_v1_pilot2","3ATTHHXXWAPQ1KW4TCXUYUD69N9IX1","16","0","SEPTEMBER","3","AUGUST","12","1","3270",,,,,"1","2018-11-02 20:09:52","363720"
"AZA73HKJIZ7FL","cs_wg_mon_deconf_v1_pilot2","34X6J5FLPTZ2NYFYPGN2GNWDPZBQJO","5","0","MAY","6","APRIL","1","1","806",,,,,"0","2018-11-02 20:09:52","363721"
"AC05CZ95ORIMY","cs_wg_mon_deconf_v1_pilot2","3TR2532VIPV9DGWEA794AIFMPYZJ6K","5","0","OCTOBER","1","AUGUST","4","1","6232",,,,,"1","2018-11-02 20:09:53","363722"
"A2VZIJ7AZ537QP","cs_wg_mon_deconf_v1_pilot2","3H0W84IWBK3UOJ86OU1BOXTQGDHRE5","17","0","JANUARY","14","MAY","3","0","738",,,,,"0","2018-11-02 20:09:54","363723"
"A2VXEPC4KG1CWU","cs_wg_mon_deconf_v1_pilot2","3IGI0VL647LVLCT3P1NQKPIUJIYNOH","6","0","MAY","10","AUGUST","1","0","2809",,,,,"1","2018-11-02 20:09:54","363724"
"A27Y4NEIQQH00M","cs_wg_mon_deconf_v1_pilot2","3TXMY6UCAEPFFK9SFO6GTJJIZF2QCA","16","0","JULY","3","MARCH","14","1","2331",,,,,"0","2018-11-02 20:09:54","363725"
"A1XZ40T91S5YFU","cs_wg_mon_deconf_v1_pilot2","37TRT2X24QSFJSD96YQCLY1E3ZABJX","14","0","FEBRUARY","6","SEPTEMBER","2","0","899",,,,,"0","2018-11-02 20:09:55","363726"
"A5TI9UQEPLNWI","cs_wg_mon_deconf_v1_pilot2","317HQ483I7TLPQI0R6AL0SM879ZNIM","15","0","AUGUST","4","JULY","2","0","5007",,,,,"0","2018-11-02 20:09:56","363727"
"A2VZIJ7AZ537QP","cs_wg_mon_deconf_v1_pilot2","3H0W84IWBK3UOJ86OU1BOXTQGDHRE5","18","0","OCTOBER","6","MARCH","2","0","1107",,,,,"0","2018-11-02 20:09:57","363728"
"ANU6OTXYGSSTX","cs_wg_mon_deconf_v1_pilot2","3MD9PLUKKIF7KG7ARAY70NPY3M1NZJ","7","0","APRIL","14","JUNE","3","0","2803",,,,,"0","2018-11-02 20:09:57","363729"
"AYYL6SPHBIWB","cs_wg_mon_deconf_v1_pilot2","3ATTHHXXWAPQ1KW4TCXUYUD69N9IX1","17","0","APRIL","1","MARCH","8","1","3566",,,,,"1","2018-11-02 20:09:57","363730"
"AZA73HKJIZ7FL","cs_wg_mon_deconf_v1_pilot2","34X6J5FLPTZ2NYFYPGN2GNWDPZBQJO","6","0","FEBRUARY","1","JUNE","12","0","2358",,,,,"0","2018-11-02 20:09:58","363731"
"A277V4SHQB8JRS","cs_wg_mon_deconf_v1_pilot2","3IAEQB9FMELU49BSRT0X5EJM8GVDW1","4","0","MAY","8","AUGUST","3","0","7593",,,,,"1","2018-11-02 20:09:58","363732"
"A1XZ40T91S5YFU","cs_wg_mon_deconf_v1_pilot2","37TRT2X24QSFJSD96YQCLY1E3ZABJX","15","0","MAY","3","NOVEMBER","14","0","924",,,,,"0","2018-11-02 20:09:58","363733"
"A27Y4NEIQQH00M","cs_wg_mon_deconf_v1_pilot2","3TXMY6UCAEPFFK9SFO6GTJJIZF2QCA","17","0","OCTOBER","2","DECEMBER","8","1","2673",,,,,"0","2018-11-02 20:09:59","363734"
"A3AHB644URDPQW","cs_wg_mon_deconf_v1_pilot2","3R6P78PK7KC5OCHPYEWUOFFKHETTG1","0","0","MARCH","2","DECEMBER","8","1","6455",,,,,"0","2018-11-02 20:09:59","363735"
"A2VZIJ7AZ537QP","cs_wg_mon_deconf_v1_pilot2","3H0W84IWBK3UOJ86OU1BOXTQGDHRE5","19","0","AUGUST","12","NOVEMBER","1","1","912",,,,,"0","2018-11-02 20:09:59","363736"
"A2VXEPC4KG1CWU","cs_wg_mon_deconf_v1_pilot2","3IGI0VL647LVLCT3P1NQKPIUJIYNOH","7","0","MARCH","8","DECEMBER","3","0","2949",,,,,"1","2018-11-02 20:10:00","363737"
"A5TI9UQEPLNWI","cs_wg_mon_deconf_v1_pilot2","317HQ483I7TLPQI0R6AL0SM879ZNIM","16","0","MARCH","1","SEPTEMBER","8","1","1719",,,,,"0","2018-11-02 20:10:01","363738"
"AYYL6SPHBIWB","cs_wg_mon_deconf_v1_pilot2","3ATTHHXXWAPQ1KW4TCXUYUD69N9IX1","18","0","APRIL","1","MARCH","8","1","1390",,,,,"0","2018-11-02 20:10:01","363739"
"A1XZ40T91S5YFU","cs_wg_mon_deconf_v1_pilot2","37TRT2X24QSFJSD96YQCLY1E3ZABJX","16","0","JANUARY","1","OCTOBER","10","0","906",,,,,"0","2018-11-02 20:10:02","363740"
"A2VZIJ7AZ537QP","cs_wg_mon_deconf_v1_pilot2","3H0W84IWBK3UOJ86OU1BOXTQGDHRE5","20","0","MAY","3","JANUARY","14","0","1639",,,,,"0","2018-11-02 20:10:03","363741"
"A3NGQ3WR96BKQ3","cs_wg_mon_deconf_v1_pilot2","36V4Q8R5ZK1SO6LJSD0UWFOUTT6QMS","3","0","APRIL","4","JANUARY","3","1","11746",,,,,"0","2018-11-02 20:10:03","363742"
"AC05CZ95ORIMY","cs_wg_mon_deconf_v1_pilot2","3TR2532VIPV9DGWEA794AIFMPYZJ6K","6","0","AUGUST","4","OCTOBER","1","0","7227",,,,,"1","2018-11-02 20:10:03","363743"
"A27Y4NEIQQH00M","cs_wg_mon_deconf_v1_pilot2","3TXMY6UCAEPFFK9SFO6GTJJIZF2QCA","18","0","SEPTEMBER","1","NOVEMBER","6","1","3687",,,,,"0","2018-11-02 20:10:05","363744"
"A3AHB644URDPQW","cs_wg_mon_deconf_v1_pilot2","3R6P78PK7KC5OCHPYEWUOFFKHETTG1","1","0","FEBRUARY","1","NOVEMBER","14","1","3107",,,,,"0","2018-11-02 20:10:05","363745"
"A2VXEPC4KG1CWU","cs_wg_mon_deconf_v1_pilot2","3IGI0VL647LVLCT3P1NQKPIUJIYNOH","8","0","NOVEMBER","4","JANUARY","1","0","3132",,,,,"1","2018-11-02 20:10:05","363746"
"ANU6OTXYGSSTX","cs_wg_mon_deconf_v1_pilot2","3MD9PLUKKIF7KG7ARAY70NPY3M1NZJ","8","0","SEPTEMBER","8","DECEMBER","1","0","4704",,,,,"1","2018-11-02 20:10:05","363747"
"A2VZIJ7AZ537QP","cs_wg_mon_deconf_v1_pilot2","3H0W84IWBK3UOJ86OU1BOXTQGDHRE5","21","0","OCTOBER","6","MARCH","2","0","953",,,,,"0","2018-11-02 20:10:06","363748"
"AYYL6SPHBIWB","cs_wg_mon_deconf_v1_pilot2","3ATTHHXXWAPQ1KW4TCXUYUD69N9IX1","19","0","SEPTEMBER","3","AUGUST","12","1","3527",,,,,"1","2018-11-02 20:10:07","363749"
"A1XZ40T91S5YFU","cs_wg_mon_deconf_v1_pilot2","37TRT2X24QSFJSD96YQCLY1E3ZABJX","17","0","FEBRUARY","6","SEPTEMBER","2","1","1835",,,,,"0","2018-11-02 20:10:08","363750"
"A5TI9UQEPLNWI","cs_wg_mon_deconf_v1_pilot2","317HQ483I7TLPQI0R6AL0SM879ZNIM","17","0","JULY","2","AUGUST","4","1","3901",,,,,"0","2018-11-02 20:10:08","363751"
"A27Y4NEIQQH00M","cs_wg_mon_deconf_v1_pilot2","3TXMY6UCAEPFFK9SFO6GTJJIZF2QCA","19","0","FEBRUARY","3","JUNE","12","1","2469",,,,,"0","2018-11-02 20:10:09","363752"
"A3AHB644URDPQW","cs_wg_mon_deconf_v1_pilot2","3R6P78PK7KC5OCHPYEWUOFFKHETTG1","2","0","NOVEMBER","14","FEBRUARY","1","0","2231",,,,,"0","2018-11-02 20:10:09","363753"
"ANU6OTXYGSSTX","cs_wg_mon_deconf_v1_pilot2","3MD9PLUKKIF7KG7ARAY70NPY3M1NZJ","9","0","JUNE","3","APRIL","14","0","2154",,,,,"0","2018-11-02 20:10:10","363754"
"A2VXEPC4KG1CWU","cs_wg_mon_deconf_v1_pilot2","3IGI0VL647LVLCT3P1NQKPIUJIYNOH","9","0","JANUARY","1","NOVEMBER","4","1","2999",,,,,"0","2018-11-02 20:10:10","363755"
"AC05CZ95ORIMY","cs_wg_mon_deconf_v1_pilot2","3TR2532VIPV9DGWEA794AIFMPYZJ6K","7","0","FEBRUARY","8","JULY","3","0","3435",,,,,"1","2018-11-02 20:10:10","363756"
"A2VZIJ7AZ537QP","cs_wg_mon_deconf_v1_pilot2","3H0W84IWBK3UOJ86OU1BOXTQGDHRE5","22","0","MARCH","2","OCTOBER","6","0","2847",,,,,"0","2018-11-02 20:10:11","363757"
"A3NGQ3WR96BKQ3","cs_wg_mon_deconf_v1_pilot2","36V4Q8R5ZK1SO6LJSD0UWFOUTT6QMS","4","0","SEPTEMBER","3","JULY","6","0","5605",,,,,"0","2018-11-02 20:10:11","363758"
"A277V4SHQB8JRS","cs_wg_mon_deconf_v1_pilot2","3IAEQB9FMELU49BSRT0X5EJM8GVDW1","5","0","DECEMBER","4","JANUARY","1","0","11318",,,,,"1","2018-11-02 20:10:12","363759"
"A27Y4NEIQQH00M","cs_wg_mon_deconf_v1_pilot2","3TXMY6UCAEPFFK9SFO6GTJJIZF2QCA","20","0","SEPTEMBER","1","NOVEMBER","6","1","1941",,,,,"0","2018-11-02 20:10:13","363760"
"A3AHB644URDPQW","cs_wg_mon_deconf_v1_pilot2","3R6P78PK7KC5OCHPYEWUOFFKHETTG1","3","0","OCTOBER","12","AUGUST","2","0","1671",,,,,"0","2018-11-02 20:10:13","363761"
"A2VZIJ7AZ537QP","cs_wg_mon_deconf_v1_pilot2","3H0W84IWBK3UOJ86OU1BOXTQGDHRE5","23","0","AUGUST","12","NOVEMBER","1","1","925",,,,,"0","2018-11-02 20:10:14","363762"
"A5TI9UQEPLNWI","cs_wg_mon_deconf_v1_pilot2","317HQ483I7TLPQI0R6AL0SM879ZNIM","18","0","NOVEMBER","3","JUNE","12","1","2759",,,,,"0","2018-11-02 20:10:14","363763"
"A1XZ40T91S5YFU","cs_wg_mon_deconf_v1_pilot2","37TRT2X24QSFJSD96YQCLY1E3ZABJX","18","0","DECEMBER","2","AUGUST","8","0","2275",,,,,"0","2018-11-02 20:10:14","363764"
"ANU6OTXYGSSTX","cs_wg_mon_deconf_v1_pilot2","3MD9PLUKKIF7KG7ARAY70NPY3M1NZJ","10","0","OCTOBER","1","AUGUST","6","0","1819",,,,,"0","2018-11-02 20:10:14","363765"
"A2VXEPC4KG1CWU","cs_wg_mon_deconf_v1_pilot2","3IGI0VL647LVLCT3P1NQKPIUJIYNOH","10","0","JULY","6","SEPTEMBER","2","0","2804",,,,,"1","2018-11-02 20:10:15","363766"
"AC05CZ95ORIMY","cs_wg_mon_deconf_v1_pilot2","3TR2532VIPV9DGWEA794AIFMPYZJ6K","8","0","AUGUST","4","OCTOBER","1","0","1682",,,,,"0","2018-11-02 20:10:15","363767"
"AYYL6SPHBIWB","cs_wg_mon_deconf_v1_pilot2","3ATTHHXXWAPQ1KW4TCXUYUD69N9IX1","20","0","DECEMBER","10","JULY","3","0","6188",,,,,"0","2018-11-02 20:10:16","363768"
"A27Y4NEIQQH00M","cs_wg_mon_deconf_v1_pilot2","3TXMY6UCAEPFFK9SFO6GTJJIZF2QCA","21","0","SEPTEMBER","1","NOVEMBER","6","1","1792",,,,,"0","2018-11-02 20:10:16","363769"
"A1XZ40T91S5YFU","cs_wg_mon_deconf_v1_pilot2","37TRT2X24QSFJSD96YQCLY1E3ZABJX","19","0","DECEMBER","2","AUGUST","8","0","895",,,,,"0","2018-11-02 20:10:16","363770"
"A2VZIJ7AZ537QP","cs_wg_mon_deconf_v1_pilot2","3H0W84IWBK3UOJ86OU1BOXTQGDHRE5","24","0","MARCH","2","OCTOBER","6","0","963",,,,,"0","2018-11-02 20:10:17","363771"
"AZA73HKJIZ7FL","cs_wg_mon_deconf_v1_pilot2","34X6J5FLPTZ2NYFYPGN2GNWDPZBQJO","7","0","APRIL","1","MAY","6","1","1944",,,,,"0","2018-11-02 20:10:17","363772"
"A277V4SHQB8JRS","cs_wg_mon_deconf_v1_pilot2","3IAEQB9FMELU49BSRT0X5EJM8GVDW1","6","0","JANUARY","1","DECEMBER","4","1","4237",,,,,"1","2018-11-02 20:10:19","363773"
"A2VXEPC4KG1CWU","cs_wg_mon_deconf_v1_pilot2","3IGI0VL647LVLCT3P1NQKPIUJIYNOH","11","0","NOVEMBER","4","JANUARY","1","0","2159",,,,,"0","2018-11-02 20:10:19","363774"
"A2VZIJ7AZ537QP","cs_wg_mon_deconf_v1_pilot2","3H0W84IWBK3UOJ86OU1BOXTQGDHRE5","25","0","DECEMBER","1","JULY","10","0","923",,,,,"0","2018-11-02 20:10:19","363775"
"A27Y4NEIQQH00M","cs_wg_mon_deconf_v1_pilot2","3TXMY6UCAEPFFK9SFO6GTJJIZF2QCA","22","0","MARCH","14","JULY","3","0","1576",,,,,"0","2018-11-02 20:10:19","363776"
"A5TI9UQEPLNWI","cs_wg_mon_deconf_v1_pilot2","317HQ483I7TLPQI0R6AL0SM879ZNIM","19","0","AUGUST","4","JULY","2","0","3347",,,,,"0","2018-11-02 20:10:20","363777"
"ANU6OTXYGSSTX","cs_wg_mon_deconf_v1_pilot2","3MD9PLUKKIF7KG7ARAY70NPY3M1NZJ","11","0","JANUARY","3","MAY","10","1","3259",,,,,"0","2018-11-02 20:10:20","363778"
"A1XZ40T91S5YFU","cs_wg_mon_deconf_v1_pilot2","37TRT2X24QSFJSD96YQCLY1E3ZABJX","20","0","JANUARY","1","OCTOBER","10","0","751",,,,,"0","2018-11-02 20:10:20","363779"
"A3AHB644URDPQW","cs_wg_mon_deconf_v1_pilot2","3R6P78PK7KC5OCHPYEWUOFFKHETTG1","4","0","MAY","4","JUNE","3","1","3773",,,,,"0","2018-11-02 20:10:20","363780"
"A2VZIJ7AZ537QP","cs_wg_mon_deconf_v1_pilot2","3H0W84IWBK3UOJ86OU1BOXTQGDHRE5","26","0","FEBRUARY","3","APRIL","8","1","1048",,,,,"0","2018-11-02 20:10:22","363781"
"AYYL6SPHBIWB","cs_wg_mon_deconf_v1_pilot2","3ATTHHXXWAPQ1KW4TCXUYUD69N9IX1","21","0","MARCH","8","APRIL","1","0","3972",,,,,"0","2018-11-02 20:10:23","363782"
"AC05CZ95ORIMY","cs_wg_mon_deconf_v1_pilot2","3TR2532VIPV9DGWEA794AIFMPYZJ6K","9","0","MARCH","2","JANUARY","12","1","4486",,,,,"1","2018-11-02 20:10:23","363783"
"A27Y4NEIQQH00M","cs_wg_mon_deconf_v1_pilot2","3TXMY6UCAEPFFK9SFO6GTJJIZF2QCA","23","0","AUGUST","1","APRIL","10","0","1651",,,,,"0","2018-11-02 20:10:23","363784"
"A2VXEPC4KG1CWU","cs_wg_mon_deconf_v1_pilot2","3IGI0VL647LVLCT3P1NQKPIUJIYNOH","12","0","FEBRUARY","14","OCTOBER","3","0","2716",,,,,"1","2018-11-02 20:10:24","363785"
"A5TI9UQEPLNWI","cs_wg_mon_deconf_v1_pilot2","317HQ483I7TLPQI0R6AL0SM879ZNIM","20","0","JANUARY","2","OCTOBER","14","1","1577",,,,,"0","2018-11-02 20:10:24","363786"
"A1XZ40T91S5YFU","cs_wg_mon_deconf_v1_pilot2","37TRT2X24QSFJSD96YQCLY1E3ZABJX","21","0","NOVEMBER","14","MAY","3","0","859",,,,,"0","2018-11-02 20:10:24","363787"
"A34CBV74LOV6E3","cs_wg_mon_deconf_v1_pilot2","3NAPMVF0ZWGSBKCBMW84HFT1IYY72L","0","0","DECEMBER","12","FEBRUARY","3","0","5694",,,,,"1","2018-11-02 20:10:24","363788"
"ANU6OTXYGSSTX","cs_wg_mon_deconf_v1_pilot2","3MD9PLUKKIF7KG7ARAY70NPY3M1NZJ","12","0","JUNE","3","APRIL","14","1","2634",,,,,"0","2018-11-02 20:10:25","363789"
"A3AHB644URDPQW","cs_wg_mon_deconf_v1_pilot2","3R6P78PK7KC5OCHPYEWUOFFKHETTG1","5","0","SEPTEMBER","10","APRIL","1","0","2274",,,,,"0","2018-11-02 20:10:25","363790"
"AZA73HKJIZ7FL","cs_wg_mon_deconf_v1_pilot2","34X6J5FLPTZ2NYFYPGN2GNWDPZBQJO","8","0","SEPTEMBER","8","DECEMBER","3","1","3353",,,,,"0","2018-11-02 20:10:25","363791"
"A2VZIJ7AZ537QP","cs_wg_mon_deconf_v1_pilot2","3H0W84IWBK3UOJ86OU1BOXTQGDHRE5","27","0","SEPTEMBER","2","JUNE","4","1","1399",,,,,"0","2018-11-02 20:10:26","363792"
"A3NGQ3WR96BKQ3","cs_wg_mon_deconf_v1_pilot2","36V4Q8R5ZK1SO6LJSD0UWFOUTT6QMS","5","0","JULY","6","SEPTEMBER","3","0","11397",,,,,"0","2018-11-02 20:10:26","363793"
"A27Y4NEIQQH00M","cs_wg_mon_deconf_v1_pilot2","3TXMY6UCAEPFFK9SFO6GTJJIZF2QCA","24","0","APRIL","10","AUGUST","1","0","1491",,,,,"0","2018-11-02 20:10:26","363794"
"A2VXEPC4KG1CWU","cs_wg_mon_deconf_v1_pilot2","3IGI0VL647LVLCT3P1NQKPIUJIYNOH","13","0","NOVEMBER","4","JANUARY","1","0","1314",,,,,"0","2018-11-02 20:10:27","363795"
"A1XZ40T91S5YFU","cs_wg_mon_deconf_v1_pilot2","37TRT2X24QSFJSD96YQCLY1E3ZABJX","22","0","APRIL","3","JULY","12","0","950",,,,,"0","2018-11-02 20:10:28","363796"
"A2VZIJ7AZ537QP","cs_wg_mon_deconf_v1_pilot2","3H0W84IWBK3UOJ86OU1BOXTQGDHRE5","28","0","SEPTEMBER","2","JUNE","4","1","1214",,,,,"0","2018-11-02 20:10:29","363797"
"A3AHB644URDPQW","cs_wg_mon_deconf_v1_pilot2","3R6P78PK7KC5OCHPYEWUOFFKHETTG1","6","0","APRIL","1","SEPTEMBER","10","1","1625",,,,,"0","2018-11-02 20:10:29","363798"
"A277V4SHQB8JRS","cs_wg_mon_deconf_v1_pilot2","3IAEQB9FMELU49BSRT0X5EJM8GVDW1","7","0","SEPTEMBER","12","MARCH","2","0","7730",,,,,"1","2018-11-02 20:10:29","363799"
"A5TI9UQEPLNWI","cs_wg_mon_deconf_v1_pilot2","317HQ483I7TLPQI0R6AL0SM879ZNIM","21","0","JUNE","12","NOVEMBER","3","0","1289",,,,,"0","2018-11-02 20:10:29","363800"
"AYYL6SPHBIWB","cs_wg_mon_deconf_v1_pilot2","3ATTHHXXWAPQ1KW4TCXUYUD69N9IX1","22","0","APRIL","1","MARCH","8","1","1767",,,,,"0","2018-11-02 20:10:29","363801"
"ANU6OTXYGSSTX","cs_wg_mon_deconf_v1_pilot2","3MD9PLUKKIF7KG7ARAY70NPY3M1NZJ","13","0","OCTOBER","1","AUGUST","6","1","2345",,,,,"0","2018-11-02 20:10:29","363802"
"A27Y4NEIQQH00M","cs_wg_mon_deconf_v1_pilot2","3TXMY6UCAEPFFK9SFO6GTJJIZF2QCA","25","0","NOVEMBER","6","SEPTEMBER","1","1","2166",,,,,"0","2018-11-02 20:10:30","363803"
"A1XZ40T91S5YFU","cs_wg_mon_deconf_v1_pilot2","37TRT2X24QSFJSD96YQCLY1E3ZABJX","23","0","SEPTEMBER","2","FEBRUARY","6","0","683",,,,,"0","2018-11-02 20:10:31","363804"
"A2VZIJ7AZ537QP","cs_wg_mon_deconf_v1_pilot2","3H0W84IWBK3UOJ86OU1BOXTQGDHRE5","29","0","JULY","10","DECEMBER","1","1","985",,,,,"0","2018-11-02 20:10:31","363805"
"A2VXEPC4KG1CWU","cs_wg_mon_deconf_v1_pilot2","3IGI0VL647LVLCT3P1NQKPIUJIYNOH","14","0","JUNE","12","APRIL","2","0","2403",,,,,"1","2018-11-02 20:10:32","363806"
"A34CBV74LOV6E3","cs_wg_mon_deconf_v1_pilot2","3NAPMVF0ZWGSBKCBMW84HFT1IYY72L","1","0","SEPTEMBER","2","APRIL","14","1","4106",,,,,"1","2018-11-02 20:10:32","363807"
"A3NGQ3WR96BKQ3","cs_wg_mon_deconf_v1_pilot2","36V4Q8R5ZK1SO6LJSD0UWFOUTT6QMS","6","0","OCTOBER","12","AUGUST","2","1","3287",,,,,"0","2018-11-02 20:10:32","363808"
"AC05CZ95ORIMY","cs_wg_mon_deconf_v1_pilot2","3TR2532VIPV9DGWEA794AIFMPYZJ6K","10","0","JULY","3","FEBRUARY","8","1","6895",,,,,"1","2018-11-02 20:10:32","363809"
"AZA73HKJIZ7FL","cs_wg_mon_deconf_v1_pilot2","34X6J5FLPTZ2NYFYPGN2GNWDPZBQJO","9","0","JANUARY","14","AUGUST","3","0","3413",,,,,"0","2018-11-02 20:10:33","363810"
"A5TI9UQEPLNWI","cs_wg_mon_deconf_v1_pilot2","317HQ483I7TLPQI0R6AL0SM879ZNIM","22","0","MARCH","1","SEPTEMBER","8","1","1535",,,,,"0","2018-11-02 20:10:33","363811"
"AYYL6SPHBIWB","cs_wg_mon_deconf_v1_pilot2","3ATTHHXXWAPQ1KW4TCXUYUD69N9IX1","23","0","MARCH","8","APRIL","1","1","1279",,,,,"0","2018-11-02 20:10:33","363812"
"A27Y4NEIQQH00M","cs_wg_mon_deconf_v1_pilot2","3TXMY6UCAEPFFK9SFO6GTJJIZF2QCA","26","0","JULY","3","MARCH","14","1","1750",,,,,"0","2018-11-02 20:10:34","363813"
"A2VZIJ7AZ537QP","cs_wg_mon_deconf_v1_pilot2","3H0W84IWBK3UOJ86OU1BOXTQGDHRE5","30","0","NOVEMBER","1","AUGUST","12","1","1174",,,,,"0","2018-11-02 20:10:34","363814"
"A3AHB644URDPQW","cs_wg_mon_deconf_v1_pilot2","3R6P78PK7KC5OCHPYEWUOFFKHETTG1","7","0","JUNE","3","MAY","4","1","3848",,,,,"0","2018-11-02 20:10:34","363815"
"ANU6OTXYGSSTX","cs_wg_mon_deconf_v1_pilot2","3MD9PLUKKIF7KG7ARAY70NPY3M1NZJ","14","0","MARCH","2","JULY","12","1","3578",,,,,"0","2018-11-02 20:10:36","363816"
"A2VXEPC4KG1CWU","cs_wg_mon_deconf_v1_pilot2","3IGI0VL647LVLCT3P1NQKPIUJIYNOH","15","0","DECEMBER","3","MARCH","8","1","2583",,,,,"1","2018-11-02 20:10:36","363817"
"A1XZ40T91S5YFU","cs_wg_mon_deconf_v1_pilot2","37TRT2X24QSFJSD96YQCLY1E3ZABJX","24","0","APRIL","3","JULY","12","0","795",,,,,"0","2018-11-02 20:10:36","363818"
"AZA73HKJIZ7FL","cs_wg_mon_deconf_v1_pilot2","34X6J5FLPTZ2NYFYPGN2GNWDPZBQJO","10","0","APRIL","1","MAY","6","1","1437",,,,,"0","2018-11-02 20:10:37","363819"
"A2VZIJ7AZ537QP","cs_wg_mon_deconf_v1_pilot2","3H0W84IWBK3UOJ86OU1BOXTQGDHRE5","31","0","AUGUST","12","NOVEMBER","1","0","971",,,,,"0","2018-11-02 20:10:37","363820"
"A5TI9UQEPLNWI","cs_wg_mon_deconf_v1_pilot2","317HQ483I7TLPQI0R6AL0SM879ZNIM","23","0","OCTOBER","14","JANUARY","2","0","1669",,,,,"0","2018-11-02 20:10:38","363821"
"A34CBV74LOV6E3","cs_wg_mon_deconf_v1_pilot2","3NAPMVF0ZWGSBKCBMW84HFT1IYY72L","2","0","JANUARY","1","JUNE","6","1","3859",,,,,"1","2018-11-02 20:10:38","363822"
"AYYL6SPHBIWB","cs_wg_mon_deconf_v1_pilot2","3ATTHHXXWAPQ1KW4TCXUYUD69N9IX1","24","0","JUNE","6","MAY","1","0","2751",,,,,"0","2018-11-02 20:10:38","363823"
"A3AHB644URDPQW","cs_wg_mon_deconf_v1_pilot2","3R6P78PK7KC5OCHPYEWUOFFKHETTG1","8","0","NOVEMBER","14","FEBRUARY","1","0","1825",,,,,"0","2018-11-02 20:10:38","363824"
"A2VXEPC4KG1CWU","cs_wg_mon_deconf_v1_pilot2","3IGI0VL647LVLCT3P1NQKPIUJIYNOH","16","0","DECEMBER","3","MARCH","8","1","740",,,,,"0","2018-11-02 20:10:39","363825"
"A1XZ40T91S5YFU","cs_wg_mon_deconf_v1_pilot2","37TRT2X24QSFJSD96YQCLY1E3ZABJX","25","0","JUNE","4","MARCH","1","0","703",,,,,"0","2018-11-02 20:10:39","363826"
"A3NGQ3WR96BKQ3","cs_wg_mon_deconf_v1_pilot2","36V4Q8R5ZK1SO6LJSD0UWFOUTT6QMS","7","0","MAY","14","NOVEMBER","2","1","4716",,,,,"0","2018-11-02 20:10:39","363827"
"A27Y4NEIQQH00M","cs_wg_mon_deconf_v1_pilot2","3TXMY6UCAEPFFK9SFO6GTJJIZF2QCA","27","0","AUGUST","1","APRIL","10","1","2980",,,,,"0","2018-11-02 20:10:40","363828"
"AC05CZ95ORIMY","cs_wg_mon_deconf_v1_pilot2","3TR2532VIPV9DGWEA794AIFMPYZJ6K","11","0","DECEMBER","6","MAY","1","0","5257",,,,,"1","2018-11-02 20:10:40","363829"
"A2VZIJ7AZ537QP","cs_wg_mon_deconf_v1_pilot2","3H0W84IWBK3UOJ86OU1BOXTQGDHRE5","32","0","JANUARY","14","MAY","3","1","1115",,,,,"0","2018-11-02 20:10:40","363830"
"ANU6OTXYGSSTX","cs_wg_mon_deconf_v1_pilot2","3MD9PLUKKIF7KG7ARAY70NPY3M1NZJ","15","0","JANUARY","3","MAY","10","1","2568",,,,,"0","2018-11-02 20:10:40","363831"
"AZA73HKJIZ7FL","cs_wg_mon_deconf_v1_pilot2","34X6J5FLPTZ2NYFYPGN2GNWDPZBQJO","11","0","AUGUST","3","JANUARY","14","1","2387",,,,,"0","2018-11-02 20:10:42","363832"
"A22N5ONOWPNZGB
","cs_wg_mon_deconf_v1_pilot2","3QL2OFSM96JUCNW0ZWEZPPODU4GCNA","0","0","JANUARY","3","SEPTEMBER","12","1","6099",,,,,"0","2018-11-02 20:10:42","363833"
"A2VZIJ7AZ537QP","cs_wg_mon_deconf_v1_pilot2","3H0W84IWBK3UOJ86OU1BOXTQGDHRE5","33","0","JANUARY","14","MAY","3","0","734",,,,,"0","2018-11-02 20:10:43","363834"
"A3AHB644URDPQW","cs_wg_mon_deconf_v1_pilot2","3R6P78PK7KC5OCHPYEWUOFFKHETTG1","9","0","JANUARY","6","JULY","3","0","2136",,,,,"0","2018-11-02 20:10:43","363835"
"A2VXEPC4KG1CWU","cs_wg_mon_deconf_v1_pilot2","3IGI0VL647LVLCT3P1NQKPIUJIYNOH","17","0","FEBRUARY","14","OCTOBER","3","0","2421",,,,,"1","2018-11-02 20:10:43","363836"
"A277V4SHQB8JRS","cs_wg_mon_deconf_v1_pilot2","3IAEQB9FMELU49BSRT0X5EJM8GVDW1","8","0","JULY","1","FEBRUARY","6","1","12129",,,,,"1","2018-11-02 20:10:43","363837"
"A34CBV74LOV6E3","cs_wg_mon_deconf_v1_pilot2","3NAPMVF0ZWGSBKCBMW84HFT1IYY72L","3","0","DECEMBER","12","FEBRUARY","3","0","3510",,,,,"1","2018-11-02 20:10:43","363838"
"A27Y4NEIQQH00M","cs_wg_mon_deconf_v1_pilot2","3TXMY6UCAEPFFK9SFO6GTJJIZF2QCA","28","0","DECEMBER","8","OCTOBER","2","0","2020",,,,,"0","2018-11-02 20:10:44","363839"
"A1XZ40T91S5YFU","cs_wg_mon_deconf_v1_pilot2","37TRT2X24QSFJSD96YQCLY1E3ZABJX","26","0","APRIL","3","JULY","12","0","677",,,,,"0","2018-11-02 20:10:44","363840"
"AYYL6SPHBIWB","cs_wg_mon_deconf_v1_pilot2","3ATTHHXXWAPQ1KW4TCXUYUD69N9IX1","25","0","DECEMBER","10","JULY","3","0","4737",,,,,"0","2018-11-02 20:10:45","363841"
"A2VZIJ7AZ537QP","cs_wg_mon_deconf_v1_pilot2","3H0W84IWBK3UOJ86OU1BOXTQGDHRE5","34","0","MARCH","2","OCTOBER","6","1","1065",,,,,"0","2018-11-02 20:10:45","363842"
"AZA73HKJIZ7FL","cs_wg_mon_deconf_v1_pilot2","34X6J5FLPTZ2NYFYPGN2GNWDPZBQJO","12","0","NOVEMBER","2","JULY","10","1","1424",,,,,"0","2018-11-02 20:10:46","363843"
"A3NGQ3WR96BKQ3","cs_wg_mon_deconf_v1_pilot2","36V4Q8R5ZK1SO6LJSD0UWFOUTT6QMS","8","0","NOVEMBER","2","MAY","14","1","4460",,,,,"0","2018-11-02 20:10:47","363844"
"A27Y4NEIQQH00M","cs_wg_mon_deconf_v1_pilot2","3TXMY6UCAEPFFK9SFO6GTJJIZF2QCA","29","0","JANUARY","2","MAY","4","1","1812",,,,,"0","2018-11-02 20:10:47","363845"
"AC05CZ95ORIMY","cs_wg_mon_deconf_v1_pilot2","3TR2532VIPV9DGWEA794AIFMPYZJ6K","12","0","JANUARY","12","MARCH","2","0","4781",,,,,"1","2018-11-02 20:10:47","363846"
"A1XZ40T91S5YFU","cs_wg_mon_deconf_v1_pilot2","37TRT2X24QSFJSD96YQCLY1E3ZABJX","27","0","AUGUST","8","DECEMBER","2","0","817",,,,,"0","2018-11-02 20:10:48","363847"
"A5TI9UQEPLNWI","cs_wg_mon_deconf_v1_pilot2","317HQ483I7TLPQI0R6AL0SM879ZNIM","24","0","APRIL","6","FEBRUARY","3","0","6557",,,,,"0","2018-11-02 20:10:48","363848"
"A3AHB644URDPQW","cs_wg_mon_deconf_v1_pilot2","3R6P78PK7KC5OCHPYEWUOFFKHETTG1","10","0","JULY","3","JANUARY","6","0","2107",,,,,"0","2018-11-02 20:10:48","363849"
"A2VZIJ7AZ537QP","cs_wg_mon_deconf_v1_pilot2","3H0W84IWBK3UOJ86OU1BOXTQGDHRE5","35","0","JUNE","4","SEPTEMBER","2","1","963",,,,,"0","2018-11-02 20:10:48","363850"
"A2VXEPC4KG1CWU","cs_wg_mon_deconf_v1_pilot2","3IGI0VL647LVLCT3P1NQKPIUJIYNOH","18","0","AUGUST","1","MAY","10","1","4280",,,,,"1","2018-11-02 20:10:49","363851"
"A277V4SHQB8JRS","cs_wg_mon_deconf_v1_pilot2","3IAEQB9FMELU49BSRT0X5EJM8GVDW1","9","0","FEBRUARY","6","JULY","1","0","3948",,,,,"1","2018-11-02 20:10:49","363852"
"ANU6OTXYGSSTX","cs_wg_mon_deconf_v1_pilot2","3MD9PLUKKIF7KG7ARAY70NPY3M1NZJ","16","0","FEBRUARY","4","NOVEMBER","2","0","6666",,,,,"1","2018-11-02 20:10:50","363853"
"A34CBV74LOV6E3","cs_wg_mon_deconf_v1_pilot2","3NAPMVF0ZWGSBKCBMW84HFT1IYY72L","4","0","AUGUST","4","JULY","2","0","4165",,,,,"1","2018-11-02 20:10:50","363854"
"AYYL6SPHBIWB","cs_wg_mon_deconf_v1_pilot2","3ATTHHXXWAPQ1KW4TCXUYUD69N9IX1","26","0","SEPTEMBER","3","AUGUST","12","1","3044",,,,,"0","2018-11-02 20:10:50","363855"
"AZA73HKJIZ7FL","cs_wg_mon_deconf_v1_pilot2","34X6J5FLPTZ2NYFYPGN2GNWDPZBQJO","13","0","FEBRUARY","1","JUNE","12","1","1135",,,,,"0","2018-11-02 20:10:50","363856"
"A22N5ONOWPNZGB
","cs_wg_mon_deconf_v1_pilot2","3QL2OFSM96JUCNW0ZWEZPPODU4GCNA","1","0","NOVEMBER","6","OCTOBER","2","0","4078",,,,,"0","2018-11-02 20:10:50","363857"
"A2VZIJ7AZ537QP","cs_wg_mon_deconf_v1_pilot2","3H0W84IWBK3UOJ86OU1BOXTQGDHRE5","36","0","MAY","3","JANUARY","14","0","997",,,,,"0","2018-11-02 20:10:51","363858"
"A27Y4NEIQQH00M","cs_wg_mon_deconf_v1_pilot2","3TXMY6UCAEPFFK9SFO6GTJJIZF2QCA","30","0","OCTOBER","2","DECEMBER","8","1","2483",,,,,"0","2018-11-02 20:10:51","363859"
"A1XZ40T91S5YFU","cs_wg_mon_deconf_v1_pilot2","37TRT2X24QSFJSD96YQCLY1E3ZABJX","28","0","AUGUST","8","DECEMBER","2","0","1126",,,,,"0","2018-11-02 20:10:52","363860"
"A3AHB644URDPQW","cs_wg_mon_deconf_v1_pilot2","3R6P78PK7KC5OCHPYEWUOFFKHETTG1","11","0","APRIL","1","SEPTEMBER","10","1","1438",,,,,"0","2018-11-02 20:10:52","363861"
"AYYL6SPHBIWB","cs_wg_mon_deconf_v1_pilot2","3ATTHHXXWAPQ1KW4TCXUYUD69N9IX1","27","0","AUGUST","12","SEPTEMBER","3","0","1476",,,,,"0","2018-11-02 20:10:53","363862"
"A3NGQ3WR96BKQ3","cs_wg_mon_deconf_v1_pilot2","36V4Q8R5ZK1SO6LJSD0UWFOUTT6QMS","9","0","AUGUST","2","OCTOBER","12","1","4229",,,,,"0","2018-11-02 20:10:53","363863"
"A2VXEPC4KG1CWU","cs_wg_mon_deconf_v1_pilot2","3IGI0VL647LVLCT3P1NQKPIUJIYNOH","19","0","OCTOBER","3","FEBRUARY","14","1","2908",,,,,"1","2018-11-02 20:10:54","363864"
"A2VZIJ7AZ537QP","cs_wg_mon_deconf_v1_pilot2","3H0W84IWBK3UOJ86OU1BOXTQGDHRE5","37","0","JUNE","4","SEPTEMBER","2","1","981",,,,,"0","2018-11-02 20:10:54","363865"
"AC05CZ95ORIMY","cs_wg_mon_deconf_v1_pilot2","3TR2532VIPV9DGWEA794AIFMPYZJ6K","13","0","NOVEMBER","14","APRIL","2","0","4401",,,,,"1","2018-11-02 20:10:54","363866"
"A5TI9UQEPLNWI","cs_wg_mon_deconf_v1_pilot2","317HQ483I7TLPQI0R6AL0SM879ZNIM","25","0","NOVEMBER","3","JUNE","12","1","3326",,,,,"0","2018-11-02 20:10:54","363867"
"AZA73HKJIZ7FL","cs_wg_mon_deconf_v1_pilot2","34X6J5FLPTZ2NYFYPGN2GNWDPZBQJO","14","0","JULY","10","NOVEMBER","2","1","2247",,,,,"0","2018-11-02 20:10:55","363868"
"A1XZ40T91S5YFU","cs_wg_mon_deconf_v1_pilot2","37TRT2X24QSFJSD96YQCLY1E3ZABJX","29","0","OCTOBER","10","JANUARY","1","0","733",,,,,"0","2018-11-02 20:10:55","363869"
"A27Y4NEIQQH00M","cs_wg_mon_deconf_v1_pilot2","3TXMY6UCAEPFFK9SFO6GTJJIZF2QCA","31","0","JANUARY","2","MAY","4","1","2063",,,,,"0","2018-11-02 20:10:56","363870"
"A277V4SHQB8JRS","cs_wg_mon_deconf_v1_pilot2","3IAEQB9FMELU49BSRT0X5EJM8GVDW1","10","0","JANUARY","1","DECEMBER","4","1","4880",,,,,"1","2018-11-02 20:10:56","363871"
"A3AHB644URDPQW","cs_wg_mon_deconf_v1_pilot2","3R6P78PK7KC5OCHPYEWUOFFKHETTG1","12","0","JUNE","3","MAY","4","1","1814",,,,,"0","2018-11-02 20:10:56","363872"
"A2VZIJ7AZ537QP","cs_wg_mon_deconf_v1_pilot2","3H0W84IWBK3UOJ86OU1BOXTQGDHRE5","38","0","DECEMBER","1","JULY","10","0","739",,,,,"0","2018-11-02 20:10:57","363873"
"A34CBV74LOV6E3","cs_wg_mon_deconf_v1_pilot2","3NAPMVF0ZWGSBKCBMW84HFT1IYY72L","5","0","JULY","2","AUGUST","4","1","3037",,,,,"1","2018-11-02 20:10:57","363874"
"AYYL6SPHBIWB","cs_wg_mon_deconf_v1_pilot2","3ATTHHXXWAPQ1KW4TCXUYUD69N9IX1","28","0","FEBRUARY","14","OCTOBER","2","0","2008",,,,,"0","2018-11-02 20:10:57","363875"
"ANU6OTXYGSSTX","cs_wg_mon_deconf_v1_pilot2","3MD9PLUKKIF7KG7ARAY70NPY3M1NZJ","17","0","JULY","12","MARCH","2","0","4739",,,,,"0","2018-11-02 20:10:57","363876"
"A2VXEPC4KG1CWU","cs_wg_mon_deconf_v1_pilot2","3IGI0VL647LVLCT3P1NQKPIUJIYNOH","20","0","JANUARY","1","NOVEMBER","4","1","1968",,,,,"0","2018-11-02 20:10:58","363877"
"AZA73HKJIZ7FL","cs_wg_mon_deconf_v1_pilot2","34X6J5FLPTZ2NYFYPGN2GNWDPZBQJO","15","0","JULY","10","NOVEMBER","2","0","1218",,,,,"0","2018-11-02 20:10:58","363878"
"A1XZ40T91S5YFU","cs_wg_mon_deconf_v1_pilot2","37TRT2X24QSFJSD96YQCLY1E3ZABJX","30","0","SEPTEMBER","2","FEBRUARY","6","0","732",,,,,"0","2018-11-02 20:10:59","363879"
"AC05CZ95ORIMY","cs_wg_mon_deconf_v1_pilot2","3TR2532VIPV9DGWEA794AIFMPYZJ6K","14","0","AUGUST","4","OCTOBER","1","0","2356",,,,,"0","2018-11-02 20:10:59","363880"
"A2VZIJ7AZ537QP","cs_wg_mon_deconf_v1_pilot2","3H0W84IWBK3UOJ86OU1BOXTQGDHRE5","39","0","APRIL","8","FEBRUARY","3","0","1171",,,,,"0","2018-11-02 20:11:00","363881"
"A27Y4NEIQQH00M","cs_wg_mon_deconf_v1_pilot2","3TXMY6UCAEPFFK9SFO6GTJJIZF2QCA","32","0","NOVEMBER","6","SEPTEMBER","1","0","1943",,,,,"0","2018-11-02 20:11:00","363882"
"A3NGQ3WR96BKQ3","cs_wg_mon_deconf_v1_pilot2","36V4Q8R5ZK1SO6LJSD0UWFOUTT6QMS","10","0","JUNE","10","DECEMBER","1","0","3901",,,,,"0","2018-11-02 20:11:00","363883"
"A3AHB644URDPQW","cs_wg_mon_deconf_v1_pilot2","3R6P78PK7KC5OCHPYEWUOFFKHETTG1","13","0","APRIL","1","SEPTEMBER","10","1","1232",,,,,"0","2018-11-02 20:11:00","363884"
"AYYL6SPHBIWB","cs_wg_mon_deconf_v1_pilot2","3ATTHHXXWAPQ1KW4TCXUYUD69N9IX1","29","0","JANUARY","2","NOVEMBER","4","1","2149",,,,,"0","2018-11-02 20:11:01","363885"
"AZA73HKJIZ7FL","cs_wg_mon_deconf_v1_pilot2","34X6J5FLPTZ2NYFYPGN2GNWDPZBQJO","16","0","MARCH","2","OCTOBER","4","0","1123",,,,,"0","2018-11-02 20:11:02","363886"
"ANU6OTXYGSSTX","cs_wg_mon_deconf_v1_pilot2","3MD9PLUKKIF7KG7ARAY70NPY3M1NZJ","18","0","JUNE","3","APRIL","14","1","2248",,,,,"0","2018-11-02 20:11:02","363887"
"A2VZIJ7AZ537QP","cs_wg_mon_deconf_v1_pilot2","3H0W84IWBK3UOJ86OU1BOXTQGDHRE5","40","0","JULY","10","DECEMBER","1","1","692",,,,,"0","2018-11-02 20:11:02","363888"
"A1XZ40T91S5YFU","cs_wg_mon_deconf_v1_pilot2","37TRT2X24QSFJSD96YQCLY1E3ZABJX","31","0","DECEMBER","2","AUGUST","8","0","617",,,,,"0","2018-11-02 20:11:02","363889"
"A27Y4NEIQQH00M","cs_wg_mon_deconf_v1_pilot2","3TXMY6UCAEPFFK9SFO6GTJJIZF2QCA","33","0","MAY","4","JANUARY","2","0","1511",,,,,"0","2018-11-02 20:11:03","363890"
"A5TI9UQEPLNWI","cs_wg_mon_deconf_v1_pilot2","317HQ483I7TLPQI0R6AL0SM879ZNIM","26","0","DECEMBER","1","MAY","10","1","5292",,,,,"0","2018-11-02 20:11:03","363891"
"A22N5ONOWPNZGB
","cs_wg_mon_deconf_v1_pilot2","3QL2OFSM96JUCNW0ZWEZPPODU4GCNA","2","0","NOVEMBER","6","OCTOBER","2","0","2473",,,,,"0","2018-11-02 20:11:04","363892"
"A277V4SHQB8JRS","cs_wg_mon_deconf_v1_pilot2","3IAEQB9FMELU49BSRT0X5EJM8GVDW1","11","0","APRIL","2","JUNE","10","1","5358",,,,,"1","2018-11-02 20:11:04","363893"
"AYYL6SPHBIWB","cs_wg_mon_deconf_v1_pilot2","3ATTHHXXWAPQ1KW4TCXUYUD69N9IX1","30","0","NOVEMBER","4","JANUARY","2","0","1051",,,,,"0","2018-11-02 20:11:04","363894"
"A3AHB644URDPQW","cs_wg_mon_deconf_v1_pilot2","3R6P78PK7KC5OCHPYEWUOFFKHETTG1","14","0","AUGUST","2","OCTOBER","12","1","1862",,,,,"0","2018-11-02 20:11:04","363895"
"A2VZIJ7AZ537QP","cs_wg_mon_deconf_v1_pilot2","3H0W84IWBK3UOJ86OU1BOXTQGDHRE5","41","0","MAY","3","JANUARY","14","1","785",,,,,"0","2018-11-02 20:11:05","363896"
"A3NGQ3WR96BKQ3","cs_wg_mon_deconf_v1_pilot2","36V4Q8R5ZK1SO6LJSD0UWFOUTT6QMS","11","0","APRIL","4","JANUARY","3","0","2516",,,,,"0","2018-11-02 20:11:05","363897"
"A2VXEPC4KG1CWU","cs_wg_mon_deconf_v1_pilot2","3IGI0VL647LVLCT3P1NQKPIUJIYNOH","21","0","SEPTEMBER","2","JULY","6","0","4863",,,,,"0","2018-11-02 20:11:05","363898"
"A1XZ40T91S5YFU","cs_wg_mon_deconf_v1_pilot2","37TRT2X24QSFJSD96YQCLY1E3ZABJX","32","0","JANUARY","1","OCTOBER","10","0","754",,,,,"0","2018-11-02 20:11:06","363899"
"A27Y4NEIQQH00M","cs_wg_mon_deconf_v1_pilot2","3TXMY6UCAEPFFK9SFO6GTJJIZF2QCA","34","0","NOVEMBER","6","SEPTEMBER","1","0","1642",,,,,"0","2018-11-02 20:11:06","363900"
"A34CBV74LOV6E3","cs_wg_mon_deconf_v1_pilot2","3NAPMVF0ZWGSBKCBMW84HFT1IYY72L","6","0","APRIL","14","SEPTEMBER","2","0","7222",,,,,"1","2018-11-02 20:11:06","363901"
"A2VZIJ7AZ537QP","cs_wg_mon_deconf_v1_pilot2","3H0W84IWBK3UOJ86OU1BOXTQGDHRE5","42","0","AUGUST","12","NOVEMBER","1","0","698",,,,,"0","2018-11-02 20:11:07","363902"
"AC05CZ95ORIMY","cs_wg_mon_deconf_v1_pilot2","3TR2532VIPV9DGWEA794AIFMPYZJ6K","15","0","JUNE","3","SEPTEMBER","10","1","5800",,,,,"1","2018-11-02 20:11:07","363903"
"AZA73HKJIZ7FL","cs_wg_mon_deconf_v1_pilot2","34X6J5FLPTZ2NYFYPGN2GNWDPZBQJO","17","0","JUNE","12","FEBRUARY","1","0","1557",,,,,"0","2018-11-02 20:11:08","363904"
"A5TI9UQEPLNWI","cs_wg_mon_deconf_v1_pilot2","317HQ483I7TLPQI0R6AL0SM879ZNIM","27","0","JULY","2","AUGUST","4","1","1428",,,,,"0","2018-11-02 20:11:08","363905"
"A3AHB644URDPQW","cs_wg_mon_deconf_v1_pilot2","3R6P78PK7KC5OCHPYEWUOFFKHETTG1","15","0","NOVEMBER","14","FEBRUARY","1","0","1899",,,,,"0","2018-11-02 20:11:08","363906"
"AYYL6SPHBIWB","cs_wg_mon_deconf_v1_pilot2","3ATTHHXXWAPQ1KW4TCXUYUD69N9IX1","31","0","NOVEMBER","4","JANUARY","2","0","2789",,,,,"0","2018-11-02 20:11:09","363907"
"A1XZ40T91S5YFU","cs_wg_mon_deconf_v1_pilot2","37TRT2X24QSFJSD96YQCLY1E3ZABJX","33","0","SEPTEMBER","2","FEBRUARY","6","0","803",,,,,"0","2018-11-02 20:11:09","363908"
"A27Y4NEIQQH00M","cs_wg_mon_deconf_v1_pilot2","3TXMY6UCAEPFFK9SFO6GTJJIZF2QCA","35","0","JANUARY","2","MAY","4","1","1607",,,,,"0","2018-11-02 20:11:09","363909"
"A2VZIJ7AZ537QP","cs_wg_mon_deconf_v1_pilot2","3H0W84IWBK3UOJ86OU1BOXTQGDHRE5","43","0","APRIL","8","FEBRUARY","3","0","954",,,,,"0","2018-11-02 20:11:10","363910"
"A22N5ONOWPNZGB
","cs_wg_mon_deconf_v1_pilot2","3QL2OFSM96JUCNW0ZWEZPPODU4GCNA","3","0","JUNE","8","APRIL","2","0","2414",,,,,"0","2018-11-02 20:11:11","363911"
"A2VXEPC4KG1CWU","cs_wg_mon_deconf_v1_pilot2","3IGI0VL647LVLCT3P1NQKPIUJIYNOH","22","0","MARCH","8","DECEMBER","3","0","3588",,,,,"0","2018-11-02 20:11:11","363912"
"AZA73HKJIZ7FL","cs_wg_mon_deconf_v1_pilot2","34X6J5FLPTZ2NYFYPGN2GNWDPZBQJO","18","0","DECEMBER","3","SEPTEMBER","8","1","1184",,,,,"0","2018-11-02 20:11:11","363913"
"A3AHB644URDPQW","cs_wg_mon_deconf_v1_pilot2","3R6P78PK7KC5OCHPYEWUOFFKHETTG1","16","0","NOVEMBER","14","FEBRUARY","1","0","1241",,,,,"0","2018-11-02 20:11:11","363914"
"AC05CZ95ORIMY","cs_wg_mon_deconf_v1_pilot2","3TR2532VIPV9DGWEA794AIFMPYZJ6K","16","0","OCTOBER","1","AUGUST","4","1","2115",,,,,"0","2018-11-02 20:11:11","363915"
"A3NGQ3WR96BKQ3","cs_wg_mon_deconf_v1_pilot2","36V4Q8R5ZK1SO6LJSD0UWFOUTT6QMS","12","0","MAY","14","NOVEMBER","2","0","2907",,,,,"0","2018-11-02 20:11:12","363916"
"A277V4SHQB8JRS","cs_wg_mon_deconf_v1_pilot2","3IAEQB9FMELU49BSRT0X5EJM8GVDW1","12","0","MAY","8","AUGUST","3","0","6448",,,,,"1","2018-11-02 20:11:12","363917"
"A2VZIJ7AZ537QP","cs_wg_mon_deconf_v1_pilot2","3H0W84IWBK3UOJ86OU1BOXTQGDHRE5","44","0","OCTOBER","6","MARCH","2","0","771",,,,,"0","2018-11-02 20:11:12","363918"
"A27Y4NEIQQH00M","cs_wg_mon_deconf_v1_pilot2","3TXMY6UCAEPFFK9SFO6GTJJIZF2QCA","36","0","OCTOBER","2","DECEMBER","8","1","1989",,,,,"0","2018-11-02 20:11:13","363919"
"AYYL6SPHBIWB","cs_wg_mon_deconf_v1_pilot2","3ATTHHXXWAPQ1KW4TCXUYUD69N9IX1","32","0","JULY","3","DECEMBER","10","1","2581",,,,,"0","2018-11-02 20:11:13","363920"
"A5TI9UQEPLNWI","cs_wg_mon_deconf_v1_pilot2","317HQ483I7TLPQI0R6AL0SM879ZNIM","28","0","JANUARY","2","OCTOBER","14","1","1524",,,,,"0","2018-11-02 20:11:13","363921"
"A34CBV74LOV6E3","cs_wg_mon_deconf_v1_pilot2","3NAPMVF0ZWGSBKCBMW84HFT1IYY72L","7","0","JUNE","6","JANUARY","1","0","2628",,,,,"1","2018-11-02 20:11:14","363922"
"A1XZ40T91S5YFU","cs_wg_mon_deconf_v1_pilot2","37TRT2X24QSFJSD96YQCLY1E3ZABJX","34","0","JULY","12","APRIL","3","0","749",,,,,"0","2018-11-02 20:11:14","363923"
"AZA73HKJIZ7FL","cs_wg_mon_deconf_v1_pilot2","34X6J5FLPTZ2NYFYPGN2GNWDPZBQJO","19","0","NOVEMBER","2","JULY","10","1","1400",,,,,"0","2018-11-02 20:11:15","363924"
"A2VXEPC4KG1CWU","cs_wg_mon_deconf_v1_pilot2","3IGI0VL647LVLCT3P1NQKPIUJIYNOH","23","0","MAY","10","AUGUST","1","0","1512",,,,,"0","2018-11-02 20:11:15","363925"
"A3AHB644URDPQW","cs_wg_mon_deconf_v1_pilot2","3R6P78PK7KC5OCHPYEWUOFFKHETTG1","17","0","NOVEMBER","14","FEBRUARY","1","0","1867",,,,,"0","2018-11-02 20:11:15","363926"
"A2VZIJ7AZ537QP","cs_wg_mon_deconf_v1_pilot2","3H0W84IWBK3UOJ86OU1BOXTQGDHRE5","45","0","MAY","3","JANUARY","14","1","1478",,,,,"0","2018-11-02 20:11:16","363927"
"A22N5ONOWPNZGB
","cs_wg_mon_deconf_v1_pilot2","3QL2OFSM96JUCNW0ZWEZPPODU4GCNA","4","0","APRIL","2","JUNE","8","1","2907",,,,,"0","2018-11-02 20:11:17","363928"
"AYYL6SPHBIWB","cs_wg_mon_deconf_v1_pilot2","3ATTHHXXWAPQ1KW4TCXUYUD69N9IX1","33","0","JUNE","6","MAY","1","0","2300",,,,,"0","2018-11-02 20:11:17","363929"
"A3NGQ3WR96BKQ3","cs_wg_mon_deconf_v1_pilot2","36V4Q8R5ZK1SO6LJSD0UWFOUTT6QMS","13","0","SEPTEMBER","3","JULY","6","0","3015",,,,,"0","2018-11-02 20:11:17","363930"
"A5TI9UQEPLNWI","cs_wg_mon_deconf_v1_pilot2","317HQ483I7TLPQI0R6AL0SM879ZNIM","29","0","AUGUST","4","JULY","2","0","1341",,,,,"0","2018-11-02 20:11:18","363931"
"A2VZIJ7AZ537QP","cs_wg_mon_deconf_v1_pilot2","3H0W84IWBK3UOJ86OU1BOXTQGDHRE5","46","0","APRIL","8","FEBRUARY","3","0","1139",,,,,"0","2018-11-02 20:11:18","363932"
"A1XZ40T91S5YFU","cs_wg_mon_deconf_v1_pilot2","37TRT2X24QSFJSD96YQCLY1E3ZABJX","35","0","FEBRUARY","6","SEPTEMBER","2","0","1398",,,,,"0","2018-11-02 20:11:19","363933"
"A3AHB644URDPQW","cs_wg_mon_deconf_v1_pilot2","3R6P78PK7KC5OCHPYEWUOFFKHETTG1","18","0","MAY","4","JUNE","3","0","1573",,,,,"0","2018-11-02 20:11:19","363934"
"A277V4SHQB8JRS","cs_wg_mon_deconf_v1_pilot2","3IAEQB9FMELU49BSRT0X5EJM8GVDW1","13","0","AUGUST","3","MAY","8","1","4339",,,,,"1","2018-11-02 20:11:19","363935"
"AZA73HKJIZ7FL","cs_wg_mon_deconf_v1_pilot2","34X6J5FLPTZ2NYFYPGN2GNWDPZBQJO","20","0","SEPTEMBER","8","DECEMBER","3","1","1987",,,,,"0","2018-11-02 20:11:19","363936"
"AC05CZ95ORIMY","cs_wg_mon_deconf_v1_pilot2","3TR2532VIPV9DGWEA794AIFMPYZJ6K","17","0","MARCH","2","JANUARY","12","1","5336",,,,,"1","2018-11-02 20:11:19","363937"
"A2VXEPC4KG1CWU","cs_wg_mon_deconf_v1_pilot2","3IGI0VL647LVLCT3P1NQKPIUJIYNOH","24","0","FEBRUARY","14","OCTOBER","3","0","1312",,,,,"0","2018-11-02 20:11:21","363938"
"A2VZIJ7AZ537QP","cs_wg_mon_deconf_v1_pilot2","3H0W84IWBK3UOJ86OU1BOXTQGDHRE5","47","0","DECEMBER","1","JULY","10","0","1142",,,,,"0","2018-11-02 20:11:21","363939"
"A5TI9UQEPLNWI","cs_wg_mon_deconf_v1_pilot2","317HQ483I7TLPQI0R6AL0SM879ZNIM","30","0","SEPTEMBER","8","MARCH","1","0","1191",,,,,"0","2018-11-02 20:11:21","363940"
"A22N5ONOWPNZGB
","cs_wg_mon_deconf_v1_pilot2","3QL2OFSM96JUCNW0ZWEZPPODU4GCNA","5","0","NOVEMBER","6","OCTOBER","2","0","2053",,,,,"0","2018-11-02 20:11:22","363941"
"AYYL6SPHBIWB","cs_wg_mon_deconf_v1_pilot2","3ATTHHXXWAPQ1KW4TCXUYUD69N9IX1","34","0","AUGUST","12","SEPTEMBER","3","0","2722",,,,,"0","2018-11-02 20:11:22","363942"
"A3NGQ3WR96BKQ3","cs_wg_mon_deconf_v1_pilot2","36V4Q8R5ZK1SO6LJSD0UWFOUTT6QMS","14","0","NOVEMBER","2","MAY","14","0","2842",,,,,"0","2018-11-02 20:11:22","363943"
"A3AHB644URDPQW","cs_wg_mon_deconf_v1_pilot2","3R6P78PK7KC5OCHPYEWUOFFKHETTG1","19","0","DECEMBER","8","MARCH","2","0","1730",,,,,"0","2018-11-02 20:11:22","363944"
"A14OT0SJEXQKZF","cs_wg_mon_deconf_v1_pilot2","3X0H8UUIT1P06YUAOJVM0D5M9J5SWA","0","0","JULY","3","AUGUST","14","1","15143",,,,,"1","2018-11-02 20:11:23","363945"
"A1XZ40T91S5YFU","cs_wg_mon_deconf_v1_pilot2","37TRT2X24QSFJSD96YQCLY1E3ZABJX","36","0","MARCH","1","JUNE","4","0","975",,,,,"0","2018-11-02 20:11:24","363946"
"AZA73HKJIZ7FL","cs_wg_mon_deconf_v1_pilot2","34X6J5FLPTZ2NYFYPGN2GNWDPZBQJO","21","0","NOVEMBER","2","JULY","10","1","1116",,,,,"0","2018-11-02 20:11:24","363947"
"A2VXEPC4KG1CWU","cs_wg_mon_deconf_v1_pilot2","3IGI0VL647LVLCT3P1NQKPIUJIYNOH","25","0","SEPTEMBER","2","JULY","6","1","3580",,,,,"0","2018-11-02 20:11:24","363948"
"AW0225ONUAPO5","cs_wg_mon_deconf_v1_pilot2","3EJPLAJKEMHZDV1ISTCQYC3C8WDZ6M","0","0","SEPTEMBER","3","MAY","10","0","3405",,,,,"0","2018-11-02 20:11:24","363949"
"A2VZIJ7AZ537QP","cs_wg_mon_deconf_v1_pilot2","3H0W84IWBK3UOJ86OU1BOXTQGDHRE5","48","0","SEPTEMBER","2","JUNE","4","0","606",,,,,"0","2018-11-02 20:11:24","363950"
"A5TI9UQEPLNWI","cs_wg_mon_deconf_v1_pilot2","317HQ483I7TLPQI0R6AL0SM879ZNIM","31","0","SEPTEMBER","8","MARCH","1","0","1098",,,,,"0","2018-11-02 20:11:25","363951"
"A2VZIJ7AZ537QP","cs_wg_mon_deconf_v1_pilot2","3H0W84IWBK3UOJ86OU1BOXTQGDHRE5","49","0","APRIL","8","FEBRUARY","3","1","470",,,,,"0","2018-11-02 20:11:27","363952"
"A3AHB644URDPQW","cs_wg_mon_deconf_v1_pilot2","3R6P78PK7KC5OCHPYEWUOFFKHETTG1","20","0","JUNE","3","MAY","4","1","1947",,,,,"0","2018-11-02 20:11:27","363953"
"A1XZ40T91S5YFU","cs_wg_mon_deconf_v1_pilot2","37TRT2X24QSFJSD96YQCLY1E3ZABJX","37","0","NOVEMBER","14","MAY","3","0","770",,,,,"0","2018-11-02 20:11:27","363954"
"AYYL6SPHBIWB","cs_wg_mon_deconf_v1_pilot2","3ATTHHXXWAPQ1KW4TCXUYUD69N9IX1","35","0","OCTOBER","2","FEBRUARY","14","1","3393",,,,,"0","2018-11-02 20:11:27","363955"
"A22N5ONOWPNZGB
","cs_wg_mon_deconf_v1_pilot2","3QL2OFSM96JUCNW0ZWEZPPODU4GCNA","6","0","SEPTEMBER","12","JANUARY","3","0","2239",,,,,"0","2018-11-02 20:11:27","363956"
"AC05CZ95ORIMY","cs_wg_mon_deconf_v1_pilot2","3TR2532VIPV9DGWEA794AIFMPYZJ6K","18","0","MAY","1","DECEMBER","6","1","5462",,,,,"1","2018-11-02 20:11:27","363957"
"AW0225ONUAPO5","cs_wg_mon_deconf_v1_pilot2","3EJPLAJKEMHZDV1ISTCQYC3C8WDZ6M","1","0","SEPTEMBER","3","MAY","10","1","755",,,,,"0","2018-11-02 20:11:27","363958"
"A277V4SHQB8JRS","cs_wg_mon_deconf_v1_pilot2","3IAEQB9FMELU49BSRT0X5EJM8GVDW1","14","0","FEBRUARY","6","JULY","1","0","6283",,,,,"1","2018-11-02 20:11:27","363959"
"A2VXEPC4KG1CWU","cs_wg_mon_deconf_v1_pilot2","3IGI0VL647LVLCT3P1NQKPIUJIYNOH","26","0","APRIL","2","JUNE","12","1","2219",,,,,"0","2018-11-02 20:11:28","363960"
"AZA73HKJIZ7FL","cs_wg_mon_deconf_v1_pilot2","34X6J5FLPTZ2NYFYPGN2GNWDPZBQJO","22","0","NOVEMBER","2","JULY","10","1","786",,,,,"0","2018-11-02 20:11:29","363961"
"A5TI9UQEPLNWI","cs_wg_mon_deconf_v1_pilot2","317HQ483I7TLPQI0R6AL0SM879ZNIM","32","0","SEPTEMBER","8","MARCH","1","0","1866",,,,,"0","2018-11-02 20:11:29","363962"
"A3NGQ3WR96BKQ3","cs_wg_mon_deconf_v1_pilot2","36V4Q8R5ZK1SO6LJSD0UWFOUTT6QMS","15","0","DECEMBER","1","JUNE","10","1","4897",,,,,"0","2018-11-02 20:11:29","363963"
"AW0225ONUAPO5","cs_wg_mon_deconf_v1_pilot2","3EJPLAJKEMHZDV1ISTCQYC3C8WDZ6M","2","0","DECEMBER","8","MARCH","1","0","734",,,,,"0","2018-11-02 20:11:30","363964"
"A34CBV74LOV6E3","cs_wg_mon_deconf_v1_pilot2","3NAPMVF0ZWGSBKCBMW84HFT1IYY72L","8","0","MARCH","10","NOVEMBER","1","0","1990",,,,,"1","2018-11-02 20:11:30","363965"
"A3AHB644URDPQW","cs_wg_mon_deconf_v1_pilot2","3R6P78PK7KC5OCHPYEWUOFFKHETTG1","21","0","OCTOBER","12","AUGUST","2","0","1413",,,,,"0","2018-11-02 20:11:30","363966"
"A1XZ40T91S5YFU","cs_wg_mon_deconf_v1_pilot2","37TRT2X24QSFJSD96YQCLY1E3ZABJX","38","0","JULY","12","APRIL","3","0","690",,,,,"0","2018-11-02 20:11:31","363967"
"A2VZIJ7AZ537QP","cs_wg_mon_deconf_v1_pilot2","3H0W84IWBK3UOJ86OU1BOXTQGDHRE5","50","0","DECEMBER","1","JULY","10","0","1921",,,,,"0","2018-11-02 20:11:31","363968"
"A22N5ONOWPNZGB
","cs_wg_mon_deconf_v1_pilot2","3QL2OFSM96JUCNW0ZWEZPPODU4GCNA","7","0","JANUARY","3","SEPTEMBER","12","1","1955",,,,,"0","2018-11-02 20:11:31","363969"
"A2VXEPC4KG1CWU","cs_wg_mon_deconf_v1_pilot2","3IGI0VL647LVLCT3P1NQKPIUJIYNOH","27","0","APRIL","2","JUNE","12","1","1282",,,,,"0","2018-11-02 20:11:32","363970"
"AYYL6SPHBIWB","cs_wg_mon_deconf_v1_pilot2","3ATTHHXXWAPQ1KW4TCXUYUD69N9IX1","36","0","JULY","3","DECEMBER","10","1","2516",,,,,"0","2018-11-02 20:11:32","363971"
"AW0225ONUAPO5","cs_wg_mon_deconf_v1_pilot2","3EJPLAJKEMHZDV1ISTCQYC3C8WDZ6M","3","0","SEPTEMBER","3","MAY","10","1","356",,,,,"0","2018-11-02 20:11:32","363972"
"A14OT0SJEXQKZF","cs_wg_mon_deconf_v1_pilot2","3X0H8UUIT1P06YUAOJVM0D5M9J5SWA","1","0","JULY","3","AUGUST","14","1","3817",,,,,"0","2018-11-02 20:11:33","363973"
"A2FX289DJSA2A6","cs_wg_mon_deconf_v1_pilot2","3RGU30DZTA9B2JH6XNGLZEC8FYEJMU","0","0","MARCH","10","JULY","2","1","11516",,,,,"0","2018-11-02 20:11:33","363974"
"A277V4SHQB8JRS","cs_wg_mon_deconf_v1_pilot2","3IAEQB9FMELU49BSRT0X5EJM8GVDW1","15","0","DECEMBER","4","JANUARY","1","0","4208",,,,,"1","2018-11-02 20:11:33","363975"
"A1XZ40T91S5YFU","cs_wg_mon_deconf_v1_pilot2","37TRT2X24QSFJSD96YQCLY1E3ZABJX","39","0","NOVEMBER","14","MAY","3","0","574",,,,,"0","2018-11-02 20:11:34","363976"
"AZA73HKJIZ7FL","cs_wg_mon_deconf_v1_pilot2","34X6J5FLPTZ2NYFYPGN2GNWDPZBQJO","23","0","JULY","10","NOVEMBER","2","0","1471",,,,,"0","2018-11-02 20:11:34","363977"
"A3NGQ3WR96BKQ3","cs_wg_mon_deconf_v1_pilot2","36V4Q8R5ZK1SO6LJSD0UWFOUTT6QMS","16","0","DECEMBER","1","JUNE","10","1","2806",,,,,"0","2018-11-02 20:11:34","363978"
"AW0225ONUAPO5","cs_wg_mon_deconf_v1_pilot2","3EJPLAJKEMHZDV1ISTCQYC3C8WDZ6M","4","0","MAY","10","SEPTEMBER","3","1","286",,,,,"0","2018-11-02 20:11:34","363979"
"A34CBV74LOV6E3","cs_wg_mon_deconf_v1_pilot2","3NAPMVF0ZWGSBKCBMW84HFT1IYY72L","9","0","APRIL","14","SEPTEMBER","2","0","2837",,,,,"1","2018-11-02 20:11:35","363980"
"AC05CZ95ORIMY","cs_wg_mon_deconf_v1_pilot2","3TR2532VIPV9DGWEA794AIFMPYZJ6K","19","0","MARCH","2","JANUARY","12","1","4702",,,,,"1","2018-11-02 20:11:35","363981"
"A5TI9UQEPLNWI","cs_wg_mon_deconf_v1_pilot2","317HQ483I7TLPQI0R6AL0SM879ZNIM","33","0","FEBRUARY","3","APRIL","6","1","2834",,,,,"0","2018-11-02 20:11:35","363982"
"A2VXEPC4KG1CWU","cs_wg_mon_deconf_v1_pilot2","3IGI0VL647LVLCT3P1NQKPIUJIYNOH","28","0","AUGUST","1","MAY","10","1","2161",,,,,"0","2018-11-02 20:11:36","363983"
"A3AHB644URDPQW","cs_wg_mon_deconf_v1_pilot2","3R6P78PK7KC5OCHPYEWUOFFKHETTG1","22","0","JULY","3","JANUARY","6","0","3179",,,,,"0","2018-11-02 20:11:36","363984"
"AYYL6SPHBIWB","cs_wg_mon_deconf_v1_pilot2","3ATTHHXXWAPQ1KW4TCXUYUD69N9IX1","37","0","MARCH","8","APRIL","1","0","3076",,,,,"0","2018-11-02 20:11:37","363985"
"A1XZ40T91S5YFU","cs_wg_mon_deconf_v1_pilot2","37TRT2X24QSFJSD96YQCLY1E3ZABJX","40","0","JUNE","4","MARCH","1","0","461",,,,,"0","2018-11-02 20:11:37","363986"
"A22N5ONOWPNZGB
","cs_wg_mon_deconf_v1_pilot2","3QL2OFSM96JUCNW0ZWEZPPODU4GCNA","8","0","FEBRUARY","1","DECEMBER","4","1","3078",,,,,"0","2018-11-02 20:11:37","363987"
"AW0225ONUAPO5","cs_wg_mon_deconf_v1_pilot2","3EJPLAJKEMHZDV1ISTCQYC3C8WDZ6M","5","0","MARCH","1","DECEMBER","8","0","305",,,,,"0","2018-11-02 20:11:37","363988"
"A27Y4NEIQQH00M","cs_wg_mon_deconf_v1_pilot2","3TXMY6UCAEPFFK9SFO6GTJJIZF2QCA","37","0","MAY","4","JANUARY","2","0","23189",,,,,"0","2018-11-02 20:11:38","363989"
"AZA73HKJIZ7FL","cs_wg_mon_deconf_v1_pilot2","34X6J5FLPTZ2NYFYPGN2GNWDPZBQJO","24","0","FEBRUARY","1","JUNE","12","1","868",,,,,"0","2018-11-02 20:11:38","363990"
"A277V4SHQB8JRS","cs_wg_mon_deconf_v1_pilot2","3IAEQB9FMELU49BSRT0X5EJM8GVDW1","16","0","MAY","8","AUGUST","3","0","3052",,,,,"1","2018-11-02 20:11:38","363991"
"A34CBV74LOV6E3","cs_wg_mon_deconf_v1_pilot2","3NAPMVF0ZWGSBKCBMW84HFT1IYY72L","10","0","OCTOBER","8","MAY","3","0","2508",,,,,"1","2018-11-02 20:11:39","363992"
"AW0225ONUAPO5","cs_wg_mon_deconf_v1_pilot2","3EJPLAJKEMHZDV1ISTCQYC3C8WDZ6M","6","0","OCTOBER","14","JUNE","3","1","58",,,,,"0","2018-11-02 20:11:39","363993"
"A3NGQ3WR96BKQ3","cs_wg_mon_deconf_v1_pilot2","36V4Q8R5ZK1SO6LJSD0UWFOUTT6QMS","17","0","FEBRUARY","8","MARCH","1","0","2959",,,,,"0","2018-11-02 20:11:40","363994"
"A2VZIJ7AZ537QP","cs_wg_mon_deconf_v1_pilot2","3H0W84IWBK3UOJ86OU1BOXTQGDHRE5","51","0","MARCH","2","OCTOBER","6","1","7254",,,,,"0","2018-11-02 20:11:40","363995"
"A5TI9UQEPLNWI","cs_wg_mon_deconf_v1_pilot2","317HQ483I7TLPQI0R6AL0SM879ZNIM","34","0","JULY","2","AUGUST","4","1","1348",,,,,"0","2018-11-02 20:11:40","363996"
"A3AHB644URDPQW","cs_wg_mon_deconf_v1_pilot2","3R6P78PK7KC5OCHPYEWUOFFKHETTG1","23","0","OCTOBER","12","AUGUST","2","0","1943",,,,,"0","2018-11-02 20:11:40","363997"
"A2VXEPC4KG1CWU","cs_wg_mon_deconf_v1_pilot2","3IGI0VL647LVLCT3P1NQKPIUJIYNOH","29","0","MARCH","8","DECEMBER","3","1","3149",,,,,"0","2018-11-02 20:11:41","363998"
"A27Y4NEIQQH00M","cs_wg_mon_deconf_v1_pilot2","3TXMY6UCAEPFFK9SFO6GTJJIZF2QCA","38","0","APRIL","10","AUGUST","1","0","1692",,,,,"0","2018-11-02 20:11:41","363999"
"AW0225ONUAPO5","cs_wg_mon_deconf_v1_pilot2","3EJPLAJKEMHZDV1ISTCQYC3C8WDZ6M","7","0","MAY","10","SEPTEMBER","3","0","82",,,,,"0","2018-11-02 20:11:41","364000"
"A22N5ONOWPNZGB
","cs_wg_mon_deconf_v1_pilot2","3QL2OFSM96JUCNW0ZWEZPPODU4GCNA","9","0","NOVEMBER","6","OCTOBER","2","0","2703",,,,,"0","2018-11-02 20:11:42","364001"
"AC05CZ95ORIMY","cs_wg_mon_deconf_v1_pilot2","3TR2532VIPV9DGWEA794AIFMPYZJ6K","20","0","SEPTEMBER","10","JUNE","3","0","5214",,,,,"0","2018-11-02 20:11:42","364002"
"A1XZ40T91S5YFU","cs_wg_mon_deconf_v1_pilot2","37TRT2X24QSFJSD96YQCLY1E3ZABJX","41","0","MARCH","1","JUNE","4","0","2598",,,,,"0","2018-11-02 20:11:42","364003"
"A277V4SHQB8JRS","cs_wg_mon_deconf_v1_pilot2","3IAEQB9FMELU49BSRT0X5EJM8GVDW1","17","0","DECEMBER","4","JANUARY","1","0","2482",,,,,"1","2018-11-02 20:11:42","364004"
"AZA73HKJIZ7FL","cs_wg_mon_deconf_v1_pilot2","34X6J5FLPTZ2NYFYPGN2GNWDPZBQJO","25","0","JANUARY","14","AUGUST","3","0","2069",,,,,"0","2018-11-02 20:11:43","364005"
"AYYL6SPHBIWB","cs_wg_mon_deconf_v1_pilot2","3ATTHHXXWAPQ1KW4TCXUYUD69N9IX1","39","0","JULY","3","DECEMBER","10","1","1492",,,,,"0","2018-11-02 20:11:43","364006"
"A2FX289DJSA2A6","cs_wg_mon_deconf_v1_pilot2","3RGU30DZTA9B2JH6XNGLZEC8FYEJMU","1","0","SEPTEMBER","8","FEBRUARY","1","0","5795",,,,,"0","2018-11-02 20:11:43","364007"
"A34CBV74LOV6E3","cs_wg_mon_deconf_v1_pilot2","3NAPMVF0ZWGSBKCBMW84HFT1IYY72L","11","0","AUGUST","4","JULY","2","0","2203",,,,,"1","2018-11-02 20:11:43","364008"
"AW0225ONUAPO5","cs_wg_mon_deconf_v1_pilot2","3EJPLAJKEMHZDV1ISTCQYC3C8WDZ6M","8","0","MAY","10","SEPTEMBER","3","1","339",,,,,"0","2018-11-02 20:11:43","364009"
"A27Y4NEIQQH00M","cs_wg_mon_deconf_v1_pilot2","3TXMY6UCAEPFFK9SFO6GTJJIZF2QCA","39","0","JUNE","12","FEBRUARY","3","0","1634",,,,,"0","2018-11-02 20:11:44","364010"
"A3NGQ3WR96BKQ3","cs_wg_mon_deconf_v1_pilot2","36V4Q8R5ZK1SO6LJSD0UWFOUTT6QMS","18","0","JUNE","10","DECEMBER","1","0","2652",,,,,"0","2018-11-02 20:11:44","364011"
"A2VXEPC4KG1CWU","cs_wg_mon_deconf_v1_pilot2","3IGI0VL647LVLCT3P1NQKPIUJIYNOH","30","0","SEPTEMBER","2","JULY","6","1","1980",,,,,"0","2018-11-02 20:11:45","364012"
"AYYL6SPHBIWB","cs_wg_mon_deconf_v1_pilot2","3ATTHHXXWAPQ1KW4TCXUYUD69N9IX1","40","0","DECEMBER","10","JULY","3","0","1164",,,,,"0","2018-11-02 20:11:46","364013"
"A1XZ40T91S5YFU","cs_wg_mon_deconf_v1_pilot2","37TRT2X24QSFJSD96YQCLY1E3ZABJX","42","0","MAY","3","NOVEMBER","14","0","781",,,,,"0","2018-11-02 20:11:46","364014"
"AW0225ONUAPO5","cs_wg_mon_deconf_v1_pilot2","3EJPLAJKEMHZDV1ISTCQYC3C8WDZ6M","9","0","OCTOBER","14","JUNE","3","0","280",,,,,"0","2018-11-02 20:11:46","364015"
"A3AHB644URDPQW","cs_wg_mon_deconf_v1_pilot2","3R6P78PK7KC5OCHPYEWUOFFKHETTG1","24","0","JULY","3","JANUARY","6","1","3266",,,,,"0","2018-11-02 20:11:46","364016"
"A14OT0SJEXQKZF","cs_wg_mon_deconf_v1_pilot2","3X0H8UUIT1P06YUAOJVM0D5M9J5SWA","2","0","NOVEMBER","2","APRIL","8","1","7722",,,,,"1","2018-11-02 20:11:46","364017"
"A5TI9UQEPLNWI","cs_wg_mon_deconf_v1_pilot2","317HQ483I7TLPQI0R6AL0SM879ZNIM","35","0","FEBRUARY","3","APRIL","6","1","3184",,,,,"0","2018-11-02 20:11:46","364018"
"AC05CZ95ORIMY","cs_wg_mon_deconf_v1_pilot2","3TR2532VIPV9DGWEA794AIFMPYZJ6K","21","0","MAY","1","DECEMBER","6","1","2141",,,,,"0","2018-11-02 20:11:47","364019"
"A22N5ONOWPNZGB
","cs_wg_mon_deconf_v1_pilot2","3QL2OFSM96JUCNW0ZWEZPPODU4GCNA","10","0","FEBRUARY","1","DECEMBER","4","1","2226",,,,,"0","2018-11-02 20:11:47","364020"
"AZA73HKJIZ7FL","cs_wg_mon_deconf_v1_pilot2","34X6J5FLPTZ2NYFYPGN2GNWDPZBQJO","26","0","JUNE","12","FEBRUARY","1","0","1818",,,,,"0","2018-11-02 20:11:47","364021"
"A34CBV74LOV6E3","cs_wg_mon_deconf_v1_pilot2","3NAPMVF0ZWGSBKCBMW84HFT1IYY72L","12","0","APRIL","14","SEPTEMBER","2","0","2221",,,,,"1","2018-11-02 20:11:48","364022"
"A27Y4NEIQQH00M","cs_wg_mon_deconf_v1_pilot2","3TXMY6UCAEPFFK9SFO6GTJJIZF2QCA","40","0","APRIL","10","AUGUST","1","0","1635",,,,,"0","2018-11-02 20:11:48","364023"
"AW0225ONUAPO5","cs_wg_mon_deconf_v1_pilot2","3EJPLAJKEMHZDV1ISTCQYC3C8WDZ6M","10","0","MARCH","1","DECEMBER","8","1","34",,,,,"0","2018-11-02 20:11:48","364025"
"A2VZIJ7AZ537QP","cs_wg_mon_deconf_v1_pilot2","3H0W84IWBK3UOJ86OU1BOXTQGDHRE5","52","0","JUNE","4","SEPTEMBER","2","1","6729",,,,,"0","2018-11-02 20:11:49","364026"
"A1XZ40T91S5YFU","cs_wg_mon_deconf_v1_pilot2","37TRT2X24QSFJSD96YQCLY1E3ZABJX","43","0","FEBRUARY","6","SEPTEMBER","2","0","457",,,,,"0","2018-11-02 20:11:49","364027"
"A277V4SHQB8JRS","cs_wg_mon_deconf_v1_pilot2","3IAEQB9FMELU49BSRT0X5EJM8GVDW1","18","0","MARCH","2","SEPTEMBER","12","1","4313",,,,,"1","2018-11-02 20:11:49","364028"
"A2VXEPC4KG1CWU","cs_wg_mon_deconf_v1_pilot2","3IGI0VL647LVLCT3P1NQKPIUJIYNOH","31","0","AUGUST","1","MAY","10","1","2386",,,,,"0","2018-11-02 20:11:49","364029"
"A3AHB644URDPQW","cs_wg_mon_deconf_v1_pilot2","3R6P78PK7KC5OCHPYEWUOFFKHETTG1","25","0","MAY","4","JUNE","3","0","1890",,,,,"0","2018-11-02 20:11:49","364030"
"AZA73HKJIZ7FL","cs_wg_mon_deconf_v1_pilot2","34X6J5FLPTZ2NYFYPGN2GNWDPZBQJO","27","0","JULY","10","NOVEMBER","2","0","1105",,,,,"0","2018-11-02 20:11:50","364031"
"A3NGQ3WR96BKQ3","cs_wg_mon_deconf_v1_pilot2","36V4Q8R5ZK1SO6LJSD0UWFOUTT6QMS","19","0","JUNE","10","DECEMBER","1","1","3405",,,,,"0","2018-11-02 20:11:51","364032"
"AYYL6SPHBIWB","cs_wg_mon_deconf_v1_pilot2","3ATTHHXXWAPQ1KW4TCXUYUD69N9IX1","41","0","NOVEMBER","4","JANUARY","2","0","3123",,,,,"0","2018-11-02 20:11:51","364033"
"A5TI9UQEPLNWI","cs_wg_mon_deconf_v1_pilot2","317HQ483I7TLPQI0R6AL0SM879ZNIM","36","0","JULY","2","AUGUST","4","1","1223",,,,,"0","2018-11-02 20:11:51","364034"
"AC05CZ95ORIMY","cs_wg_mon_deconf_v1_pilot2","3TR2532VIPV9DGWEA794AIFMPYZJ6K","22","0","FEBRUARY","8","JULY","3","0","2289",,,,,"0","2018-11-02 20:11:51","364035"
"A22N5ONOWPNZGB
","cs_wg_mon_deconf_v1_pilot2","3QL2OFSM96JUCNW0ZWEZPPODU4GCNA","11","0","APRIL","2","JUNE","8","1","2516",,,,,"0","2018-11-02 20:11:52","364036"
"A2VZIJ7AZ537QP","cs_wg_mon_deconf_v1_pilot2","3H0W84IWBK3UOJ86OU1BOXTQGDHRE5","53","0","APRIL","8","FEBRUARY","3","1","1158",,,,,"0","2018-11-02 20:11:52","364037"
"A27Y4NEIQQH00M","cs_wg_mon_deconf_v1_pilot2","3TXMY6UCAEPFFK9SFO6GTJJIZF2QCA","41","0","AUGUST","1","APRIL","10","1","2263",,,,,"0","2018-11-02 20:11:52","364038"
"A34CBV74LOV6E3","cs_wg_mon_deconf_v1_pilot2","3NAPMVF0ZWGSBKCBMW84HFT1IYY72L","13","0","AUGUST","4","JULY","2","0","2315",,,,,"1","2018-11-02 20:11:52","364039"
"A1XZ40T91S5YFU","cs_wg_mon_deconf_v1_pilot2","37TRT2X24QSFJSD96YQCLY1E3ZABJX","44","0","JUNE","4","MARCH","1","0","647",,,,,"0","2018-11-02 20:11:52","364040"
"AW0225ONUAPO5","cs_wg_mon_deconf_v1_pilot2","3EJPLAJKEMHZDV1ISTCQYC3C8WDZ6M","11","0","APRIL","1","NOVEMBER","4","1","1797",,,,,"0","2018-11-02 20:11:53","364041"
"A3AHB644URDPQW","cs_wg_mon_deconf_v1_pilot2","3R6P78PK7KC5OCHPYEWUOFFKHETTG1","26","0","MARCH","2","DECEMBER","8","1","1490",,,,,"0","2018-11-02 20:11:53","364042"
"A2VZIJ7AZ537QP","cs_wg_mon_deconf_v1_pilot2","3H0W84IWBK3UOJ86OU1BOXTQGDHRE5","54","0","OCTOBER","6","MARCH","2","0","472",,,,,"0","2018-11-02 20:11:54","364043"
"A2VXEPC4KG1CWU","cs_wg_mon_deconf_v1_pilot2","3IGI0VL647LVLCT3P1NQKPIUJIYNOH","32","0","JULY","6","SEPTEMBER","2","0","3632",,,,,"0","2018-11-02 20:11:55","364044"
"A27Y4NEIQQH00M","cs_wg_mon_deconf_v1_pilot2","3TXMY6UCAEPFFK9SFO6GTJJIZF2QCA","42","0","DECEMBER","8","OCTOBER","2","0","1210",,,,,"0","2018-11-02 20:11:55","364045"
"A5TI9UQEPLNWI","cs_wg_mon_deconf_v1_pilot2","317HQ483I7TLPQI0R6AL0SM879ZNIM","37","0","OCTOBER","14","JANUARY","2","0","1253",,,,,"0","2018-11-02 20:11:55","364046"
"A22N5ONOWPNZGB
","cs_wg_mon_deconf_v1_pilot2","3QL2OFSM96JUCNW0ZWEZPPODU4GCNA","12","0","MARCH","3","AUGUST","14","1","1346",,,,,"0","2018-11-02 20:11:55","364047"
"A1XZ40T91S5YFU","cs_wg_mon_deconf_v1_pilot2","37TRT2X24QSFJSD96YQCLY1E3ZABJX","45","0","OCTOBER","10","JANUARY","1","0","507",,,,,"0","2018-11-02 20:11:55","364048"
"AC05CZ95ORIMY","cs_wg_mon_deconf_v1_pilot2","3TR2532VIPV9DGWEA794AIFMPYZJ6K","23","0","NOVEMBER","14","APRIL","2","0","2546",,,,,"0","2018-11-02 20:11:56","364049"
"AYYL6SPHBIWB","cs_wg_mon_deconf_v1_pilot2","3ATTHHXXWAPQ1KW4TCXUYUD69N9IX1","42","0","APRIL","1","MARCH","8","1","3284",,,,,"0","2018-11-02 20:11:56","364050"
"A34CBV74LOV6E3","cs_wg_mon_deconf_v1_pilot2","3NAPMVF0ZWGSBKCBMW84HFT1IYY72L","14","0","JUNE","6","JANUARY","1","0","1982",,,,,"1","2018-11-02 20:11:56","364051"
"AW0225ONUAPO5","cs_wg_mon_deconf_v1_pilot2","3EJPLAJKEMHZDV1ISTCQYC3C8WDZ6M","12","0","MARCH","1","DECEMBER","8","0","284",,,,,"0","2018-11-02 20:11:56","364052"
"A2VZIJ7AZ537QP","cs_wg_mon_deconf_v1_pilot2","3H0W84IWBK3UOJ86OU1BOXTQGDHRE5","55","0","NOVEMBER","1","AUGUST","12","0","481",,,,,"0","2018-11-02 20:11:57","364053"
"A14OT0SJEXQKZF","cs_wg_mon_deconf_v1_pilot2","3X0H8UUIT1P06YUAOJVM0D5M9J5SWA","3","0","JANUARY","6","MARCH","1","0","7013",,,,,"1","2018-11-02 20:11:57","364054"
"A3AHB644URDPQW","cs_wg_mon_deconf_v1_pilot2","3R6P78PK7KC5OCHPYEWUOFFKHETTG1","27","0","AUGUST","2","OCTOBER","12","1","1954",,,,,"0","2018-11-02 20:11:57","364055"
"A2FX289DJSA2A6","cs_wg_mon_deconf_v1_pilot2","3RGU30DZTA9B2JH6XNGLZEC8FYEJMU","2","0","OCTOBER","2","APRIL","6","1","11145",,,,,"0","2018-11-02 20:11:58","364056"
"A277V4SHQB8JRS","cs_wg_mon_deconf_v1_pilot2","3IAEQB9FMELU49BSRT0X5EJM8GVDW1","19","0","MAY","8","AUGUST","3","0","6738",,,,,"1","2018-11-02 20:11:58","364057"
"AZA73HKJIZ7FL","cs_wg_mon_deconf_v1_pilot2","34X6J5FLPTZ2NYFYPGN2GNWDPZBQJO","28","0","DECEMBER","3","SEPTEMBER","8","1","4139",,,,,"0","2018-11-02 20:11:58","364059"
"AW0225ONUAPO5","cs_wg_mon_deconf_v1_pilot2","3EJPLAJKEMHZDV1ISTCQYC3C8WDZ6M","13","0","SEPTEMBER","3","MAY","10","1","265",,,,,"0","2018-11-02 20:11:58","364060"
"A2VXEPC4KG1CWU","cs_wg_mon_deconf_v1_pilot2","3IGI0VL647LVLCT3P1NQKPIUJIYNOH","33","0","OCTOBER","3","FEBRUARY","14","1","1057",,,,,"0","2018-11-02 20:11:58","364061"
"A27Y4NEIQQH00M","cs_wg_mon_deconf_v1_pilot2","3TXMY6UCAEPFFK9SFO6GTJJIZF2QCA","43","0","MAY","4","JANUARY","2","0","1687",,,,,"0","2018-11-02 20:11:58","364062"
"A1XZ40T91S5YFU","cs_wg_mon_deconf_v1_pilot2","37TRT2X24QSFJSD96YQCLY1E3ZABJX","46","0","OCTOBER","10","JANUARY","1","0","1588",,,,,"0","2018-11-02 20:11:59","364063"
"AYYL6SPHBIWB","cs_wg_mon_deconf_v1_pilot2","3ATTHHXXWAPQ1KW4TCXUYUD69N9IX1","43","0","SEPTEMBER","3","AUGUST","12","1","2163",,,,,"0","2018-11-02 20:12:00","364064"
"A34CBV74LOV6E3","cs_wg_mon_deconf_v1_pilot2","3NAPMVF0ZWGSBKCBMW84HFT1IYY72L","15","0","OCTOBER","8","MAY","3","0","2222",,,,,"1","2018-11-02 20:12:00","364065"
"A2VXEPC4KG1CWU","cs_wg_mon_deconf_v1_pilot2","3IGI0VL647LVLCT3P1NQKPIUJIYNOH","34","0","APRIL","2","JUNE","12","1","766",,,,,"0","2018-11-02 20:12:00","364066"
"AC05CZ95ORIMY","cs_wg_mon_deconf_v1_pilot2","3TR2532VIPV9DGWEA794AIFMPYZJ6K","24","0","APRIL","2","NOVEMBER","14","1","2260",,,,,"0","2018-11-02 20:12:00","364067"
"AB0Q4NUT27398","cs_wg_mon_deconf_v1_pilot2","3VHP9MDGRNLIOVJJ18VMHKF4SDUCF3","0","0","SEPTEMBER","6","APRIL","2","0","5725",,,,,"0","2018-11-02 20:12:01","364068"
"AW0225ONUAPO5","cs_wg_mon_deconf_v1_pilot2","3EJPLAJKEMHZDV1ISTCQYC3C8WDZ6M","14","0","DECEMBER","8","MARCH","1","0","611",,,,,"0","2018-11-02 20:12:01","364069"
"A3AHB644URDPQW","cs_wg_mon_deconf_v1_pilot2","3R6P78PK7KC5OCHPYEWUOFFKHETTG1","28","0","FEBRUARY","1","NOVEMBER","14","1","1641",,,,,"0","2018-11-02 20:12:01","364070"
"A22N5ONOWPNZGB
","cs_wg_mon_deconf_v1_pilot2","3QL2OFSM96JUCNW0ZWEZPPODU4GCNA","13","0","JUNE","8","APRIL","2","0","3899",,,,,"0","2018-11-02 20:12:01","364071"
"A2OYV1JVQV6KIC","cs_wg_mon_deconf_v1_pilot2","3G2UL9A02DFGTLVC9YK77SADY30762","0","0","JULY","4","OCTOBER","2","1","5505",,,,,"0","2018-11-02 20:12:01","364072"
"A5TI9UQEPLNWI","cs_wg_mon_deconf_v1_pilot2","317HQ483I7TLPQI0R6AL0SM879ZNIM","38","0","FEBRUARY","3","APRIL","6","1","3674",,,,,"0","2018-11-02 20:12:02","364073"
"A27Y4NEIQQH00M","cs_wg_mon_deconf_v1_pilot2","3TXMY6UCAEPFFK9SFO6GTJJIZF2QCA","44","0","JUNE","12","FEBRUARY","3","0","1483",,,,,"0","2018-11-02 20:12:02","364074"
"AZA73HKJIZ7FL","cs_wg_mon_deconf_v1_pilot2","34X6J5FLPTZ2NYFYPGN2GNWDPZBQJO","29","0","MARCH","2","OCTOBER","4","0","1345",,,,,"0","2018-11-02 20:12:02","364075"
"AW0225ONUAPO5","cs_wg_mon_deconf_v1_pilot2","3EJPLAJKEMHZDV1ISTCQYC3C8WDZ6M","15","0","FEBRUARY","6","AUGUST","2","1","369",,,,,"0","2018-11-02 20:12:03","364076"
"A2VXEPC4KG1CWU","cs_wg_mon_deconf_v1_pilot2","3IGI0VL647LVLCT3P1NQKPIUJIYNOH","35","0","AUGUST","1","MAY","10","1","758",,,,,"0","2018-11-02 20:12:03","364077"
"ANU6OTXYGSSTX","cs_wg_mon_deconf_v1_pilot2","3MD9PLUKKIF7KG7ARAY70NPY3M1NZJ","19","0","AUGUST","6","OCTOBER","1","0","57696",,,,,"0","2018-11-02 20:12:03","364078"
"A1XZ40T91S5YFU","cs_wg_mon_deconf_v1_pilot2","37TRT2X24QSFJSD96YQCLY1E3ZABJX","47","0","OCTOBER","10","JANUARY","1","0","896",,,,,"0","2018-11-02 20:12:03","364079"
"AYYL6SPHBIWB","cs_wg_mon_deconf_v1_pilot2","3ATTHHXXWAPQ1KW4TCXUYUD69N9IX1","44","0","FEBRUARY","14","OCTOBER","2","0","1323",,,,,"0","2018-11-02 20:12:03","364080"
"A27Y4NEIQQH00M","cs_wg_mon_deconf_v1_pilot2","3TXMY6UCAEPFFK9SFO6GTJJIZF2QCA","45","0","DECEMBER","8","OCTOBER","2","0","1112",,,,,"0","2018-11-02 20:12:04","364081"
"A3NGQ3WR96BKQ3","cs_wg_mon_deconf_v1_pilot2","36V4Q8R5ZK1SO6LJSD0UWFOUTT6QMS","20","0","SEPTEMBER","3","JULY","6","0","9311",,,,,"0","2018-11-02 20:12:04","364082"
"A3AHB644URDPQW","cs_wg_mon_deconf_v1_pilot2","3R6P78PK7KC5OCHPYEWUOFFKHETTG1","29","0","DECEMBER","8","MARCH","2","0","1535",,,,,"0","2018-11-02 20:12:05","364083"
"A34CBV74LOV6E3","cs_wg_mon_deconf_v1_pilot2","3NAPMVF0ZWGSBKCBMW84HFT1IYY72L","16","0","MAY","3","OCTOBER","8","1","2679",,,,,"1","2018-11-02 20:12:05","364084"
"A277V4SHQB8JRS","cs_wg_mon_deconf_v1_pilot2","3IAEQB9FMELU49BSRT0X5EJM8GVDW1","20","0","APRIL","2","JUNE","10","1","3879",,,,,"0","2018-11-02 20:12:05","364085"
"AW0225ONUAPO5","cs_wg_mon_deconf_v1_pilot2","3EJPLAJKEMHZDV1ISTCQYC3C8WDZ6M","16","0","DECEMBER","8","MARCH","1","0","501",,,,,"0","2018-11-02 20:12:05","364086"
"A2VXEPC4KG1CWU","cs_wg_mon_deconf_v1_pilot2","3IGI0VL647LVLCT3P1NQKPIUJIYNOH","36","0","FEBRUARY","14","OCTOBER","3","0","898",,,,,"0","2018-11-02 20:12:06","364087"
"A5TI9UQEPLNWI","cs_wg_mon_deconf_v1_pilot2","317HQ483I7TLPQI0R6AL0SM879ZNIM","39","0","MARCH","1","SEPTEMBER","8","1","990",,,,,"0","2018-11-02 20:12:06","364088"
"AZA73HKJIZ7FL","cs_wg_mon_deconf_v1_pilot2","34X6J5FLPTZ2NYFYPGN2GNWDPZBQJO","30","0","AUGUST","3","JANUARY","14","0","1365",,,,,"0","2018-11-02 20:12:07","364090"
"A22N5ONOWPNZGB
","cs_wg_mon_deconf_v1_pilot2","3QL2OFSM96JUCNW0ZWEZPPODU4GCNA","14","0","MARCH","3","AUGUST","14","1","2900",,,,,"0","2018-11-02 20:12:07","364091"
"AC05CZ95ORIMY","cs_wg_mon_deconf_v1_pilot2","3TR2532VIPV9DGWEA794AIFMPYZJ6K","25","0","JULY","3","FEBRUARY","8","1","3971",,,,,"0","2018-11-02 20:12:07","364092"
"A2OYV1JVQV6KIC","cs_wg_mon_deconf_v1_pilot2","3G2UL9A02DFGTLVC9YK77SADY30762","1","0","JUNE","8","NOVEMBER","1","1","2444",,,,,"0","2018-11-02 20:12:07","364093"
"AYYL6SPHBIWB","cs_wg_mon_deconf_v1_pilot2","3ATTHHXXWAPQ1KW4TCXUYUD69N9IX1","45","0","AUGUST","12","SEPTEMBER","3","0","2220",,,,,"0","2018-11-02 20:12:07","364094"
"A2FX289DJSA2A6","cs_wg_mon_deconf_v1_pilot2","3RGU30DZTA9B2JH6XNGLZEC8FYEJMU","3","0","JUNE","3","DECEMBER","4","1","7410",,,,,"0","2018-11-02 20:12:08","364095"
"AW0225ONUAPO5","cs_wg_mon_deconf_v1_pilot2","3EJPLAJKEMHZDV1ISTCQYC3C8WDZ6M","17","0","JULY","12","JANUARY","2","1","422",,,,,"0","2018-11-02 20:12:08","364096"
"ANU6OTXYGSSTX","cs_wg_mon_deconf_v1_pilot2","3MD9PLUKKIF7KG7ARAY70NPY3M1NZJ","20","0","MARCH","2","JULY","12","0","2538",,,,,"0","2018-11-02 20:12:08","364097"
"A27Y4NEIQQH00M","cs_wg_mon_deconf_v1_pilot2","3TXMY6UCAEPFFK9SFO6GTJJIZF2QCA","46","0","OCTOBER","2","DECEMBER","8","1","1804",,,,,"0","2018-11-02 20:12:08","364098"
"A3AHB644URDPQW","cs_wg_mon_deconf_v1_pilot2","3R6P78PK7KC5OCHPYEWUOFFKHETTG1","30","0","SEPTEMBER","10","APRIL","1","0","1671",,,,,"0","2018-11-02 20:12:09","364099"
"A1XZ40T91S5YFU","cs_wg_mon_deconf_v1_pilot2","37TRT2X24QSFJSD96YQCLY1E3ZABJX","48","0","JUNE","4","MARCH","1","0","2659",,,,,"0","2018-11-02 20:12:09","364100"
"A34CBV74LOV6E3","cs_wg_mon_deconf_v1_pilot2","3NAPMVF0ZWGSBKCBMW84HFT1IYY72L","17","0","MARCH","10","NOVEMBER","1","0","2116",,,,,"1","2018-11-02 20:12:09","364101"
"A2VXEPC4KG1CWU","cs_wg_mon_deconf_v1_pilot2","3IGI0VL647LVLCT3P1NQKPIUJIYNOH","37","0","APRIL","2","JUNE","12","1","2380",,,,,"0","2018-11-02 20:12:10","364102"
"AW0225ONUAPO5","cs_wg_mon_deconf_v1_pilot2","3EJPLAJKEMHZDV1ISTCQYC3C8WDZ6M","18","0","FEBRUARY","6","AUGUST","2","0","5",,,,,"0","2018-11-02 20:12:10","364103"
"A277V4SHQB8JRS","cs_wg_mon_deconf_v1_pilot2","3IAEQB9FMELU49BSRT0X5EJM8GVDW1","21","0","DECEMBER","4","JANUARY","1","0","2906",,,,,"0","2018-11-02 20:12:11","364104"
"A27Y4NEIQQH00M","cs_wg_mon_deconf_v1_pilot2","3TXMY6UCAEPFFK9SFO6GTJJIZF2QCA","47","0","JUNE","12","FEBRUARY","3","0","1284",,,,,"0","2018-11-02 20:12:11","364105"
"A2OYV1JVQV6KIC","cs_wg_mon_deconf_v1_pilot2","3G2UL9A02DFGTLVC9YK77SADY30762","2","0","OCTOBER","2","JULY","4","1","1493",,,,,"0","2018-11-02 20:12:11","364106"
"AC05CZ95ORIMY","cs_wg_mon_deconf_v1_pilot2","3TR2532VIPV9DGWEA794AIFMPYZJ6K","26","0","JUNE","3","SEPTEMBER","10","1","2375",,,,,"0","2018-11-02 20:12:11","364107"
"AYYL6SPHBIWB","cs_wg_mon_deconf_v1_pilot2","3ATTHHXXWAPQ1KW4TCXUYUD69N9IX1","46","0","OCTOBER","2","FEBRUARY","14","1","2757",,,,,"0","2018-11-02 20:12:12","364108"
"A5TI9UQEPLNWI","cs_wg_mon_deconf_v1_pilot2","317HQ483I7TLPQI0R6AL0SM879ZNIM","40","0","FEBRUARY","3","APRIL","6","1","2571",,,,,"0","2018-11-02 20:12:12","364109"
"AB0Q4NUT27398","cs_wg_mon_deconf_v1_pilot2","3VHP9MDGRNLIOVJJ18VMHKF4SDUCF3","1","0","MAY","14","JANUARY","3","0","8072",,,,,"1","2018-11-02 20:12:12","364110"
"A3AHB644URDPQW","cs_wg_mon_deconf_v1_pilot2","3R6P78PK7KC5OCHPYEWUOFFKHETTG1","31","0","SEPTEMBER","10","APRIL","1","0","722",,,,,"0","2018-11-02 20:12:12","364111"
"A2VZIJ7AZ537QP","cs_wg_mon_deconf_v1_pilot2","3H0W84IWBK3UOJ86OU1BOXTQGDHRE5","56","0","SEPTEMBER","2","JUNE","4","0","13412",,,,,"0","2018-11-02 20:12:12","364112"
"ANU6OTXYGSSTX","cs_wg_mon_deconf_v1_pilot2","3MD9PLUKKIF7KG7ARAY70NPY3M1NZJ","21","0","JANUARY","3","MAY","10","1","2163",,,,,"0","2018-11-02 20:12:12","364113"
"A22N5ONOWPNZGB
","cs_wg_mon_deconf_v1_pilot2","3QL2OFSM96JUCNW0ZWEZPPODU4GCNA","15","0","DECEMBER","4","FEBRUARY","1","1","3031",,,,,"0","2018-11-02 20:12:13","364115"
"A1XZ40T91S5YFU","cs_wg_mon_deconf_v1_pilot2","37TRT2X24QSFJSD96YQCLY1E3ZABJX","49","0","MARCH","1","JUNE","4","0","2315",,,,,"0","2018-11-02 20:12:14","364116"
"A2VXEPC4KG1CWU","cs_wg_mon_deconf_v1_pilot2","3IGI0VL647LVLCT3P1NQKPIUJIYNOH","38","0","JULY","6","SEPTEMBER","2","0","2243",,,,,"0","2018-11-02 20:12:14","364117"
"A3NGQ3WR96BKQ3","cs_wg_mon_deconf_v1_pilot2","36V4Q8R5ZK1SO6LJSD0UWFOUTT6QMS","21","0","JULY","6","SEPTEMBER","3","1","3701",,,,,"0","2018-11-02 20:12:14","364118"
"A3NLOUDYXUZ2NT","cs_wg_mon_deconf_v1_pilot2","378XPAWRUCEE57OBI25GEM28821IAY","0","0","APRIL","10","NOVEMBER","1","0","14775",,,,,"1","2018-11-02 20:12:14","364119"
"AYYL6SPHBIWB","cs_wg_mon_deconf_v1_pilot2","3ATTHHXXWAPQ1KW4TCXUYUD69N9IX1","47","0","MAY","1","JUNE","6","1","1502",,,,,"0","2018-11-02 20:12:15","364120"
"A27Y4NEIQQH00M","cs_wg_mon_deconf_v1_pilot2","3TXMY6UCAEPFFK9SFO6GTJJIZF2QCA","48","0","OCTOBER","2","DECEMBER","8","1","2025",,,,,"0","2018-11-02 20:12:15","364121"
"A34CBV74LOV6E3","cs_wg_mon_deconf_v1_pilot2","3NAPMVF0ZWGSBKCBMW84HFT1IYY72L","18","0","MAY","3","OCTOBER","8","1","3034",,,,,"1","2018-11-02 20:12:15","364122"
"A277V4SHQB8JRS","cs_wg_mon_deconf_v1_pilot2","3IAEQB9FMELU49BSRT0X5EJM8GVDW1","22","0","JANUARY","1","DECEMBER","4","1","2279",,,,,"0","2018-11-02 20:12:15","364123"
"A2VZIJ7AZ537QP","cs_wg_mon_deconf_v1_pilot2","3H0W84IWBK3UOJ86OU1BOXTQGDHRE5","57","0","NOVEMBER","1","AUGUST","12","0","1677",,,,,"0","2018-11-02 20:12:15","364124"
"AW0225ONUAPO5","cs_wg_mon_deconf_v1_pilot2","3EJPLAJKEMHZDV1ISTCQYC3C8WDZ6M","20","0","AUGUST","2","FEBRUARY","6","0","377",,,,,"0","2018-11-02 20:12:16","364125"
"A2OYV1JVQV6KIC","cs_wg_mon_deconf_v1_pilot2","3G2UL9A02DFGTLVC9YK77SADY30762","3","0","NOVEMBER","1","JUNE","8","1","2137",,,,,"0","2018-11-02 20:12:16","364126"
"A3AHB644URDPQW","cs_wg_mon_deconf_v1_pilot2","3R6P78PK7KC5OCHPYEWUOFFKHETTG1","32","0","JUNE","3","MAY","4","1","1830",,,,,"0","2018-11-02 20:12:16","364127"
"AC05CZ95ORIMY","cs_wg_mon_deconf_v1_pilot2","3TR2532VIPV9DGWEA794AIFMPYZJ6K","27","0","DECEMBER","6","MAY","1","0","2759",,,,,"0","2018-11-02 20:12:16","364128"
"ANU6OTXYGSSTX","cs_wg_mon_deconf_v1_pilot2","3MD9PLUKKIF7KG7ARAY70NPY3M1NZJ","22","0","APRIL","14","JUNE","3","0","2179",,,,,"0","2018-11-02 20:12:16","364129"
"A5TI9UQEPLNWI","cs_wg_mon_deconf_v1_pilot2","317HQ483I7TLPQI0R6AL0SM879ZNIM","41","0","APRIL","6","FEBRUARY","3","1","1755",,,,,"0","2018-11-02 20:12:17","364130"
"A2FX289DJSA2A6","cs_wg_mon_deconf_v1_pilot2","3RGU30DZTA9B2JH6XNGLZEC8FYEJMU","4","0","AUGUST","3","JANUARY","14","0","6750",,,,,"0","2018-11-02 20:12:17","364131"
"A2VXEPC4KG1CWU","cs_wg_mon_deconf_v1_pilot2","3IGI0VL647LVLCT3P1NQKPIUJIYNOH","39","0","MAY","10","AUGUST","1","0","1801",,,,,"0","2018-11-02 20:12:17","364132"
"AW0225ONUAPO5","cs_wg_mon_deconf_v1_pilot2","3EJPLAJKEMHZDV1ISTCQYC3C8WDZ6M","21","0","JULY","12","JANUARY","2","1","282",,,,,"0","2018-11-02 20:12:18","364133"
"A2VZIJ7AZ537QP","cs_wg_mon_deconf_v1_pilot2","3H0W84IWBK3UOJ86OU1BOXTQGDHRE5","58","0","FEBRUARY","3","APRIL","8","1","542",,,,,"0","2018-11-02 20:12:18","364134"
"A22N5ONOWPNZGB
","cs_wg_mon_deconf_v1_pilot2","3QL2OFSM96JUCNW0ZWEZPPODU4GCNA","16","0","DECEMBER","4","FEBRUARY","1","0","2408",,,,,"0","2018-11-02 20:12:18","364135"
"AYYL6SPHBIWB","cs_wg_mon_deconf_v1_pilot2","3ATTHHXXWAPQ1KW4TCXUYUD69N9IX1","48","0","OCTOBER","2","FEBRUARY","14","1","1837",,,,,"0","2018-11-02 20:12:18","364136"
"A27Y4NEIQQH00M","cs_wg_mon_deconf_v1_pilot2","3TXMY6UCAEPFFK9SFO6GTJJIZF2QCA","49","0","JULY","3","MARCH","14","1","1864",,,,,"0","2018-11-02 20:12:18","364137"
"A1XZ40T91S5YFU","cs_wg_mon_deconf_v1_pilot2","37TRT2X24QSFJSD96YQCLY1E3ZABJX","50","0","SEPTEMBER","2","FEBRUARY","6","0","2160",,,,,"0","2018-11-02 20:12:19","364138"
"A277V4SHQB8JRS","cs_wg_mon_deconf_v1_pilot2","3IAEQB9FMELU49BSRT0X5EJM8GVDW1","23","0","JUNE","10","APRIL","2","0","1755",,,,,"0","2018-11-02 20:12:19","364139"
"AB0Q4NUT27398","cs_wg_mon_deconf_v1_pilot2","3VHP9MDGRNLIOVJJ18VMHKF4SDUCF3","2","0","OCTOBER","8","NOVEMBER","1","0","3312",,,,,"1","2018-11-02 20:12:19","364140"
"AZA73HKJIZ7FL","cs_wg_mon_deconf_v1_pilot2","34X6J5FLPTZ2NYFYPGN2GNWDPZBQJO","31","0","MAY","6","APRIL","1","0","4446",,,,,"0","2018-11-02 20:12:19","364141"
"A2OYV1JVQV6KIC","cs_wg_mon_deconf_v1_pilot2","3G2UL9A02DFGTLVC9YK77SADY30762","4","0","AUGUST","10","MAY","3","1","1290",,,,,"0","2018-11-02 20:12:19","364142"
"AW0225ONUAPO5","cs_wg_mon_deconf_v1_pilot2","3EJPLAJKEMHZDV1ISTCQYC3C8WDZ6M","22","0","MAY","10","SEPTEMBER","3","1","263",,,,,"0","2018-11-02 20:12:19","364143"
"A34CBV74LOV6E3","cs_wg_mon_deconf_v1_pilot2","3NAPMVF0ZWGSBKCBMW84HFT1IYY72L","19","0","APRIL","14","SEPTEMBER","2","0","1950",,,,,"1","2018-11-02 20:12:19","364144"
"A3NGQ3WR96BKQ3","cs_wg_mon_deconf_v1_pilot2","36V4Q8R5ZK1SO6LJSD0UWFOUTT6QMS","22","0","AUGUST","2","OCTOBER","12","0","3351",,,,,"0","2018-11-02 20:12:20","364145"
"A3AHB644URDPQW","cs_wg_mon_deconf_v1_pilot2","3R6P78PK7KC5OCHPYEWUOFFKHETTG1","33","0","DECEMBER","8","MARCH","2","0","1880",,,,,"0","2018-11-02 20:12:20","364146"
"A2VXEPC4KG1CWU","cs_wg_mon_deconf_v1_pilot2","3IGI0VL647LVLCT3P1NQKPIUJIYNOH","40","0","APRIL","2","JUNE","12","1","842",,,,,"0","2018-11-02 20:12:20","364147"
"AC05CZ95ORIMY","cs_wg_mon_deconf_v1_pilot2","3TR2532VIPV9DGWEA794AIFMPYZJ6K","28","0","JUNE","3","SEPTEMBER","10","1","1700",,,,,"0","2018-11-02 20:12:20","364148"
"A2VZIJ7AZ537QP","cs_wg_mon_deconf_v1_pilot2","3H0W84IWBK3UOJ86OU1BOXTQGDHRE5","59","0","JULY","10","DECEMBER","1","1","675",,,,,"0","2018-11-02 20:12:20","364149"
"A5TI9UQEPLNWI","cs_wg_mon_deconf_v1_pilot2","317HQ483I7TLPQI0R6AL0SM879ZNIM","42","0","JUNE","12","NOVEMBER","3","0","1168",,,,,"0","2018-11-02 20:12:21","364150"
"AYYL6SPHBIWB","cs_wg_mon_deconf_v1_pilot2","3ATTHHXXWAPQ1KW4TCXUYUD69N9IX1","49","0","AUGUST","12","SEPTEMBER","3","0","1520",,,,,"0","2018-11-02 20:12:21","364151"
"AW0225ONUAPO5","cs_wg_mon_deconf_v1_pilot2","3EJPLAJKEMHZDV1ISTCQYC3C8WDZ6M","23","0","APRIL","1","NOVEMBER","4","0","325",,,,,"0","2018-11-02 20:12:21","364152"
"A27Y4NEIQQH00M","cs_wg_mon_deconf_v1_pilot2","3TXMY6UCAEPFFK9SFO6GTJJIZF2QCA","50","0","JANUARY","2","MAY","4","1","1720",,,,,"0","2018-11-02 20:12:22","364153"
"A2VXEPC4KG1CWU","cs_wg_mon_deconf_v1_pilot2","3IGI0VL647LVLCT3P1NQKPIUJIYNOH","41","0","JUNE","12","APRIL","2","0","850",,,,,"0","2018-11-02 20:12:23","364154"
"ANU6OTXYGSSTX","cs_wg_mon_deconf_v1_pilot2","3MD9PLUKKIF7KG7ARAY70NPY3M1NZJ","23","0","DECEMBER","1","SEPTEMBER","8","1","2426",,,,,"0","2018-11-02 20:12:23","364155"
"A277V4SHQB8JRS","cs_wg_mon_deconf_v1_pilot2","3IAEQB9FMELU49BSRT0X5EJM8GVDW1","24","0","MARCH","2","SEPTEMBER","12","1","2260",,,,,"0","2018-11-02 20:12:23","364156"
"AW0225ONUAPO5","cs_wg_mon_deconf_v1_pilot2","3EJPLAJKEMHZDV1ISTCQYC3C8WDZ6M","24","0","JANUARY","2","JULY","12","1","315",,,,,"0","2018-11-02 20:12:23","364157"
"A3AHB644URDPQW","cs_wg_mon_deconf_v1_pilot2","3R6P78PK7KC5OCHPYEWUOFFKHETTG1","34","0","DECEMBER","8","MARCH","2","0","1111",,,,,"0","2018-11-02 20:12:23","364158"
"A1XZ40T91S5YFU","cs_wg_mon_deconf_v1_pilot2","37TRT2X24QSFJSD96YQCLY1E3ZABJX","51","0","NOVEMBER","14","MAY","3","0","2543",,,,,"0","2018-11-02 20:12:24","364159"
"A3NGQ3WR96BKQ3","cs_wg_mon_deconf_v1_pilot2","36V4Q8R5ZK1SO6LJSD0UWFOUTT6QMS","23","0","JUNE","10","DECEMBER","1","1","1705",,,,,"0","2018-11-02 20:12:24","364160"
"AZA73HKJIZ7FL","cs_wg_mon_deconf_v1_pilot2","34X6J5FLPTZ2NYFYPGN2GNWDPZBQJO","32","0","SEPTEMBER","8","DECEMBER","3","0","1602",,,,,"0","2018-11-02 20:12:24","364161"
"AYYL6SPHBIWB","cs_wg_mon_deconf_v1_pilot2","3ATTHHXXWAPQ1KW4TCXUYUD69N9IX1","50","0","MAY","1","JUNE","6","1","1308",,,,,"0","2018-11-02 20:12:24","364162"
"AC05CZ95ORIMY","cs_wg_mon_deconf_v1_pilot2","3TR2532VIPV9DGWEA794AIFMPYZJ6K","29","0","JULY","3","FEBRUARY","8","1","2624",,,,,"0","2018-11-02 20:12:25","364163"
"AW0225ONUAPO5","cs_wg_mon_deconf_v1_pilot2","3EJPLAJKEMHZDV1ISTCQYC3C8WDZ6M","25","0","OCTOBER","14","JUNE","3","0","185",,,,,"0","2018-11-02 20:12:25","364164"
"A27Y4NEIQQH00M","cs_wg_mon_deconf_v1_pilot2","3TXMY6UCAEPFFK9SFO6GTJJIZF2QCA","51","0","NOVEMBER","6","SEPTEMBER","1","0","1627",,,,,"0","2018-11-02 20:12:25","364165"
"A2OYV1JVQV6KIC","cs_wg_mon_deconf_v1_pilot2","3G2UL9A02DFGTLVC9YK77SADY30762","5","0","JUNE","8","NOVEMBER","1","0","3766",,,,,"0","2018-11-02 20:12:25","364166"
"A2VXEPC4KG1CWU","cs_wg_mon_deconf_v1_pilot2","3IGI0VL647LVLCT3P1NQKPIUJIYNOH","42","0","OCTOBER","3","FEBRUARY","14","1","1294",,,,,"0","2018-11-02 20:12:26","364167"
"A2FX289DJSA2A6","cs_wg_mon_deconf_v1_pilot2","3RGU30DZTA9B2JH6XNGLZEC8FYEJMU","5","0","APRIL","6","OCTOBER","2","1","5853",,,,,"0","2018-11-02 20:12:26","364168"
"A5TI9UQEPLNWI","cs_wg_mon_deconf_v1_pilot2","317HQ483I7TLPQI0R6AL0SM879ZNIM","43","0","DECEMBER","1","MAY","10","1","2049",,,,,"0","2018-11-02 20:12:26","364169"
"A22N5ONOWPNZGB
","cs_wg_mon_deconf_v1_pilot2","3QL2OFSM96JUCNW0ZWEZPPODU4GCNA","17","0","JULY","1","MAY","10","0","3718",,,,,"0","2018-11-02 20:12:27","364170"
"AB0Q4NUT27398","cs_wg_mon_deconf_v1_pilot2","3VHP9MDGRNLIOVJJ18VMHKF4SDUCF3","3","0","SEPTEMBER","6","APRIL","2","0","4562",,,,,"1","2018-11-02 20:12:27","364171"
"AW0225ONUAPO5","cs_wg_mon_deconf_v1_pilot2","3EJPLAJKEMHZDV1ISTCQYC3C8WDZ6M","26","0","JUNE","3","OCTOBER","14","1","358",,,,,"0","2018-11-02 20:12:27","364172"
"ANU6OTXYGSSTX","cs_wg_mon_deconf_v1_pilot2","3MD9PLUKKIF7KG7ARAY70NPY3M1NZJ","24","0","AUGUST","6","OCTOBER","1","0","1923",,,,,"0","2018-11-02 20:12:27","364173"
"A3NGQ3WR96BKQ3","cs_wg_mon_deconf_v1_pilot2","36V4Q8R5ZK1SO6LJSD0UWFOUTT6QMS","24","0","FEBRUARY","8","MARCH","1","0","1941",,,,,"0","2018-11-02 20:12:28","364174"
"A27Y4NEIQQH00M","cs_wg_mon_deconf_v1_pilot2","3TXMY6UCAEPFFK9SFO6GTJJIZF2QCA","52","0","NOVEMBER","6","SEPTEMBER","1","0","1145",,,,,"0","2018-11-02 20:12:28","364175"
"A3AHB644URDPQW","cs_wg_mon_deconf_v1_pilot2","3R6P78PK7KC5OCHPYEWUOFFKHETTG1","35","0","MARCH","2","DECEMBER","8","1","2390",,,,,"0","2018-11-02 20:12:28","364176"
"AZA73HKJIZ7FL","cs_wg_mon_deconf_v1_pilot2","34X6J5FLPTZ2NYFYPGN2GNWDPZBQJO","33","0","FEBRUARY","1","JUNE","12","1","936",,,,,"0","2018-11-02 20:12:28","364177"
"AW0225ONUAPO5","cs_wg_mon_deconf_v1_pilot2","3EJPLAJKEMHZDV1ISTCQYC3C8WDZ6M","27","0","JULY","12","JANUARY","2","0","271",,,,,"0","2018-11-02 20:12:29","364178"
"A2OYV1JVQV6KIC","cs_wg_mon_deconf_v1_pilot2","3G2UL9A02DFGTLVC9YK77SADY30762","6","0","NOVEMBER","1","JUNE","8","1","1364",,,,,"0","2018-11-02 20:12:29","364179"
"A1XZ40T91S5YFU","cs_wg_mon_deconf_v1_pilot2","37TRT2X24QSFJSD96YQCLY1E3ZABJX","52","0","SEPTEMBER","2","FEBRUARY","6","0","2728",,,,,"0","2018-11-02 20:12:29","364180"
"A277V4SHQB8JRS","cs_wg_mon_deconf_v1_pilot2","3IAEQB9FMELU49BSRT0X5EJM8GVDW1","25","0","JULY","1","FEBRUARY","6","1","3675",,,,,"0","2018-11-02 20:12:29","364181"
"A5TI9UQEPLNWI","cs_wg_mon_deconf_v1_pilot2","317HQ483I7TLPQI0R6AL0SM879ZNIM","44","0","SEPTEMBER","8","MARCH","1","0","921",,,,,"0","2018-11-02 20:12:29","364182"
"A34CBV74LOV6E3","cs_wg_mon_deconf_v1_pilot2","3NAPMVF0ZWGSBKCBMW84HFT1IYY72L","20","0","SEPTEMBER","2","APRIL","14","1","6109",,,,,"0","2018-11-02 20:12:29","364183"
"AC05CZ95ORIMY","cs_wg_mon_deconf_v1_pilot2","3TR2532VIPV9DGWEA794AIFMPYZJ6K","30","0","DECEMBER","6","MAY","1","0","2710",,,,,"0","2018-11-02 20:12:29","364184"
"A3NLOUDYXUZ2NT","cs_wg_mon_deconf_v1_pilot2","378XPAWRUCEE57OBI25GEM28821IAY","1","0","OCTOBER","12","DECEMBER","2","0","8634",,,,,"1","2018-11-02 20:12:31","364186"
"AW0225ONUAPO5","cs_wg_mon_deconf_v1_pilot2","3EJPLAJKEMHZDV1ISTCQYC3C8WDZ6M","28","0","FEBRUARY","6","AUGUST","2","0","222",,,,,"0","2018-11-02 20:12:31","364187"
"A2VXEPC4KG1CWU","cs_wg_mon_deconf_v1_pilot2","3IGI0VL647LVLCT3P1NQKPIUJIYNOH","43","0","MARCH","8","DECEMBER","3","0","2739",,,,,"0","2018-11-02 20:12:31","364188"
"A3NGQ3WR96BKQ3","cs_wg_mon_deconf_v1_pilot2","36V4Q8R5ZK1SO6LJSD0UWFOUTT6QMS","25","0","APRIL","4","JANUARY","3","0","1061",,,,,"0","2018-11-02 20:12:31","364189"
"A14OT0SJEXQKZF","cs_wg_mon_deconf_v1_pilot2","3X0H8UUIT1P06YUAOJVM0D5M9J5SWA","4","0","OCTOBER","3","JUNE","10","1","27848",,,,,"1","2018-11-02 20:12:31","364190"
"AZA73HKJIZ7FL","cs_wg_mon_deconf_v1_pilot2","34X6J5FLPTZ2NYFYPGN2GNWDPZBQJO","34","0","FEBRUARY","1","JUNE","12","1","980",,,,,"0","2018-11-02 20:12:31","364191"
"A27Y4NEIQQH00M","cs_wg_mon_deconf_v1_pilot2","3TXMY6UCAEPFFK9SFO6GTJJIZF2QCA","53","0","AUGUST","1","APRIL","10","1","1731",,,,,"0","2018-11-02 20:12:31","364192"
"A3AHB644URDPQW","cs_wg_mon_deconf_v1_pilot2","3R6P78PK7KC5OCHPYEWUOFFKHETTG1","36","0","AUGUST","2","OCTOBER","12","1","1530",,,,,"0","2018-11-02 20:12:32","364193"
"A2FX289DJSA2A6","cs_wg_mon_deconf_v1_pilot2","3RGU30DZTA9B2JH6XNGLZEC8FYEJMU","6","0","NOVEMBER","1","MAY","12","1","3537",,,,,"0","2018-11-02 20:12:32","364194"
"A5TI9UQEPLNWI","cs_wg_mon_deconf_v1_pilot2","317HQ483I7TLPQI0R6AL0SM879ZNIM","45","0","JUNE","12","NOVEMBER","3","0","912",,,,,"0","2018-11-02 20:12:32","364195"
"ANU6OTXYGSSTX","cs_wg_mon_deconf_v1_pilot2","3MD9PLUKKIF7KG7ARAY70NPY3M1NZJ","25","0","JUNE","3","APRIL","14","1","2794",,,,,"0","2018-11-02 20:12:32","364196"
"AYYL6SPHBIWB","cs_wg_mon_deconf_v1_pilot2","3ATTHHXXWAPQ1KW4TCXUYUD69N9IX1","52","0","MARCH","8","APRIL","1","0","3054",,,,,"0","2018-11-02 20:12:33","364197"
"AB0Q4NUT27398","cs_wg_mon_deconf_v1_pilot2","3VHP9MDGRNLIOVJJ18VMHKF4SDUCF3","4","0","MAY","14","JANUARY","3","0","3505",,,,,"1","2018-11-02 20:12:33","364198"
"A1XZ40T91S5YFU","cs_wg_mon_deconf_v1_pilot2","37TRT2X24QSFJSD96YQCLY1E3ZABJX","53","0","MARCH","1","JUNE","4","0","1723",,,,,"0","2018-11-02 20:12:33","364199"
"AW0225ONUAPO5","cs_wg_mon_deconf_v1_pilot2","3EJPLAJKEMHZDV1ISTCQYC3C8WDZ6M","29","0","MAY","10","SEPTEMBER","3","1","335",,,,,"0","2018-11-02 20:12:33","364200"
"A277V4SHQB8JRS","cs_wg_mon_deconf_v1_pilot2","3IAEQB9FMELU49BSRT0X5EJM8GVDW1","26","0","SEPTEMBER","12","MARCH","2","0","1784",,,,,"0","2018-11-02 20:12:33","364201"
"A2OYV1JVQV6KIC","cs_wg_mon_deconf_v1_pilot2","3G2UL9A02DFGTLVC9YK77SADY30762","7","0","JANUARY","6","APRIL","2","0","1991",,,,,"0","2018-11-02 20:12:33","364202"
"AC05CZ95ORIMY","cs_wg_mon_deconf_v1_pilot2","3TR2532VIPV9DGWEA794AIFMPYZJ6K","31","0","JUNE","3","SEPTEMBER","10","1","1761",,,,,"0","2018-11-02 20:12:33","364203"
"A3NGQ3WR96BKQ3","cs_wg_mon_deconf_v1_pilot2","36V4Q8R5ZK1SO6LJSD0UWFOUTT6QMS","26","0","JANUARY","3","APRIL","4","1","1374",,,,,"0","2018-11-02 20:12:34","364204"
"A27Y4NEIQQH00M","cs_wg_mon_deconf_v1_pilot2","3TXMY6UCAEPFFK9SFO6GTJJIZF2QCA","54","0","DECEMBER","8","OCTOBER","2","0","1007",,,,,"0","2018-11-02 20:12:34","364205"
"AW0225ONUAPO5","cs_wg_mon_deconf_v1_pilot2","3EJPLAJKEMHZDV1ISTCQYC3C8WDZ6M","30","0","AUGUST","2","FEBRUARY","6","1","632",,,,,"0","2018-11-02 20:12:35","364206"
"A5TI9UQEPLNWI","cs_wg_mon_deconf_v1_pilot2","317HQ483I7TLPQI0R6AL0SM879ZNIM","46","0","SEPTEMBER","8","MARCH","1","0","1170",,,,,"0","2018-11-02 20:12:35","364207"
"A34CBV74LOV6E3","cs_wg_mon_deconf_v1_pilot2","3NAPMVF0ZWGSBKCBMW84HFT1IYY72L","21","0","MAY","3","OCTOBER","8","1","3525",,,,,"0","2018-11-02 20:12:35","364208"
"A3AHB644URDPQW","cs_wg_mon_deconf_v1_pilot2","3R6P78PK7KC5OCHPYEWUOFFKHETTG1","37","0","OCTOBER","12","AUGUST","2","0","1694",,,,,"0","2018-11-02 20:12:35","364209"
"AYYL6SPHBIWB","cs_wg_mon_deconf_v1_pilot2","3ATTHHXXWAPQ1KW4TCXUYUD69N9IX1","53","0","APRIL","1","MARCH","8","1","1195",,,,,"0","2018-11-02 20:12:35","364210"
"A2VXEPC4KG1CWU","cs_wg_mon_deconf_v1_pilot2","3IGI0VL647LVLCT3P1NQKPIUJIYNOH","44","0","SEPTEMBER","2","JULY","6","1","3621",,,,,"0","2018-11-02 20:12:36","364211"
"AZA73HKJIZ7FL","cs_wg_mon_deconf_v1_pilot2","34X6J5FLPTZ2NYFYPGN2GNWDPZBQJO","35","0","APRIL","1","MAY","6","0","2639",,,,,"0","2018-11-02 20:12:37","364212"
"A1XZ40T91S5YFU","cs_wg_mon_deconf_v1_pilot2","37TRT2X24QSFJSD96YQCLY1E3ZABJX","54","0","MARCH","1","JUNE","4","0","756",,,,,"0","2018-11-02 20:12:37","364213"
"A3NGQ3WR96BKQ3","cs_wg_mon_deconf_v1_pilot2","36V4Q8R5ZK1SO6LJSD0UWFOUTT6QMS","27","0","NOVEMBER","2","MAY","14","1","915",,,,,"0","2018-11-02 20:12:37","364214"
"AC05CZ95ORIMY","cs_wg_mon_deconf_v1_pilot2","3TR2532VIPV9DGWEA794AIFMPYZJ6K","32","0","SEPTEMBER","10","JUNE","3","0","2320",,,,,"0","2018-11-02 20:12:38","364216"
"A277V4SHQB8JRS","cs_wg_mon_deconf_v1_pilot2","3IAEQB9FMELU49BSRT0X5EJM8GVDW1","27","0","MARCH","2","SEPTEMBER","12","1","2500",,,,,"0","2018-11-02 20:12:38","364217"
"ANU6OTXYGSSTX","cs_wg_mon_deconf_v1_pilot2","3MD9PLUKKIF7KG7ARAY70NPY3M1NZJ","26","0","NOVEMBER","2","FEBRUARY","4","1","2899",,,,,"0","2018-11-02 20:12:38","364218"
"A5TI9UQEPLNWI","cs_wg_mon_deconf_v1_pilot2","317HQ483I7TLPQI0R6AL0SM879ZNIM","47","0","OCTOBER","14","JANUARY","2","0","1310",,,,,"0","2018-11-02 20:12:38","364219"
"AW0225ONUAPO5","cs_wg_mon_deconf_v1_pilot2","3EJPLAJKEMHZDV1ISTCQYC3C8WDZ6M","31","0","JUNE","3","OCTOBER","14","0","1767",,,,,"0","2018-11-02 20:12:39","364220"
"AYYL6SPHBIWB","cs_wg_mon_deconf_v1_pilot2","3ATTHHXXWAPQ1KW4TCXUYUD69N9IX1","54","0","DECEMBER","10","JULY","3","0","1758",,,,,"0","2018-11-02 20:12:39","364221"
"A2OYV1JVQV6KIC","cs_wg_mon_deconf_v1_pilot2","3G2UL9A02DFGTLVC9YK77SADY30762","8","0","SEPTEMBER","14","FEBRUARY","3","0","3767",,,,,"0","2018-11-02 20:12:39","364222"
"A2VXEPC4KG1CWU","cs_wg_mon_deconf_v1_pilot2","3IGI0VL647LVLCT3P1NQKPIUJIYNOH","45","0","JULY","6","SEPTEMBER","2","0","1428",,,,,"0","2018-11-02 20:12:39","364223"
"AZA73HKJIZ7FL","cs_wg_mon_deconf_v1_pilot2","34X6J5FLPTZ2NYFYPGN2GNWDPZBQJO","36","0","MAY","6","APRIL","1","0","1011",,,,,"0","2018-11-02 20:12:40","364224"
"A27Y4NEIQQH00M","cs_wg_mon_deconf_v1_pilot2","3TXMY6UCAEPFFK9SFO6GTJJIZF2QCA","55","0","MAY","4","JANUARY","2","0","3196",,,,,"0","2018-11-02 20:12:40","364225"
"A3AHB644URDPQW","cs_wg_mon_deconf_v1_pilot2","3R6P78PK7KC5OCHPYEWUOFFKHETTG1","38","0","JULY","3","JANUARY","6","1","2950",,,,,"0","2018-11-02 20:12:40","364226"
