"subject","version","assignmentId","trial","trial_type","word","value","alt","value2","choice","rt","resp","resp2","resp3","resp4","stamp","id"
"fiery_Throwout","cs_wg_full_v4_conf_pilot3",,"0",NULL,"DECEMBER","6","SEPTEMBER","1","0","4608","1",,,,"2018-07-25 18:03:08","503030"
"fiery_Throwout","cs_wg_full_v4_conf_pilot3",,"1",NULL,"OCTOBER","3","MARCH","8","1","4015","1",,,,"2018-07-25 18:03:19","503031"
"A2309F1W6LTPF6","cs_wg_full_v4_conf_pilot3","3TAYZSBPLL9EUIW3AZ6FC6PWG6TS28","0",NULL,"AUGUST","3","MAY","8","0","3153","0",,,,"2018-07-25 18:46:47","503046"
"A2309F1W6LTPF6","cs_wg_full_v4_conf_pilot3","3TAYZSBPLL9EUIW3AZ6FC6PWG6TS28","1",NULL,"FEBRUARY","12","AUGUST","3","0","2904","1",,,,"2018-07-25 18:46:56","503047"
"A2309F1W6LTPF6","cs_wg_full_v4_conf_pilot3","3TAYZSBPLL9EUIW3AZ6FC6PWG6TS28","2",NULL,"NOVEMBER","5","APRIL","7","1","1793","1",,,,"2018-07-25 18:47:03","503048"
"A2309F1W6LTPF6","cs_wg_full_v4_conf_pilot3","3TAYZSBPLL9EUIW3AZ6FC6PWG6TS28","3",NULL,"MAY","8","NOVEMBER","5","0","1583","1",,,,"2018-07-25 18:47:09","503049"
"A2309F1W6LTPF6","cs_wg_full_v4_conf_pilot3","3TAYZSBPLL9EUIW3AZ6FC6PWG6TS28","4",NULL,"MAY","8","JANUARY","11","1","681","1",,,,"2018-07-25 18:47:15","503050"
"A2V1VO04WIRL6N","cs_wg_full_v4_conf_pilot3","3HHRAGRYX86AWAP9OR4L2ON9PN19OL","0",NULL,"MAY","5","JULY","9","0","5139","0",,,,"2018-07-25 18:47:15","503051"
"A2309F1W6LTPF6","cs_wg_full_v4_conf_pilot3","3TAYZSBPLL9EUIW3AZ6FC6PWG6TS28","5",NULL,"OCTOBER","9","MAY","8","0","344","1",,,,"2018-07-25 18:47:20","503052"
"A2309F1W6LTPF6","cs_wg_full_v4_conf_pilot3","3TAYZSBPLL9EUIW3AZ6FC6PWG6TS28","6",NULL,"OCTOBER","9","NOVEMBER","5","1","427","0",,,,"2018-07-25 18:47:25","503053"
"A2V1VO04WIRL6N","cs_wg_full_v4_conf_pilot3","3HHRAGRYX86AWAP9OR4L2ON9PN19OL","1",NULL,"MARCH","1","DECEMBER","2","1","2408","1",,,,"2018-07-25 18:47:26","503054"
"A2309F1W6LTPF6","cs_wg_full_v4_conf_pilot3","3TAYZSBPLL9EUIW3AZ6FC6PWG6TS28","7",NULL,"DECEMBER","10","MARCH","4","0","1128","1",,,,"2018-07-25 18:47:30","503055"
"A2309F1W6LTPF6","cs_wg_full_v4_conf_pilot3","3TAYZSBPLL9EUIW3AZ6FC6PWG6TS28","8",NULL,"DECEMBER","10","JULY","6","0","425","1",,,,"2018-07-25 18:47:34","503056"
"A2309F1W6LTPF6","cs_wg_full_v4_conf_pilot3","3TAYZSBPLL9EUIW3AZ6FC6PWG6TS28","9",NULL,"JULY","6","MAY","8","1","487","1",,,,"2018-07-25 18:47:38","503057"
"A2V1VO04WIRL6N","cs_wg_full_v4_conf_pilot3","3HHRAGRYX86AWAP9OR4L2ON9PN19OL","2",NULL,"FEBRUARY","11","JANUARY","10","0","2631","1",,,,"2018-07-25 18:47:40","503058"
"A2309F1W6LTPF6","cs_wg_full_v4_conf_pilot3","3TAYZSBPLL9EUIW3AZ6FC6PWG6TS28","10",NULL,"JUNE","1","JANUARY","11","1","1690","1",,,,"2018-07-25 18:47:44","503059"
"A2JEBSXKVWFCC0","cs_wg_full_v4_conf_pilot3","3I02618YA07Q12PD12CRNKFDCD6UPD","0",NULL,"JUNE","8","AUGUST","12","1","10469","1",,,,"2018-07-25 18:47:46","503060"
"A2V1VO04WIRL6N","cs_wg_full_v4_conf_pilot3","3HHRAGRYX86AWAP9OR4L2ON9PN19OL","3",NULL,"FEBRUARY","11","MAY","5","0","2608","1",,,,"2018-07-25 18:47:48","503061"
"A2309F1W6LTPF6","cs_wg_full_v4_conf_pilot3","3TAYZSBPLL9EUIW3AZ6FC6PWG6TS28","11",NULL,"APRIL","7","FEBRUARY","12","0","1082","0",,,,"2018-07-25 18:47:50","503062"
"A2JEBSXKVWFCC0","cs_wg_full_v4_conf_pilot3","3I02618YA07Q12PD12CRNKFDCD6UPD","1",NULL,"NOVEMBER","7","MAY","6","0","3012","1",,,,"2018-07-25 18:47:56","503063"
"A2309F1W6LTPF6","cs_wg_full_v4_conf_pilot3","3TAYZSBPLL9EUIW3AZ6FC6PWG6TS28","12",NULL,"OCTOBER","9","APRIL","7","1","1256","0",,,,"2018-07-25 18:47:57","503064"
"A2309F1W6LTPF6","cs_wg_full_v4_conf_pilot3","3TAYZSBPLL9EUIW3AZ6FC6PWG6TS28","13",NULL,"SEPTEMBER","2","JULY","6","0","625","0",,,,"2018-07-25 18:48:02","503065"
"A2309F1W6LTPF6","cs_wg_full_v4_conf_pilot3","3TAYZSBPLL9EUIW3AZ6FC6PWG6TS28","14",NULL,"JULY","6","OCTOBER","9","0","338","0",,,,"2018-07-25 18:48:06","503066"
"A2JEBSXKVWFCC0","cs_wg_full_v4_conf_pilot3","3I02618YA07Q12PD12CRNKFDCD6UPD","2",NULL,"OCTOBER","4","APRIL","10","0","1998","1",,,,"2018-07-25 18:48:07","503067"
"A2309F1W6LTPF6","cs_wg_full_v4_conf_pilot3","3TAYZSBPLL9EUIW3AZ6FC6PWG6TS28","15",NULL,"JANUARY","11","APRIL","7","0","433","1",,,,"2018-07-25 18:48:10","503068"
"A3SAD1UI1JRMTG","cs_wg_full_v4_conf_pilot3","39ZSFO5CA8XUFRMF6P77QOT13E0UJD","0",NULL,"MAY","5","NOVEMBER","9","0","13195","1",,,,"2018-07-25 18:48:10","503069"
"A2309F1W6LTPF6","cs_wg_full_v4_conf_pilot3","3TAYZSBPLL9EUIW3AZ6FC6PWG6TS28","16",NULL,"JUNE","1","FEBRUARY","12","0","369","0",,,,"2018-07-25 18:48:15","503070"
"A2JEBSXKVWFCC0","cs_wg_full_v4_conf_pilot3","3I02618YA07Q12PD12CRNKFDCD6UPD","3",NULL,"FEBRUARY","3","OCTOBER","4","1","3253","1",,,,"2018-07-25 18:48:16","503071"
"A2309F1W6LTPF6","cs_wg_full_v4_conf_pilot3","3TAYZSBPLL9EUIW3AZ6FC6PWG6TS28","17",NULL,"OCTOBER","9","MARCH","4","1","281","0",,,,"2018-07-25 18:48:20","503072"
"A2V1VO04WIRL6N","cs_wg_full_v4_conf_pilot3","3HHRAGRYX86AWAP9OR4L2ON9PN19OL","4",NULL,"AUGUST","8","OCTOBER","6","1","2026","0",,,,"2018-07-25 18:48:23","503073"
"A2JEBSXKVWFCC0","cs_wg_full_v4_conf_pilot3","3I02618YA07Q12PD12CRNKFDCD6UPD","4",NULL,"JUNE","8","JULY","1","0","3360","1",,,,"2018-07-25 18:48:25","503074"
"A2309F1W6LTPF6","cs_wg_full_v4_conf_pilot3","3TAYZSBPLL9EUIW3AZ6FC6PWG6TS28","18",NULL,"APRIL","7","MARCH","4","1","362","0",,,,"2018-07-25 18:48:25","503075"
"A2309F1W6LTPF6","cs_wg_full_v4_conf_pilot3","3TAYZSBPLL9EUIW3AZ6FC6PWG6TS28","19",NULL,"NOVEMBER","5","SEPTEMBER","2","1","320","0",,,,"2018-07-25 18:48:29","503076"
"A2309F1W6LTPF6","cs_wg_full_v4_conf_pilot3","3TAYZSBPLL9EUIW3AZ6FC6PWG6TS28","20",NULL,"JULY","6","APRIL","7","0","257","0",,,,"2018-07-25 18:48:33","503077"
"A2JEBSXKVWFCC0","cs_wg_full_v4_conf_pilot3","3I02618YA07Q12PD12CRNKFDCD6UPD","5",NULL,"SEPTEMBER","5","JUNE","8","0","3808","1",,,,"2018-07-25 18:48:34","503078"
"A2V1VO04WIRL6N","cs_wg_full_v4_conf_pilot3","3HHRAGRYX86AWAP9OR4L2ON9PN19OL","5",NULL,"JULY","9","SEPTEMBER","4","1","3109","0",,,,"2018-07-25 18:48:36","503079"
"A2309F1W6LTPF6","cs_wg_full_v4_conf_pilot3","3TAYZSBPLL9EUIW3AZ6FC6PWG6TS28","21",NULL,"NOVEMBER","5","MARCH","4","0","235","1",,,,"2018-07-25 18:48:38","503080"
"A2JEBSXKVWFCC0","cs_wg_full_v4_conf_pilot3","3I02618YA07Q12PD12CRNKFDCD6UPD","6",NULL,"SEPTEMBER","5","APRIL","10","0","3278","1",,,,"2018-07-25 18:48:43","503081"
"A2309F1W6LTPF6","cs_wg_full_v4_conf_pilot3","3TAYZSBPLL9EUIW3AZ6FC6PWG6TS28","22",NULL,"APRIL","7","JULY","6","0","96","1",,,,"2018-07-25 18:48:43","503082"
"A2309F1W6LTPF6","cs_wg_full_v4_conf_pilot3","3TAYZSBPLL9EUIW3AZ6FC6PWG6TS28","23",NULL,"MARCH","4","JUNE","1","0","282","1",,,,"2018-07-25 18:48:48","503083"
"A2V1VO04WIRL6N","cs_wg_full_v4_conf_pilot3","3HHRAGRYX86AWAP9OR4L2ON9PN19OL","6",NULL,"AUGUST","8","JANUARY","10","0","4934","0",,,,"2018-07-25 18:48:49","503084"
"A2JEBSXKVWFCC0","cs_wg_full_v4_conf_pilot3","3I02618YA07Q12PD12CRNKFDCD6UPD","7",NULL,"OCTOBER","4","JANUARY","2","0","1784","1",,,,"2018-07-25 18:48:50","503085"
"A2309F1W6LTPF6","cs_wg_full_v4_conf_pilot3","3TAYZSBPLL9EUIW3AZ6FC6PWG6TS28","24",NULL,"MARCH","4","MAY","8","0","474","0",,,,"2018-07-25 18:48:53","503086"
"A2JEBSXKVWFCC0","cs_wg_full_v4_conf_pilot3","3I02618YA07Q12PD12CRNKFDCD6UPD","8",NULL,"AUGUST","12","OCTOBER","4","1","2002","1",,,,"2018-07-25 18:48:57","503087"
"A2309F1W6LTPF6","cs_wg_full_v4_conf_pilot3","3TAYZSBPLL9EUIW3AZ6FC6PWG6TS28","25",NULL,"MAY","8","MARCH","4","0","362","1",,,,"2018-07-25 18:48:57","503088"
"A2309F1W6LTPF6","cs_wg_full_v4_conf_pilot3","3TAYZSBPLL9EUIW3AZ6FC6PWG6TS28","26",NULL,"JUNE","1","MAY","8","0","546","0",,,,"2018-07-25 18:49:02","503089"
"A2V1VO04WIRL6N","cs_wg_full_v4_conf_pilot3","3HHRAGRYX86AWAP9OR4L2ON9PN19OL","7",NULL,"OCTOBER","6","NOVEMBER","3","1","5889","0",,,,"2018-07-25 18:49:03","503090"
"A2JEBSXKVWFCC0","cs_wg_full_v4_conf_pilot3","3I02618YA07Q12PD12CRNKFDCD6UPD","9",NULL,"OCTOBER","4","AUGUST","12","0","1035","1",,,,"2018-07-25 18:49:03","503091"
"A3SAD1UI1JRMTG","cs_wg_full_v4_conf_pilot3","39ZSFO5CA8XUFRMF6P77QOT13E0UJD","1",NULL,"JANUARY","12","OCTOBER","4","0","4297","1",,,,"2018-07-25 18:49:04","503092"
"A2309F1W6LTPF6","cs_wg_full_v4_conf_pilot3","3TAYZSBPLL9EUIW3AZ6FC6PWG6TS28","27",NULL,"NOVEMBER","5","MAY","8","0","554","0",,,,"2018-07-25 18:49:07","503093"
"A2309F1W6LTPF6","cs_wg_full_v4_conf_pilot3","3TAYZSBPLL9EUIW3AZ6FC6PWG6TS28","28",NULL,"SEPTEMBER","2","OCTOBER","9","1","250","1",,,,"2018-07-25 18:49:11","503094"
"A2V1VO04WIRL6N","cs_wg_full_v4_conf_pilot3","3HHRAGRYX86AWAP9OR4L2ON9PN19OL","8",NULL,"OCTOBER","6","MARCH","1","0","3917","1",,,,"2018-07-25 18:49:13","503095"
"A2JEBSXKVWFCC0","cs_wg_full_v4_conf_pilot3","3I02618YA07Q12PD12CRNKFDCD6UPD","10",NULL,"MARCH","9","MAY","6","1","5445","1",,,,"2018-07-25 18:49:14","503096"
"A2309F1W6LTPF6","cs_wg_full_v4_conf_pilot3","3TAYZSBPLL9EUIW3AZ6FC6PWG6TS28","29",NULL,"APRIL","7","AUGUST","3","0","225","1",,,,"2018-07-25 18:49:15","503097"
"A2309F1W6LTPF6","cs_wg_full_v4_conf_pilot3","3TAYZSBPLL9EUIW3AZ6FC6PWG6TS28","30",NULL,"AUGUST","3","JANUARY","11","0","305","0",,,,"2018-07-25 18:49:20","503098"
"A2JEBSXKVWFCC0","cs_wg_full_v4_conf_pilot3","3I02618YA07Q12PD12CRNKFDCD6UPD","11",NULL,"MAY","6","OCTOBER","4","1","1726","1",,,,"2018-07-25 18:49:24","503099"
"A2309F1W6LTPF6","cs_wg_full_v4_conf_pilot3","3TAYZSBPLL9EUIW3AZ6FC6PWG6TS28","31",NULL,"DECEMBER","10","OCTOBER","9","0","321","1",,,,"2018-07-25 18:49:26","503100"
"A2309F1W6LTPF6","cs_wg_full_v4_conf_pilot3","3TAYZSBPLL9EUIW3AZ6FC6PWG6TS28","32",NULL,"JULY","6","SEPTEMBER","2","1","323","0",,,,"2018-07-25 18:49:32","503101"
"A2309F1W6LTPF6","cs_wg_full_v4_conf_pilot3","3TAYZSBPLL9EUIW3AZ6FC6PWG6TS28","33",NULL,"JUNE","1","JULY","6","0","32","0",,,,"2018-07-25 18:49:35","503102"
"A3BYOCOPKVRUZ","cs_wg_full_v4_conf_pilot3","3E47SOBEYQX2YML92G17KHSVJZ5CIA","0",NULL,"JUNE","10","DECEMBER","2","0","4204","1",,,,"2018-07-25 18:49:36","503103"
"A2JEBSXKVWFCC0","cs_wg_full_v4_conf_pilot3","3I02618YA07Q12PD12CRNKFDCD6UPD","12",NULL,"JANUARY","2","MARCH","9","1","8565","1",,,,"2018-07-25 18:49:39","503104"
"A3SAD1UI1JRMTG","cs_wg_full_v4_conf_pilot3","39ZSFO5CA8XUFRMF6P77QOT13E0UJD","2",NULL,"NOVEMBER","9","DECEMBER","7","0","26982","1",,,,"2018-07-25 18:49:39","503105"
"A2309F1W6LTPF6","cs_wg_full_v4_conf_pilot3","3TAYZSBPLL9EUIW3AZ6FC6PWG6TS28","34",NULL,"JANUARY","11","MAY","8","0","304","1",,,,"2018-07-25 18:49:40","503106"
"A2V1VO04WIRL6N","cs_wg_full_v4_conf_pilot3","3HHRAGRYX86AWAP9OR4L2ON9PN19OL","9",NULL,"AUGUST","8","SEPTEMBER","4","0","21947","1",,,,"2018-07-25 18:49:42","503107"
"A3BYOCOPKVRUZ","cs_wg_full_v4_conf_pilot3","3E47SOBEYQX2YML92G17KHSVJZ5CIA","1",NULL,"MARCH","11","AUGUST","3","1","1993","1",,,,"2018-07-25 18:49:43","503108"
"A2309F1W6LTPF6","cs_wg_full_v4_conf_pilot3","3TAYZSBPLL9EUIW3AZ6FC6PWG6TS28","35",NULL,"OCTOBER","9","DECEMBER","10","0","273","0",,,,"2018-07-25 18:49:45","503109"
"A3SAD1UI1JRMTG","cs_wg_full_v4_conf_pilot3","39ZSFO5CA8XUFRMF6P77QOT13E0UJD","3",NULL,"AUGUST","1","DECEMBER","7","0","2671","1",,,,"2018-07-25 18:49:48","503110"
"A2309F1W6LTPF6","cs_wg_full_v4_conf_pilot3","3TAYZSBPLL9EUIW3AZ6FC6PWG6TS28","36",NULL,"MAY","8","JUNE","1","0","257","1",,,,"2018-07-25 18:49:49","503111"
"A3BYOCOPKVRUZ","cs_wg_full_v4_conf_pilot3","3E47SOBEYQX2YML92G17KHSVJZ5CIA","2",NULL,"FEBRUARY","8","JUNE","10","0","1283","1",,,,"2018-07-25 18:49:52","503112"
"A2JEBSXKVWFCC0","cs_wg_full_v4_conf_pilot3","3I02618YA07Q12PD12CRNKFDCD6UPD","13",NULL,"MARCH","9","FEBRUARY","3","1","3441","1",,,,"2018-07-25 18:49:52","503113"
"A2309F1W6LTPF6","cs_wg_full_v4_conf_pilot3","3TAYZSBPLL9EUIW3AZ6FC6PWG6TS28","37",NULL,"APRIL","7","DECEMBER","10","1","298","1",,,,"2018-07-25 18:49:54","503114"
"A2V1VO04WIRL6N","cs_wg_full_v4_conf_pilot3","3HHRAGRYX86AWAP9OR4L2ON9PN19OL","10",NULL,"AUGUST","8","APRIL","12","0","2290","0",,,,"2018-07-25 18:49:55","503115"
"A3BYOCOPKVRUZ","cs_wg_full_v4_conf_pilot3","3E47SOBEYQX2YML92G17KHSVJZ5CIA","3",NULL,"JANUARY","4","OCTOBER","9","0","911","1",,,,"2018-07-25 18:49:57","503116"
"A2309F1W6LTPF6","cs_wg_full_v4_conf_pilot3","3TAYZSBPLL9EUIW3AZ6FC6PWG6TS28","38",NULL,"SEPTEMBER","2","MARCH","4","0","897","0",,,,"2018-07-25 18:50:00","503117"
"A2JEBSXKVWFCC0","cs_wg_full_v4_conf_pilot3","3I02618YA07Q12PD12CRNKFDCD6UPD","14",NULL,"FEBRUARY","3","SEPTEMBER","5","0","3216","1",,,,"2018-07-25 18:50:00","503118"
"A2309F1W6LTPF6","cs_wg_full_v4_conf_pilot3","3TAYZSBPLL9EUIW3AZ6FC6PWG6TS28","39",NULL,"NOVEMBER","5","JULY","6","0","226","0",,,,"2018-07-25 18:50:04","503119"
"A2JEBSXKVWFCC0","cs_wg_full_v4_conf_pilot3","3I02618YA07Q12PD12CRNKFDCD6UPD","15",NULL,"SEPTEMBER","5","NOVEMBER","7","0","675","1",,,,"2018-07-25 18:50:05","503120"
"A3BYOCOPKVRUZ","cs_wg_full_v4_conf_pilot3","3E47SOBEYQX2YML92G17KHSVJZ5CIA","4",NULL,"JANUARY","4","DECEMBER","2","1","1229","1",,,,"2018-07-25 18:50:07","503121"
"A2309F1W6LTPF6","cs_wg_full_v4_conf_pilot3","3TAYZSBPLL9EUIW3AZ6FC6PWG6TS28","40",NULL,"APRIL","7","SEPTEMBER","2","0","258","1",,,,"2018-07-25 18:50:08","503122"
"A2JEBSXKVWFCC0","cs_wg_full_v4_conf_pilot3","3I02618YA07Q12PD12CRNKFDCD6UPD","16",NULL,"NOVEMBER","7","OCTOBER","4","0","12","1",,,,"2018-07-25 18:50:09","503123"
"A2V1VO04WIRL6N","cs_wg_full_v4_conf_pilot3","3HHRAGRYX86AWAP9OR4L2ON9PN19OL","11",NULL,"APRIL","12","JANUARY","10","1","4666","0",,,,"2018-07-25 18:50:10","503124"
"A2309F1W6LTPF6","cs_wg_full_v4_conf_pilot3","3TAYZSBPLL9EUIW3AZ6FC6PWG6TS28","41",NULL,"SEPTEMBER","2","JANUARY","11","0","305","0",,,,"2018-07-25 18:50:12","503125"
"A2JEBSXKVWFCC0","cs_wg_full_v4_conf_pilot3","3I02618YA07Q12PD12CRNKFDCD6UPD","17",NULL,"DECEMBER","11","AUGUST","12","0","142","1",,,,"2018-07-25 18:50:13","503126"
"A3BYOCOPKVRUZ","cs_wg_full_v4_conf_pilot3","3E47SOBEYQX2YML92G17KHSVJZ5CIA","5",NULL,"JANUARY","4","AUGUST","3","0","3181","1",,,,"2018-07-25 18:50:16","503127"
"A3SAD1UI1JRMTG","cs_wg_full_v4_conf_pilot3","39ZSFO5CA8XUFRMF6P77QOT13E0UJD","4",NULL,"JUNE","8","SEPTEMBER","11","0","3244","1",,,,"2018-07-25 18:50:16","503128"
"A2309F1W6LTPF6","cs_wg_full_v4_conf_pilot3","3TAYZSBPLL9EUIW3AZ6FC6PWG6TS28","42",NULL,"JULY","6","MARCH","4","1","322","0",,,,"2018-07-25 18:50:17","503129"
"A2JEBSXKVWFCC0","cs_wg_full_v4_conf_pilot3","3I02618YA07Q12PD12CRNKFDCD6UPD","18",NULL,"JUNE","8","NOVEMBER","7","0","72","1",,,,"2018-07-25 18:50:18","503130"
"A2309F1W6LTPF6","cs_wg_full_v4_conf_pilot3","3TAYZSBPLL9EUIW3AZ6FC6PWG6TS28","43",NULL,"FEBRUARY","12","SEPTEMBER","2","1","312","0",,,,"2018-07-25 18:50:21","503131"
"A2V1VO04WIRL6N","cs_wg_full_v4_conf_pilot3","3HHRAGRYX86AWAP9OR4L2ON9PN19OL","12",NULL,"JANUARY","10","FEBRUARY","11","1","5799","1",,,,"2018-07-25 18:50:23","503132"
"A3BYOCOPKVRUZ","cs_wg_full_v4_conf_pilot3","3E47SOBEYQX2YML92G17KHSVJZ5CIA","6",NULL,"AUGUST","3","JANUARY","4","1","1950","1",,,,"2018-07-25 18:50:24","503133"
"A2JEBSXKVWFCC0","cs_wg_full_v4_conf_pilot3","3I02618YA07Q12PD12CRNKFDCD6UPD","19",NULL,"JANUARY","2","JULY","1","0","312","1",,,,"2018-07-25 18:50:25","503134"
"A2309F1W6LTPF6","cs_wg_full_v4_conf_pilot3","3TAYZSBPLL9EUIW3AZ6FC6PWG6TS28","44",NULL,"AUGUST","3","SEPTEMBER","2","0","455","0",,,,"2018-07-25 18:50:26","503135"
"A1GOGKHM9YENEF","cs_wg_full_v4_conf_pilot3","38YMOXR4MU0VJ0WDH6SJZ89T2OS6WJ","0",NULL,"MARCH","10","AUGUST","4","1","17228","1",,,,"2018-07-25 18:50:28","503136"
"A3G4USHY7MR4WW","cs_wg_full_v4_conf_pilot3","3AAPLD8UCCIJO8C0IKEC9FRK78QHT5","0",NULL,"JUNE","8","JULY","2","0","25357","1",,,,"2018-07-25 18:50:29","503137"
"A2JEBSXKVWFCC0","cs_wg_full_v4_conf_pilot3","3I02618YA07Q12PD12CRNKFDCD6UPD","20",NULL,"FEBRUARY","3","JUNE","8","0","291","1",,,,"2018-07-25 18:50:29","503138"
"A3BYOCOPKVRUZ","cs_wg_full_v4_conf_pilot3","3E47SOBEYQX2YML92G17KHSVJZ5CIA","7",NULL,"DECEMBER","2","MAY","1","0","1219","1",,,,"2018-07-25 18:50:30","503139"
"A2309F1W6LTPF6","cs_wg_full_v4_conf_pilot3","3TAYZSBPLL9EUIW3AZ6FC6PWG6TS28","45",NULL,"MAY","8","OCTOBER","9","0","282","0",,,,"2018-07-25 18:50:30","503140"
"A2309F1W6LTPF6","cs_wg_full_v4_conf_pilot3","3TAYZSBPLL9EUIW3AZ6FC6PWG6TS28","46",NULL,"SEPTEMBER","2","JUNE","1","0","209","1",,,,"2018-07-25 18:50:34","503141"
"A2JEBSXKVWFCC0","cs_wg_full_v4_conf_pilot3","3I02618YA07Q12PD12CRNKFDCD6UPD","21",NULL,"NOVEMBER","7","AUGUST","12","0","726","1",,,,"2018-07-25 18:50:35","503142"
"A2V1VO04WIRL6N","cs_wg_full_v4_conf_pilot3","3HHRAGRYX86AWAP9OR4L2ON9PN19OL","13",NULL,"MAY","5","SEPTEMBER","4","0","6571","1",,,,"2018-07-25 18:50:35","503143"
"A3BYOCOPKVRUZ","cs_wg_full_v4_conf_pilot3","3E47SOBEYQX2YML92G17KHSVJZ5CIA","8",NULL,"NOVEMBER","6","SEPTEMBER","5","1","1623","0",,,,"2018-07-25 18:50:36","503144"
"A2309F1W6LTPF6","cs_wg_full_v4_conf_pilot3","3TAYZSBPLL9EUIW3AZ6FC6PWG6TS28","47",NULL,"JANUARY","11","FEBRUARY","12","0","259","0",,,,"2018-07-25 18:50:38","503145"
"A3SAD1UI1JRMTG","cs_wg_full_v4_conf_pilot3","39ZSFO5CA8XUFRMF6P77QOT13E0UJD","5",NULL,"APRIL","3","NOVEMBER","9","1","8731","1",,,,"2018-07-25 18:50:38","503146"
"A3BYOCOPKVRUZ","cs_wg_full_v4_conf_pilot3","3E47SOBEYQX2YML92G17KHSVJZ5CIA","9",NULL,"MARCH","11","JANUARY","4","0","734","1",,,,"2018-07-25 18:50:42","503147"
"A2K14P6B2UKYUJ","cs_wg_full_v4_conf_pilot3","3DH6GAKTYYQ1WFBOYC7IH3N4I0OZY1","0",NULL,"JANUARY","9","MARCH","7","0","4594","1",,,,"2018-07-25 18:50:43","503148"
"A2309F1W6LTPF6","cs_wg_full_v4_conf_pilot3","3TAYZSBPLL9EUIW3AZ6FC6PWG6TS28","48",NULL,"SEPTEMBER","2","AUGUST","3","1","273","1",,,,"2018-07-25 18:50:43","503149"
"A2JEBSXKVWFCC0","cs_wg_full_v4_conf_pilot3","3I02618YA07Q12PD12CRNKFDCD6UPD","22",NULL,"NOVEMBER","7","DECEMBER","11","0","1371","1",,,,"2018-07-25 18:50:43","503150"
"A2V1VO04WIRL6N","cs_wg_full_v4_conf_pilot3","3HHRAGRYX86AWAP9OR4L2ON9PN19OL","14",NULL,"DECEMBER","2","FEBRUARY","11","1","3683","1",,,,"2018-07-25 18:50:44","503151"
"A3BYOCOPKVRUZ","cs_wg_full_v4_conf_pilot3","3E47SOBEYQX2YML92G17KHSVJZ5CIA","10",NULL,"SEPTEMBER","5","JANUARY","4","0","419","1",,,,"2018-07-25 18:50:47","503152"
"A2309F1W6LTPF6","cs_wg_full_v4_conf_pilot3","3TAYZSBPLL9EUIW3AZ6FC6PWG6TS28","49",NULL,"JUNE","1","SEPTEMBER","2","1","273","1",,,,"2018-07-25 18:50:47","503153"
"A2V1VO04WIRL6N","cs_wg_full_v4_conf_pilot3","3HHRAGRYX86AWAP9OR4L2ON9PN19OL","15",NULL,"JANUARY","10","JULY","9","1","2489","0",,,,"2018-07-25 18:50:51","503154"
"A2309F1W6LTPF6","cs_wg_full_v4_conf_pilot3","3TAYZSBPLL9EUIW3AZ6FC6PWG6TS28","50",NULL,"JULY","6","FEBRUARY","12","1","257","1",,,,"2018-07-25 18:50:51","503155"
"A3SAD1UI1JRMTG","cs_wg_full_v4_conf_pilot3","39ZSFO5CA8XUFRMF6P77QOT13E0UJD","6",NULL,"JUNE","8","APRIL","3","1","2752","1",,,,"2018-07-25 18:50:52","503156"
"A3G4USHY7MR4WW","cs_wg_full_v4_conf_pilot3","3AAPLD8UCCIJO8C0IKEC9FRK78QHT5","1",NULL,"OCTOBER","4","AUGUST","9","0","5168","0",,,,"2018-07-25 18:50:52","503157"
"A1GOGKHM9YENEF","cs_wg_full_v4_conf_pilot3","38YMOXR4MU0VJ0WDH6SJZ89T2OS6WJ","1",NULL,"MARCH","10","SEPTEMBER","6","1","12780","1",,,,"2018-07-25 18:50:52","503158"
"A2K14P6B2UKYUJ","cs_wg_full_v4_conf_pilot3","3DH6GAKTYYQ1WFBOYC7IH3N4I0OZY1","1",NULL,"JULY","12","MARCH","7","0","1697","1",,,,"2018-07-25 18:50:52","503159"
"A3BYOCOPKVRUZ","cs_wg_full_v4_conf_pilot3","3E47SOBEYQX2YML92G17KHSVJZ5CIA","11",NULL,"OCTOBER","9","JULY","12","0","363","0",,,,"2018-07-25 18:50:52","503160"
"A2309F1W6LTPF6","cs_wg_full_v4_conf_pilot3","3TAYZSBPLL9EUIW3AZ6FC6PWG6TS28","51",NULL,"OCTOBER","9","FEBRUARY","12","1","266","1",,,,"2018-07-25 18:50:57","503161"
"A3BYOCOPKVRUZ","cs_wg_full_v4_conf_pilot3","3E47SOBEYQX2YML92G17KHSVJZ5CIA","12",NULL,"AUGUST","3","MAY","1","0","581","1",,,,"2018-07-25 18:50:58","503162"
"A2JEBSXKVWFCC0","cs_wg_full_v4_conf_pilot3","3I02618YA07Q12PD12CRNKFDCD6UPD","23",NULL,"JUNE","8","DECEMBER","11","1","5820","1",,,,"2018-07-25 18:51:00","503163"
"A2309F1W6LTPF6","cs_wg_full_v4_conf_pilot3","3TAYZSBPLL9EUIW3AZ6FC6PWG6TS28","52",NULL,"SEPTEMBER","2","MAY","8","1","1513","1",,,,"2018-07-25 18:51:02","503164"
"A2V1VO04WIRL6N","cs_wg_full_v4_conf_pilot3","3HHRAGRYX86AWAP9OR4L2ON9PN19OL","16",NULL,"JANUARY","10","NOVEMBER","3","1","6493","0",,,,"2018-07-25 18:51:03","503165"
"A2K14P6B2UKYUJ","cs_wg_full_v4_conf_pilot3","3DH6GAKTYYQ1WFBOYC7IH3N4I0OZY1","2",NULL,"JUNE","5","AUGUST","2","0","838","1",,,,"2018-07-25 18:51:03","503166"
"A3G4USHY7MR4WW","cs_wg_full_v4_conf_pilot3","3AAPLD8UCCIJO8C0IKEC9FRK78QHT5","2",NULL,"AUGUST","9","JUNE","8","1","4241","1",,,,"2018-07-25 18:51:03","503167"
"A3BYOCOPKVRUZ","cs_wg_full_v4_conf_pilot3","3E47SOBEYQX2YML92G17KHSVJZ5CIA","13",NULL,"AUGUST","3","MARCH","11","0","678","0",,,,"2018-07-25 18:51:03","503168"
"A3SAD1UI1JRMTG","cs_wg_full_v4_conf_pilot3","39ZSFO5CA8XUFRMF6P77QOT13E0UJD","7",NULL,"NOVEMBER","9","MARCH","2","0","3526","1",,,,"2018-07-25 18:51:04","503169"
"A2309F1W6LTPF6","cs_wg_full_v4_conf_pilot3","3TAYZSBPLL9EUIW3AZ6FC6PWG6TS28","53",NULL,"FEBRUARY","12","JUNE","1","1","290","0",,,,"2018-07-25 18:51:06","503170"
"A2JEBSXKVWFCC0","cs_wg_full_v4_conf_pilot3","3I02618YA07Q12PD12CRNKFDCD6UPD","24",NULL,"NOVEMBER","7","JUNE","8","0","2335","1",,,,"2018-07-25 18:51:08","503171"
"A1GOGKHM9YENEF","cs_wg_full_v4_conf_pilot3","38YMOXR4MU0VJ0WDH6SJZ89T2OS6WJ","2",NULL,"OCTOBER","8","JUNE","7","1","3792","1",,,,"2018-07-25 18:51:09","503172"
"A3BYOCOPKVRUZ","cs_wg_full_v4_conf_pilot3","3E47SOBEYQX2YML92G17KHSVJZ5CIA","14",NULL,"AUGUST","3","JULY","12","0","425","0",,,,"2018-07-25 18:51:09","503173"
"A2309F1W6LTPF6","cs_wg_full_v4_conf_pilot3","3TAYZSBPLL9EUIW3AZ6FC6PWG6TS28","54",NULL,"NOVEMBER","5","JUNE","1","0","160","1",,,,"2018-07-25 18:51:11","503174"
"A2K14P6B2UKYUJ","cs_wg_full_v4_conf_pilot3","3DH6GAKTYYQ1WFBOYC7IH3N4I0OZY1","3",NULL,"AUGUST","2","MARCH","7","1","1185","1",,,,"2018-07-25 18:51:11","503175"
"A3G4USHY7MR4WW","cs_wg_full_v4_conf_pilot3","3AAPLD8UCCIJO8C0IKEC9FRK78QHT5","3",NULL,"APRIL","11","NOVEMBER","5","0","3369","1",,,,"2018-07-25 18:51:12","503176"
"A2V1VO04WIRL6N","cs_wg_full_v4_conf_pilot3","3HHRAGRYX86AWAP9OR4L2ON9PN19OL","17",NULL,"FEBRUARY","11","APRIL","12","1","5028","1",,,,"2018-07-25 18:51:13","503177"
"A3BYOCOPKVRUZ","cs_wg_full_v4_conf_pilot3","3E47SOBEYQX2YML92G17KHSVJZ5CIA","15",NULL,"FEBRUARY","8","JANUARY","4","1","468","0",,,,"2018-07-25 18:51:14","503178"
"A2JEBSXKVWFCC0","cs_wg_full_v4_conf_pilot3","3I02618YA07Q12PD12CRNKFDCD6UPD","25",NULL,"DECEMBER","11","APRIL","10","0","1970","1",,,,"2018-07-25 18:51:15","503179"
"A3SAD1UI1JRMTG","cs_wg_full_v4_conf_pilot3","39ZSFO5CA8XUFRMF6P77QOT13E0UJD","8",NULL,"APRIL","3","JUNE","8","1","4153","1",,,,"2018-07-25 18:51:19","503180"
"A2V1VO04WIRL6N","cs_wg_full_v4_conf_pilot3","3HHRAGRYX86AWAP9OR4L2ON9PN19OL","18",NULL,"JULY","9","JUNE","7","0","1680","1",,,,"2018-07-25 18:51:19","503181"
"A1GOGKHM9YENEF","cs_wg_full_v4_conf_pilot3","38YMOXR4MU0VJ0WDH6SJZ89T2OS6WJ","3",NULL,"AUGUST","4","APRIL","3","0","2888","1",,,,"2018-07-25 18:51:19","503182"
"A3BYOCOPKVRUZ","cs_wg_full_v4_conf_pilot3","3E47SOBEYQX2YML92G17KHSVJZ5CIA","16",NULL,"JULY","12","MAY","1","0","779","1",,,,"2018-07-25 18:51:20","503183"
"A2K14P6B2UKYUJ","cs_wg_full_v4_conf_pilot3","3DH6GAKTYYQ1WFBOYC7IH3N4I0OZY1","4",NULL,"DECEMBER","6","SEPTEMBER","10","1","1063","1",,,,"2018-07-25 18:51:21","503184"
"A3BYOCOPKVRUZ","cs_wg_full_v4_conf_pilot3","3E47SOBEYQX2YML92G17KHSVJZ5CIA","17",NULL,"DECEMBER","2","OCTOBER","9","0","327","0",,,,"2018-07-25 18:51:24","503185"
"A3G4USHY7MR4WW","cs_wg_full_v4_conf_pilot3","3AAPLD8UCCIJO8C0IKEC9FRK78QHT5","4",NULL,"APRIL","11","AUGUST","9","0","5476","1",,,,"2018-07-25 18:51:25","503186"
"A2K14P6B2UKYUJ","cs_wg_full_v4_conf_pilot3","3DH6GAKTYYQ1WFBOYC7IH3N4I0OZY1","5",NULL,"JANUARY","9","OCTOBER","3","0","1433","1",,,,"2018-07-25 18:51:29","503187"
"A2V1VO04WIRL6N","cs_wg_full_v4_conf_pilot3","3HHRAGRYX86AWAP9OR4L2ON9PN19OL","19",NULL,"AUGUST","8","FEBRUARY","11","0","4822","0",,,,"2018-07-25 18:51:29","503188"
"A3BYOCOPKVRUZ","cs_wg_full_v4_conf_pilot3","3E47SOBEYQX2YML92G17KHSVJZ5CIA","18",NULL,"NOVEMBER","6","JULY","12","1","309","1",,,,"2018-07-25 18:51:30","503189"
"A1GOGKHM9YENEF","cs_wg_full_v4_conf_pilot3","38YMOXR4MU0VJ0WDH6SJZ89T2OS6WJ","4",NULL,"JANUARY","9","MAY","12","1","3879","1",,,,"2018-07-25 18:51:30","503190"
"A3SAD1UI1JRMTG","cs_wg_full_v4_conf_pilot3","39ZSFO5CA8XUFRMF6P77QOT13E0UJD","9",NULL,"JUNE","8","NOVEMBER","9","1","2978","1",,,,"2018-07-25 18:51:34","503191"
"A3BYOCOPKVRUZ","cs_wg_full_v4_conf_pilot3","3E47SOBEYQX2YML92G17KHSVJZ5CIA","19",NULL,"OCTOBER","9","NOVEMBER","6","0","398","1",,,,"2018-07-25 18:51:35","503192"
"A2V1VO04WIRL6N","cs_wg_full_v4_conf_pilot3","3HHRAGRYX86AWAP9OR4L2ON9PN19OL","20",NULL,"MARCH","1","FEBRUARY","11","1","1879","1",,,,"2018-07-25 18:51:37","503193"
"A2K14P6B2UKYUJ","cs_wg_full_v4_conf_pilot3","3DH6GAKTYYQ1WFBOYC7IH3N4I0OZY1","6",NULL,"OCTOBER","3","APRIL","11","1","1046","1",,,,"2018-07-25 18:51:37","503194"
"A3G4USHY7MR4WW","cs_wg_full_v4_conf_pilot3","3AAPLD8UCCIJO8C0IKEC9FRK78QHT5","5",NULL,"FEBRUARY","1","MARCH","12","0","4713","0",,,,"2018-07-25 18:51:38","503195"
"A3BYOCOPKVRUZ","cs_wg_full_v4_conf_pilot3","3E47SOBEYQX2YML92G17KHSVJZ5CIA","20",NULL,"NOVEMBER","6","DECEMBER","2","0","371","1",,,,"2018-07-25 18:51:40","503196"
"A1GOGKHM9YENEF","cs_wg_full_v4_conf_pilot3","38YMOXR4MU0VJ0WDH6SJZ89T2OS6WJ","5",NULL,"APRIL","3","MAY","12","0","4742","0",,,,"2018-07-25 18:51:43","503197"
"A2K14P6B2UKYUJ","cs_wg_full_v4_conf_pilot3","3DH6GAKTYYQ1WFBOYC7IH3N4I0OZY1","7",NULL,"OCTOBER","3","JANUARY","9","0","955","1",,,,"2018-07-25 18:51:45","503198"
"A3BYOCOPKVRUZ","cs_wg_full_v4_conf_pilot3","3E47SOBEYQX2YML92G17KHSVJZ5CIA","21",NULL,"MARCH","11","SEPTEMBER","5","0","618","1",,,,"2018-07-25 18:51:45","503199"
"A2309F1W6LTPF6","cs_wg_full_v4_conf_pilot3","3TAYZSBPLL9EUIW3AZ6FC6PWG6TS28","55",NULL,"MAY","8","FEBRUARY","12","0","31560","0",,,,"2018-07-25 18:51:47","503200"
"A2V1VO04WIRL6N","cs_wg_full_v4_conf_pilot3","3HHRAGRYX86AWAP9OR4L2ON9PN19OL","21",NULL,"MAY","5","APRIL","12","1","5736","1",,,,"2018-07-25 18:51:47","503201"
"A3G4USHY7MR4WW","cs_wg_full_v4_conf_pilot3","3AAPLD8UCCIJO8C0IKEC9FRK78QHT5","6",NULL,"DECEMBER","7","JUNE","8","1","3611","1",,,,"2018-07-25 18:51:47","503202"
"A3SAD1UI1JRMTG","cs_wg_full_v4_conf_pilot3","39ZSFO5CA8XUFRMF6P77QOT13E0UJD","10",NULL,"MARCH","2","OCTOBER","4","1","2318","1",,,,"2018-07-25 18:51:50","503203"
"A3BYOCOPKVRUZ","cs_wg_full_v4_conf_pilot3","3E47SOBEYQX2YML92G17KHSVJZ5CIA","22",NULL,"JUNE","10","JULY","12","0","322","0",,,,"2018-07-25 18:51:51","503204"
"A2K14P6B2UKYUJ","cs_wg_full_v4_conf_pilot3","3DH6GAKTYYQ1WFBOYC7IH3N4I0OZY1","8",NULL,"FEBRUARY","1","JUNE","5","1","1517","1",,,,"2018-07-25 18:51:53","503205"
"A2V1VO04WIRL6N","cs_wg_full_v4_conf_pilot3","3HHRAGRYX86AWAP9OR4L2ON9PN19OL","22",NULL,"SEPTEMBER","4","FEBRUARY","11","1","2188","1",,,,"2018-07-25 18:51:54","503206"
"A3BYOCOPKVRUZ","cs_wg_full_v4_conf_pilot3","3E47SOBEYQX2YML92G17KHSVJZ5CIA","23",NULL,"NOVEMBER","6","APRIL","7","1","344","1",,,,"2018-07-25 18:51:55","503207"
"A3G4USHY7MR4WW","cs_wg_full_v4_conf_pilot3","3AAPLD8UCCIJO8C0IKEC9FRK78QHT5","7",NULL,"MAY","3","NOVEMBER","5","0","2847","0",,,,"2018-07-25 18:51:57","503208"
"A1GOGKHM9YENEF","cs_wg_full_v4_conf_pilot3","38YMOXR4MU0VJ0WDH6SJZ89T2OS6WJ","6",NULL,"DECEMBER","2","SEPTEMBER","6","0","5872","0",,,,"2018-07-25 18:52:00","503209"
"A3BYOCOPKVRUZ","cs_wg_full_v4_conf_pilot3","3E47SOBEYQX2YML92G17KHSVJZ5CIA","24",NULL,"NOVEMBER","6","JANUARY","4","0","625","1",,,,"2018-07-25 18:52:01","503210"
"A2K14P6B2UKYUJ","cs_wg_full_v4_conf_pilot3","3DH6GAKTYYQ1WFBOYC7IH3N4I0OZY1","9",NULL,"MAY","8","NOVEMBER","4","0","1091","1",,,,"2018-07-25 18:52:01","503211"
"A3SAD1UI1JRMTG","cs_wg_full_v4_conf_pilot3","39ZSFO5CA8XUFRMF6P77QOT13E0UJD","11",NULL,"AUGUST","1","MAY","5","1","3605","1",,,,"2018-07-25 18:52:01","503212"
"A2V1VO04WIRL6N","cs_wg_full_v4_conf_pilot3","3HHRAGRYX86AWAP9OR4L2ON9PN19OL","23",NULL,"SEPTEMBER","4","MAY","5","1","1617","1",,,,"2018-07-25 18:52:01","503213"
"A3BYOCOPKVRUZ","cs_wg_full_v4_conf_pilot3","3E47SOBEYQX2YML92G17KHSVJZ5CIA","25",NULL,"MARCH","11","OCTOBER","9","0","438","1",,,,"2018-07-25 18:52:05","503214"
"A3G4USHY7MR4WW","cs_wg_full_v4_conf_pilot3","3AAPLD8UCCIJO8C0IKEC9FRK78QHT5","8",NULL,"DECEMBER","7","AUGUST","9","1","3616","1",,,,"2018-07-25 18:52:07","503215"
"A2V1VO04WIRL6N","cs_wg_full_v4_conf_pilot3","3HHRAGRYX86AWAP9OR4L2ON9PN19OL","24",NULL,"AUGUST","8","DECEMBER","2","0","2991","1",,,,"2018-07-25 18:52:08","503216"
"A2K14P6B2UKYUJ","cs_wg_full_v4_conf_pilot3","3DH6GAKTYYQ1WFBOYC7IH3N4I0OZY1","10",NULL,"SEPTEMBER","10","DECEMBER","6","1","1089","1",,,,"2018-07-25 18:52:09","503217"
"A3BYOCOPKVRUZ","cs_wg_full_v4_conf_pilot3","3E47SOBEYQX2YML92G17KHSVJZ5CIA","26",NULL,"DECEMBER","2","JANUARY","4","0","419","0",,,,"2018-07-25 18:52:10","503218"
"A1GOGKHM9YENEF","cs_wg_full_v4_conf_pilot3","38YMOXR4MU0VJ0WDH6SJZ89T2OS6WJ","7",NULL,"NOVEMBER","5","FEBRUARY","11","1","4000","1",,,,"2018-07-25 18:52:12","503219"
"A3BYOCOPKVRUZ","cs_wg_full_v4_conf_pilot3","3E47SOBEYQX2YML92G17KHSVJZ5CIA","27",NULL,"FEBRUARY","8","AUGUST","3","1","375","0",,,,"2018-07-25 18:52:15","503220"
"A2K14P6B2UKYUJ","cs_wg_full_v4_conf_pilot3","3DH6GAKTYYQ1WFBOYC7IH3N4I0OZY1","11",NULL,"JULY","12","SEPTEMBER","10","0","751","1",,,,"2018-07-25 18:52:16","503221"
"A3SAD1UI1JRMTG","cs_wg_full_v4_conf_pilot3","39ZSFO5CA8XUFRMF6P77QOT13E0UJD","12",NULL,"JUNE","8","MAY","5","1","2469","1",,,,"2018-07-25 18:52:17","503222"
"A3G4USHY7MR4WW","cs_wg_full_v4_conf_pilot3","3AAPLD8UCCIJO8C0IKEC9FRK78QHT5","9",NULL,"NOVEMBER","5","FEBRUARY","1","1","3073","0",,,,"2018-07-25 18:52:17","503223"
"A2309F1W6LTPF6","cs_wg_full_v4_conf_pilot3","3TAYZSBPLL9EUIW3AZ6FC6PWG6TS28","56",NULL,"MAY","8","AUGUST","3","0","26960","1",,,,"2018-07-25 18:52:20","503224"
"A2V1VO04WIRL6N","cs_wg_full_v4_conf_pilot3","3HHRAGRYX86AWAP9OR4L2ON9PN19OL","25",NULL,"APRIL","12","OCTOBER","6","0","6975","1",,,,"2018-07-25 18:52:20","503225"
"A3BYOCOPKVRUZ","cs_wg_full_v4_conf_pilot3","3E47SOBEYQX2YML92G17KHSVJZ5CIA","28",NULL,"MAY","1","JULY","12","0","421","0",,,,"2018-07-25 18:52:21","503226"
"A2K14P6B2UKYUJ","cs_wg_full_v4_conf_pilot3","3DH6GAKTYYQ1WFBOYC7IH3N4I0OZY1","12",NULL,"DECEMBER","6","JANUARY","9","0","1064","1",,,,"2018-07-25 18:52:24","503227"
"A3G4USHY7MR4WW","cs_wg_full_v4_conf_pilot3","3AAPLD8UCCIJO8C0IKEC9FRK78QHT5","10",NULL,"SEPTEMBER","6","NOVEMBER","5","0","2226","1",,,,"2018-07-25 18:52:25","503228"
"A2309F1W6LTPF6","cs_wg_full_v4_conf_pilot3","3TAYZSBPLL9EUIW3AZ6FC6PWG6TS28","57",NULL,"MAY","8","JULY","6","1","1000","0",,,,"2018-07-25 18:52:26","503229"
"A3BYOCOPKVRUZ","cs_wg_full_v4_conf_pilot3","3E47SOBEYQX2YML92G17KHSVJZ5CIA","29",NULL,"MAY","1","DECEMBER","2","1","1655","1",,,,"2018-07-25 18:52:26","503230"
"A2V1VO04WIRL6N","cs_wg_full_v4_conf_pilot3","3HHRAGRYX86AWAP9OR4L2ON9PN19OL","26",NULL,"FEBRUARY","11","OCTOBER","6","0","1925","1",,,,"2018-07-25 18:52:27","503231"
"A3SAD1UI1JRMTG","cs_wg_full_v4_conf_pilot3","39ZSFO5CA8XUFRMF6P77QOT13E0UJD","13",NULL,"JULY","6","OCTOBER","4","1","2318","1",,,,"2018-07-25 18:52:28","503232"
"A1GOGKHM9YENEF","cs_wg_full_v4_conf_pilot3","38YMOXR4MU0VJ0WDH6SJZ89T2OS6WJ","8",NULL,"MAY","12","DECEMBER","2","0","10315","1",,,,"2018-07-25 18:52:31","503233"
"A2309F1W6LTPF6","cs_wg_full_v4_conf_pilot3","3TAYZSBPLL9EUIW3AZ6FC6PWG6TS28","58",NULL,"DECEMBER","10","MAY","8","0","1201","1",,,,"2018-07-25 18:52:31","503234"
"A3BYOCOPKVRUZ","cs_wg_full_v4_conf_pilot3","3E47SOBEYQX2YML92G17KHSVJZ5CIA","30",NULL,"MAY","1","JUNE","10","0","412","0",,,,"2018-07-25 18:52:32","503235"
"A3G4USHY7MR4WW","cs_wg_full_v4_conf_pilot3","3AAPLD8UCCIJO8C0IKEC9FRK78QHT5","11",NULL,"JUNE","8","MAY","3","0","2385","1",,,,"2018-07-25 18:52:33","503236"
"A2V1VO04WIRL6N","cs_wg_full_v4_conf_pilot3","3HHRAGRYX86AWAP9OR4L2ON9PN19OL","27",NULL,"MARCH","1","JANUARY","10","0","2664","0",,,,"2018-07-25 18:52:35","503237"
"A3SAD1UI1JRMTG","cs_wg_full_v4_conf_pilot3","39ZSFO5CA8XUFRMF6P77QOT13E0UJD","14",NULL,"MARCH","2","APRIL","3","0","1695","1",,,,"2018-07-25 18:52:36","503238"
"A2309F1W6LTPF6","cs_wg_full_v4_conf_pilot3","3TAYZSBPLL9EUIW3AZ6FC6PWG6TS28","59",NULL,"JUNE","1","DECEMBER","10","0","496","0",,,,"2018-07-25 18:52:36","503239"
"A3BYOCOPKVRUZ","cs_wg_full_v4_conf_pilot3","3E47SOBEYQX2YML92G17KHSVJZ5CIA","31",NULL,"JANUARY","4","MAY","1","0","1250","1",,,,"2018-07-25 18:52:37","503240"
"A2K14P6B2UKYUJ","cs_wg_full_v4_conf_pilot3","3DH6GAKTYYQ1WFBOYC7IH3N4I0OZY1","13",NULL,"JANUARY","9","FEBRUARY","1","1","1729","1",,,,"2018-07-25 18:52:40","503241"
"A2309F1W6LTPF6","cs_wg_full_v4_conf_pilot3","3TAYZSBPLL9EUIW3AZ6FC6PWG6TS28","60",NULL,"DECEMBER","10","APRIL","7","0","361","1",,,,"2018-07-25 18:52:41","503242"
"A3BYOCOPKVRUZ","cs_wg_full_v4_conf_pilot3","3E47SOBEYQX2YML92G17KHSVJZ5CIA","32",NULL,"JANUARY","4","NOVEMBER","6","0","355","0",,,,"2018-07-25 18:52:43","503243"
"A31LAW5AW4IUNG","cs_wg_full_v4_conf_pilot3","3Y54SXRO1LMOTUIKIJLBSUGA1GRUTI","0",NULL,"JULY","1","MAY","2","1","11104","1",,,,"2018-07-25 18:52:43","503244"
"A3G4USHY7MR4WW","cs_wg_full_v4_conf_pilot3","3AAPLD8UCCIJO8C0IKEC9FRK78QHT5","12",NULL,"AUGUST","9","FEBRUARY","1","1","3200","0",,,,"2018-07-25 18:52:46","503245"
"A2309F1W6LTPF6","cs_wg_full_v4_conf_pilot3","3TAYZSBPLL9EUIW3AZ6FC6PWG6TS28","61",NULL,"JUNE","1","MARCH","4","0","513","0",,,,"2018-07-25 18:52:47","503246"
"A2V1VO04WIRL6N","cs_wg_full_v4_conf_pilot3","3HHRAGRYX86AWAP9OR4L2ON9PN19OL","28",NULL,"JULY","9","DECEMBER","2","0","8183","1",,,,"2018-07-25 18:52:47","503247"
"A3SAD1UI1JRMTG","cs_wg_full_v4_conf_pilot3","39ZSFO5CA8XUFRMF6P77QOT13E0UJD","15",NULL,"FEBRUARY","10","APRIL","3","1","2708","1",,,,"2018-07-25 18:52:48","503248"
"A2K14P6B2UKYUJ","cs_wg_full_v4_conf_pilot3","3DH6GAKTYYQ1WFBOYC7IH3N4I0OZY1","14",NULL,"NOVEMBER","4","DECEMBER","6","1","1794","1",,,,"2018-07-25 18:52:50","503249"
"A3BYOCOPKVRUZ","cs_wg_full_v4_conf_pilot3","3E47SOBEYQX2YML92G17KHSVJZ5CIA","33",NULL,"SEPTEMBER","5","FEBRUARY","8","1","774","1",,,,"2018-07-25 18:52:50","503250"
"A1GOGKHM9YENEF","cs_wg_full_v4_conf_pilot3","38YMOXR4MU0VJ0WDH6SJZ89T2OS6WJ","9",NULL,"MARCH","10","NOVEMBER","5","0","12820","1",,,,"2018-07-25 18:52:51","503251"
"A2309F1W6LTPF6","cs_wg_full_v4_conf_pilot3","3TAYZSBPLL9EUIW3AZ6FC6PWG6TS28","62",NULL,"SEPTEMBER","2","FEBRUARY","12","0","331","0",,,,"2018-07-25 18:52:52","503252"
"A3G4USHY7MR4WW","cs_wg_full_v4_conf_pilot3","3AAPLD8UCCIJO8C0IKEC9FRK78QHT5","13",NULL,"AUGUST","9","APRIL","11","0","1423","0",,,,"2018-07-25 18:52:53","503253"
"A2V1VO04WIRL6N","cs_wg_full_v4_conf_pilot3","3HHRAGRYX86AWAP9OR4L2ON9PN19OL","29",NULL,"MARCH","1","APRIL","12","1","3175","1",,,,"2018-07-25 18:52:55","503254"
"A3BYOCOPKVRUZ","cs_wg_full_v4_conf_pilot3","3E47SOBEYQX2YML92G17KHSVJZ5CIA","34",NULL,"APRIL","7","AUGUST","3","0","1103","1",,,,"2018-07-25 18:52:55","503255"
"A2309F1W6LTPF6","cs_wg_full_v4_conf_pilot3","3TAYZSBPLL9EUIW3AZ6FC6PWG6TS28","63",NULL,"JULY","6","DECEMBER","10","0","378","0",,,,"2018-07-25 18:52:56","503256"
"A2K14P6B2UKYUJ","cs_wg_full_v4_conf_pilot3","3DH6GAKTYYQ1WFBOYC7IH3N4I0OZY1","15",NULL,"OCTOBER","3","MAY","8","0","1402","1",,,,"2018-07-25 18:52:59","503257"
"A3SAD1UI1JRMTG","cs_wg_full_v4_conf_pilot3","39ZSFO5CA8XUFRMF6P77QOT13E0UJD","16",NULL,"JULY","6","JANUARY","12","0","2979","1",,,,"2018-07-25 18:52:59","503258"
"A3BYOCOPKVRUZ","cs_wg_full_v4_conf_pilot3","3E47SOBEYQX2YML92G17KHSVJZ5CIA","35",NULL,"DECEMBER","2","AUGUST","3","0","447","0",,,,"2018-07-25 18:53:00","503259"
"A2309F1W6LTPF6","cs_wg_full_v4_conf_pilot3","3TAYZSBPLL9EUIW3AZ6FC6PWG6TS28","64",NULL,"FEBRUARY","12","DECEMBER","10","0","266","1",,,,"2018-07-25 18:53:00","503260"
"A31LAW5AW4IUNG","cs_wg_full_v4_conf_pilot3","3Y54SXRO1LMOTUIKIJLBSUGA1GRUTI","1",NULL,"OCTOBER","7","JUNE","12","0","5472","1",,,,"2018-07-25 18:53:02","503261"
"A2V1VO04WIRL6N","cs_wg_full_v4_conf_pilot3","3HHRAGRYX86AWAP9OR4L2ON9PN19OL","30",NULL,"MARCH","1","AUGUST","8","1","1580","1",,,,"2018-07-25 18:53:02","503262"
"A3G4USHY7MR4WW","cs_wg_full_v4_conf_pilot3","3AAPLD8UCCIJO8C0IKEC9FRK78QHT5","14",NULL,"APRIL","11","MARCH","12","1","3774","1",,,,"2018-07-25 18:53:04","503263"
"A2309F1W6LTPF6","cs_wg_full_v4_conf_pilot3","3TAYZSBPLL9EUIW3AZ6FC6PWG6TS28","65",NULL,"OCTOBER","9","JANUARY","11","0","210","0",,,,"2018-07-25 18:53:04","503264"
"A3BYOCOPKVRUZ","cs_wg_full_v4_conf_pilot3","3E47SOBEYQX2YML92G17KHSVJZ5CIA","36",NULL,"JULY","12","SEPTEMBER","5","1","467","0",,,,"2018-07-25 18:53:06","503265"
"A2K14P6B2UKYUJ","cs_wg_full_v4_conf_pilot3","3DH6GAKTYYQ1WFBOYC7IH3N4I0OZY1","16",NULL,"NOVEMBER","4","MARCH","7","0","1023","1",,,,"2018-07-25 18:53:07","503266"
"A2V1VO04WIRL6N","cs_wg_full_v4_conf_pilot3","3HHRAGRYX86AWAP9OR4L2ON9PN19OL","31",NULL,"FEBRUARY","11","NOVEMBER","3","0","1424","1",,,,"2018-07-25 18:53:08","503267"
"A1GOGKHM9YENEF","cs_wg_full_v4_conf_pilot3","38YMOXR4MU0VJ0WDH6SJZ89T2OS6WJ","10",NULL,"OCTOBER","8","NOVEMBER","5","0","8739","1",,,,"2018-07-25 18:53:08","503268"
"A2309F1W6LTPF6","cs_wg_full_v4_conf_pilot3","3TAYZSBPLL9EUIW3AZ6FC6PWG6TS28","66",NULL,"JULY","6","NOVEMBER","5","0","217","1",,,,"2018-07-25 18:53:08","503269"
"A3BYOCOPKVRUZ","cs_wg_full_v4_conf_pilot3","3E47SOBEYQX2YML92G17KHSVJZ5CIA","37",NULL,"OCTOBER","9","JANUARY","4","0","412","1",,,,"2018-07-25 18:53:11","503270"
"A3SAD1UI1JRMTG","cs_wg_full_v4_conf_pilot3","39ZSFO5CA8XUFRMF6P77QOT13E0UJD","17",NULL,"OCTOBER","4","JUNE","8","1","2204","1",,,,"2018-07-25 18:53:12","503271"
"A2309F1W6LTPF6","cs_wg_full_v4_conf_pilot3","3TAYZSBPLL9EUIW3AZ6FC6PWG6TS28","67",NULL,"JUNE","1","NOVEMBER","5","1","243","1",,,,"2018-07-25 18:53:12","503272"
"A2V1VO04WIRL6N","cs_wg_full_v4_conf_pilot3","3HHRAGRYX86AWAP9OR4L2ON9PN19OL","32",NULL,"APRIL","12","JUNE","7","0","1598","1",,,,"2018-07-25 18:53:14","503273"
"A2K14P6B2UKYUJ","cs_wg_full_v4_conf_pilot3","3DH6GAKTYYQ1WFBOYC7IH3N4I0OZY1","17",NULL,"FEBRUARY","1","JULY","12","1","1337","1",,,,"2018-07-25 18:53:15","503274"
"A2309F1W6LTPF6","cs_wg_full_v4_conf_pilot3","3TAYZSBPLL9EUIW3AZ6FC6PWG6TS28","68",NULL,"APRIL","7","NOVEMBER","5","1","145","0",,,,"2018-07-25 18:53:16","503275"
"A1GOGKHM9YENEF","cs_wg_full_v4_conf_pilot3","38YMOXR4MU0VJ0WDH6SJZ89T2OS6WJ","11",NULL,"JUNE","7","FEBRUARY","11","1","3451","1",,,,"2018-07-25 18:53:18","503276"
"A3G4USHY7MR4WW","cs_wg_full_v4_conf_pilot3","3AAPLD8UCCIJO8C0IKEC9FRK78QHT5","15",NULL,"JUNE","8","AUGUST","9","0","3785","0",,,,"2018-07-25 18:53:19","503277"
"A3BYOCOPKVRUZ","cs_wg_full_v4_conf_pilot3","3E47SOBEYQX2YML92G17KHSVJZ5CIA","38",NULL,"MAY","1","APRIL","7","0","301","0",,,,"2018-07-25 18:53:20","503278"
"A2V1VO04WIRL6N","cs_wg_full_v4_conf_pilot3","3HHRAGRYX86AWAP9OR4L2ON9PN19OL","33",NULL,"OCTOBER","6","JUNE","7","1","2157","1",,,,"2018-07-25 18:53:21","503279"
"A2309F1W6LTPF6","cs_wg_full_v4_conf_pilot3","3TAYZSBPLL9EUIW3AZ6FC6PWG6TS28","69",NULL,"SEPTEMBER","2","DECEMBER","10","0","321","0",,,,"2018-07-25 18:53:21","503280"
"A2K14P6B2UKYUJ","cs_wg_full_v4_conf_pilot3","3DH6GAKTYYQ1WFBOYC7IH3N4I0OZY1","18",NULL,"APRIL","11","MARCH","7","0","1439","1",,,,"2018-07-25 18:53:22","503281"
"A2309F1W6LTPF6","cs_wg_full_v4_conf_pilot3","3TAYZSBPLL9EUIW3AZ6FC6PWG6TS28","70",NULL,"AUGUST","3","APRIL","7","1","417","1",,,,"2018-07-25 18:53:25","503282"
"A3BYOCOPKVRUZ","cs_wg_full_v4_conf_pilot3","3E47SOBEYQX2YML92G17KHSVJZ5CIA","39",NULL,"APRIL","7","MARCH","11","1","470","1",,,,"2018-07-25 18:53:25","503283"
"A1GOGKHM9YENEF","cs_wg_full_v4_conf_pilot3","38YMOXR4MU0VJ0WDH6SJZ89T2OS6WJ","12",NULL,"JULY","1","NOVEMBER","5","0","1610","1",,,,"2018-07-25 18:53:26","503284"
"A2V1VO04WIRL6N","cs_wg_full_v4_conf_pilot3","3HHRAGRYX86AWAP9OR4L2ON9PN19OL","34",NULL,"JULY","9","APRIL","12","1","2198","1",,,,"2018-07-25 18:53:27","503285"
"A31LAW5AW4IUNG","cs_wg_full_v4_conf_pilot3","3Y54SXRO1LMOTUIKIJLBSUGA1GRUTI","3",NULL,"MARCH","4","OCTOBER","7","0","3881","0",,,,"2018-07-25 18:53:29","503286"
"A3G4USHY7MR4WW","cs_wg_full_v4_conf_pilot3","3AAPLD8UCCIJO8C0IKEC9FRK78QHT5","16",NULL,"JANUARY","10","FEBRUARY","1","0","1974","1",,,,"2018-07-25 18:53:30","503287"
"A3SAD1UI1JRMTG","cs_wg_full_v4_conf_pilot3","39ZSFO5CA8XUFRMF6P77QOT13E0UJD","18",NULL,"APRIL","3","SEPTEMBER","11","0","2024","1",,,,"2018-07-25 18:53:30","503288"
"A2309F1W6LTPF6","cs_wg_full_v4_conf_pilot3","3TAYZSBPLL9EUIW3AZ6FC6PWG6TS28","71",NULL,"FEBRUARY","12","JANUARY","11","1","306","0",,,,"2018-07-25 18:53:31","503289"
"A3BYOCOPKVRUZ","cs_wg_full_v4_conf_pilot3","3E47SOBEYQX2YML92G17KHSVJZ5CIA","40",NULL,"NOVEMBER","6","JUNE","10","0","634","0",,,,"2018-07-25 18:53:31","503290"
"A2K14P6B2UKYUJ","cs_wg_full_v4_conf_pilot3","3DH6GAKTYYQ1WFBOYC7IH3N4I0OZY1","19",NULL,"AUGUST","2","SEPTEMBER","10","0","1328","1",,,,"2018-07-25 18:53:31","503291"
"A2V1VO04WIRL6N","cs_wg_full_v4_conf_pilot3","3HHRAGRYX86AWAP9OR4L2ON9PN19OL","35",NULL,"JUNE","7","AUGUST","8","1","2666","1",,,,"2018-07-25 18:53:34","503292"
"A2309F1W6LTPF6","cs_wg_full_v4_conf_pilot3","3TAYZSBPLL9EUIW3AZ6FC6PWG6TS28","72",NULL,"JANUARY","11","SEPTEMBER","2","0","281","1",,,,"2018-07-25 18:53:35","503293"
"A3BYOCOPKVRUZ","cs_wg_full_v4_conf_pilot3","3E47SOBEYQX2YML92G17KHSVJZ5CIA","41",NULL,"JUNE","10","JANUARY","4","1","314","0",,,,"2018-07-25 18:53:37","503294"
"A3G4USHY7MR4WW","cs_wg_full_v4_conf_pilot3","3AAPLD8UCCIJO8C0IKEC9FRK78QHT5","17",NULL,"AUGUST","9","MARCH","12","0","1834","0",,,,"2018-07-25 18:53:38","503295"
"A31LAW5AW4IUNG","cs_wg_full_v4_conf_pilot3","3Y54SXRO1LMOTUIKIJLBSUGA1GRUTI","4",NULL,"JULY","1","AUGUST","10","1","3482","1",,,,"2018-07-25 18:53:39","503296"
"A2V1VO04WIRL6N","cs_wg_full_v4_conf_pilot3","3HHRAGRYX86AWAP9OR4L2ON9PN19OL","36",NULL,"JUNE","7","OCTOBER","6","0","1528","1",,,,"2018-07-25 18:53:40","503297"
"A2K14P6B2UKYUJ","cs_wg_full_v4_conf_pilot3","3DH6GAKTYYQ1WFBOYC7IH3N4I0OZY1","20",NULL,"JUNE","5","JANUARY","9","0","1480","1",,,,"2018-07-25 18:53:42","503298"
"A2309F1W6LTPF6","cs_wg_full_v4_conf_pilot3","3TAYZSBPLL9EUIW3AZ6FC6PWG6TS28","73",NULL,"MARCH","4","DECEMBER","10","1","1353","0",,,,"2018-07-25 18:53:42","503299"
"A3BYOCOPKVRUZ","cs_wg_full_v4_conf_pilot3","3E47SOBEYQX2YML92G17KHSVJZ5CIA","42",NULL,"SEPTEMBER","5","JUNE","10","0","601","0",,,,"2018-07-25 18:53:42","503300"
"A1GOGKHM9YENEF","cs_wg_full_v4_conf_pilot3","38YMOXR4MU0VJ0WDH6SJZ89T2OS6WJ","13",NULL,"JUNE","7","MARCH","10","1","12768","1",,,,"2018-07-25 18:53:46","503301"
"A2309F1W6LTPF6","cs_wg_full_v4_conf_pilot3","3TAYZSBPLL9EUIW3AZ6FC6PWG6TS28","74",NULL,"MAY","8","SEPTEMBER","2","1","240","0",,,,"2018-07-25 18:53:47","503302"
"A3G4USHY7MR4WW","cs_wg_full_v4_conf_pilot3","3AAPLD8UCCIJO8C0IKEC9FRK78QHT5","18",NULL,"MARCH","12","AUGUST","9","0","1414","1",,,,"2018-07-25 18:53:47","503303"
"A3SAD1UI1JRMTG","cs_wg_full_v4_conf_pilot3","39ZSFO5CA8XUFRMF6P77QOT13E0UJD","19",NULL,"APRIL","3","JANUARY","12","1","2649","1",,,,"2018-07-25 18:53:48","503304"
"A2V1VO04WIRL6N","cs_wg_full_v4_conf_pilot3","3HHRAGRYX86AWAP9OR4L2ON9PN19OL","37",NULL,"NOVEMBER","3","FEBRUARY","11","1","3651","1",,,,"2018-07-25 18:53:48","503305"
"A3BYOCOPKVRUZ","cs_wg_full_v4_conf_pilot3","3E47SOBEYQX2YML92G17KHSVJZ5CIA","43",NULL,"OCTOBER","9","DECEMBER","2","1","403","0",,,,"2018-07-25 18:53:48","503306"
"A31LAW5AW4IUNG","cs_wg_full_v4_conf_pilot3","3Y54SXRO1LMOTUIKIJLBSUGA1GRUTI","5",NULL,"MARCH","4","NOVEMBER","3","1","2184","0",,,,"2018-07-25 18:53:48","503307"
"A2309F1W6LTPF6","cs_wg_full_v4_conf_pilot3","3TAYZSBPLL9EUIW3AZ6FC6PWG6TS28","75",NULL,"JULY","6","JUNE","1","1","66","0",,,,"2018-07-25 18:53:51","503308"
"A2K14P6B2UKYUJ","cs_wg_full_v4_conf_pilot3","3DH6GAKTYYQ1WFBOYC7IH3N4I0OZY1","21",NULL,"APRIL","11","MAY","8","1","1188","1",,,,"2018-07-25 18:53:51","503309"
"A3BYOCOPKVRUZ","cs_wg_full_v4_conf_pilot3","3E47SOBEYQX2YML92G17KHSVJZ5CIA","44",NULL,"OCTOBER","9","AUGUST","3","0","1399","1",,,,"2018-07-25 18:53:54","503310"
"A2V1VO04WIRL6N","cs_wg_full_v4_conf_pilot3","3HHRAGRYX86AWAP9OR4L2ON9PN19OL","38",NULL,"APRIL","12","SEPTEMBER","4","0","2329","1",,,,"2018-07-25 18:53:55","503311"
"A2309F1W6LTPF6","cs_wg_full_v4_conf_pilot3","3TAYZSBPLL9EUIW3AZ6FC6PWG6TS28","76",NULL,"AUGUST","3","MARCH","4","0","272","0",,,,"2018-07-25 18:53:55","503312"
"A1GOGKHM9YENEF","cs_wg_full_v4_conf_pilot3","38YMOXR4MU0VJ0WDH6SJZ89T2OS6WJ","14",NULL,"APRIL","3","JULY","1","0","6476","1",,,,"2018-07-25 18:53:58","503313"
"A3SAD1UI1JRMTG","cs_wg_full_v4_conf_pilot3","39ZSFO5CA8XUFRMF6P77QOT13E0UJD","20",NULL,"JANUARY","12","FEBRUARY","10","0","2878","1",,,,"2018-07-25 18:53:58","503314"
"A3G4USHY7MR4WW","cs_wg_full_v4_conf_pilot3","3AAPLD8UCCIJO8C0IKEC9FRK78QHT5","19",NULL,"FEBRUARY","1","JULY","2","0","4856","0",,,,"2018-07-25 18:53:59","503315"
"A3BYOCOPKVRUZ","cs_wg_full_v4_conf_pilot3","3E47SOBEYQX2YML92G17KHSVJZ5CIA","45",NULL,"JUNE","10","NOVEMBER","6","0","428","1",,,,"2018-07-25 18:53:59","503316"
"A2309F1W6LTPF6","cs_wg_full_v4_conf_pilot3","3TAYZSBPLL9EUIW3AZ6FC6PWG6TS28","77",NULL,"MARCH","4","OCTOBER","9","0","425","0",,,,"2018-07-25 18:53:59","503317"
"A2309F1W6LTPF6","cs_wg_full_v4_conf_pilot3","3TAYZSBPLL9EUIW3AZ6FC6PWG6TS28","78",NULL,"JANUARY","11","JULY","6","0","184","1",,,,"2018-07-25 18:54:03","503318"
"A2K14P6B2UKYUJ","cs_wg_full_v4_conf_pilot3","3DH6GAKTYYQ1WFBOYC7IH3N4I0OZY1","22",NULL,"FEBRUARY","1","JANUARY","9","0","1593","1",,,,"2018-07-25 18:54:03","503319"
"A2V1VO04WIRL6N","cs_wg_full_v4_conf_pilot3","3HHRAGRYX86AWAP9OR4L2ON9PN19OL","39",NULL,"OCTOBER","6","JULY","9","1","4443","1",,,,"2018-07-25 18:54:04","503320"
"A3BYOCOPKVRUZ","cs_wg_full_v4_conf_pilot3","3E47SOBEYQX2YML92G17KHSVJZ5CIA","46",NULL,"DECEMBER","2","MARCH","11","0","809","0",,,,"2018-07-25 18:54:04","503321"
"A2309F1W6LTPF6","cs_wg_full_v4_conf_pilot3","3TAYZSBPLL9EUIW3AZ6FC6PWG6TS28","79",NULL,"MARCH","4","NOVEMBER","5","0","234","0",,,,"2018-07-25 18:54:07","503322"
"A3G4USHY7MR4WW","cs_wg_full_v4_conf_pilot3","3AAPLD8UCCIJO8C0IKEC9FRK78QHT5","20",NULL,"AUGUST","9","DECEMBER","7","0","1924","1",,,,"2018-07-25 18:54:07","503323"
"A31LAW5AW4IUNG","cs_wg_full_v4_conf_pilot3","3Y54SXRO1LMOTUIKIJLBSUGA1GRUTI","7",NULL,"APRIL","11","AUGUST","10","1","4360","0",,,,"2018-07-25 18:54:08","503324"
"A1GOGKHM9YENEF","cs_wg_full_v4_conf_pilot3","38YMOXR4MU0VJ0WDH6SJZ89T2OS6WJ","15",NULL,"MAY","12","FEBRUARY","11","1","3630","0",,,,"2018-07-25 18:54:09","503325"
"A3BYOCOPKVRUZ","cs_wg_full_v4_conf_pilot3","3E47SOBEYQX2YML92G17KHSVJZ5CIA","47",NULL,"OCTOBER","9","MARCH","11","1","1254","1",,,,"2018-07-25 18:54:10","503326"
"A2309F1W6LTPF6","cs_wg_full_v4_conf_pilot3","3TAYZSBPLL9EUIW3AZ6FC6PWG6TS28","80",NULL,"SEPTEMBER","2","NOVEMBER","5","0","1","0",,,,"2018-07-25 18:54:11","503327"
"A2V1VO04WIRL6N","cs_wg_full_v4_conf_pilot3","3HHRAGRYX86AWAP9OR4L2ON9PN19OL","40",NULL,"MAY","5","JANUARY","10","1","2955","1",,,,"2018-07-25 18:54:11","503328"
"A2K14P6B2UKYUJ","cs_wg_full_v4_conf_pilot3","3DH6GAKTYYQ1WFBOYC7IH3N4I0OZY1","23",NULL,"MARCH","7","NOVEMBER","4","0","2198","1",,,,"2018-07-25 18:54:13","503329"
"A2309F1W6LTPF6","cs_wg_full_v4_conf_pilot3","3TAYZSBPLL9EUIW3AZ6FC6PWG6TS28","81",NULL,"OCTOBER","9","JULY","6","1","16","0",,,,"2018-07-25 18:54:15","503330"
"A3BYOCOPKVRUZ","cs_wg_full_v4_conf_pilot3","3E47SOBEYQX2YML92G17KHSVJZ5CIA","48",NULL,"OCTOBER","9","JUNE","10","1","1301","1",,,,"2018-07-25 18:54:16","503331"
"A31LAW5AW4IUNG","cs_wg_full_v4_conf_pilot3","3Y54SXRO1LMOTUIKIJLBSUGA1GRUTI","8",NULL,"MAY","2","FEBRUARY","9","1","3624","1",,,,"2018-07-25 18:54:17","503332"
"A2309F1W6LTPF6","cs_wg_full_v4_conf_pilot3","3TAYZSBPLL9EUIW3AZ6FC6PWG6TS28","82",NULL,"MARCH","4","APRIL","7","0","248","0",,,,"2018-07-25 18:54:19","503333"
"A3SAD1UI1JRMTG","cs_wg_full_v4_conf_pilot3","39ZSFO5CA8XUFRMF6P77QOT13E0UJD","21",NULL,"NOVEMBER","9","OCTOBER","4","0","13682","1",,,,"2018-07-25 18:54:20","503334"
"A3BYOCOPKVRUZ","cs_wg_full_v4_conf_pilot3","3E47SOBEYQX2YML92G17KHSVJZ5CIA","49",NULL,"JUNE","10","AUGUST","3","0","674","1",,,,"2018-07-25 18:54:21","503335"
"A2K14P6B2UKYUJ","cs_wg_full_v4_conf_pilot3","3DH6GAKTYYQ1WFBOYC7IH3N4I0OZY1","24",NULL,"DECEMBER","6","JUNE","5","0","2009","1",,,,"2018-07-25 18:54:22","503336"
"A2V1VO04WIRL6N","cs_wg_full_v4_conf_pilot3","3HHRAGRYX86AWAP9OR4L2ON9PN19OL","41",NULL,"NOVEMBER","3","JULY","9","1","7477","1",,,,"2018-07-25 18:54:23","503337"
"A2309F1W6LTPF6","cs_wg_full_v4_conf_pilot3","3TAYZSBPLL9EUIW3AZ6FC6PWG6TS28","83",NULL,"JANUARY","11","DECEMBER","10","0","323","1",,,,"2018-07-25 18:54:23","503338"
"A31LAW5AW4IUNG","cs_wg_full_v4_conf_pilot3","3Y54SXRO1LMOTUIKIJLBSUGA1GRUTI","9",NULL,"SEPTEMBER","6","JUNE","12","1","1481","1",,,,"2018-07-25 18:54:24","503339"
"A1GOGKHM9YENEF","cs_wg_full_v4_conf_pilot3","38YMOXR4MU0VJ0WDH6SJZ89T2OS6WJ","16",NULL,"FEBRUARY","11","JUNE","7","0","10461","1",,,,"2018-07-25 18:54:26","503340"
"A3BYOCOPKVRUZ","cs_wg_full_v4_conf_pilot3","3E47SOBEYQX2YML92G17KHSVJZ5CIA","50",NULL,"JUNE","10","APRIL","7","0","811","1",,,,"2018-07-25 18:54:26","503341"
"A2309F1W6LTPF6","cs_wg_full_v4_conf_pilot3","3TAYZSBPLL9EUIW3AZ6FC6PWG6TS28","84",NULL,"JULY","6","JANUARY","11","0","257","0",,,,"2018-07-25 18:54:27","503342"
"A2V1VO04WIRL6N","cs_wg_full_v4_conf_pilot3","3HHRAGRYX86AWAP9OR4L2ON9PN19OL","42",NULL,"MARCH","1","OCTOBER","6","1","2658","1",,,,"2018-07-25 18:54:30","503343"
"A2K14P6B2UKYUJ","cs_wg_full_v4_conf_pilot3","3DH6GAKTYYQ1WFBOYC7IH3N4I0OZY1","25",NULL,"SEPTEMBER","10","OCTOBER","3","1","1347","1",,,,"2018-07-25 18:54:31","503344"
"A2309F1W6LTPF6","cs_wg_full_v4_conf_pilot3","3TAYZSBPLL9EUIW3AZ6FC6PWG6TS28","85",NULL,"MARCH","4","JULY","6","0","224","0",,,,"2018-07-25 18:54:31","503345"
"A3BYOCOPKVRUZ","cs_wg_full_v4_conf_pilot3","3E47SOBEYQX2YML92G17KHSVJZ5CIA","51",NULL,"OCTOBER","9","MAY","1","0","640","1",,,,"2018-07-25 18:54:32","503346"
"A3SAD1UI1JRMTG","cs_wg_full_v4_conf_pilot3","39ZSFO5CA8XUFRMF6P77QOT13E0UJD","22",NULL,"AUGUST","1","JULY","6","0","2093","1",,,,"2018-07-25 18:54:32","503347"
"A1GOGKHM9YENEF","cs_wg_full_v4_conf_pilot3","38YMOXR4MU0VJ0WDH6SJZ89T2OS6WJ","17",NULL,"DECEMBER","2","MARCH","10","1","1543","1",,,,"2018-07-25 18:54:34","503348"
"A2309F1W6LTPF6","cs_wg_full_v4_conf_pilot3","3TAYZSBPLL9EUIW3AZ6FC6PWG6TS28","86",NULL,"APRIL","7","JANUARY","11","1","137","1",,,,"2018-07-25 18:54:35","503349"
"A2V1VO04WIRL6N","cs_wg_full_v4_conf_pilot3","3HHRAGRYX86AWAP9OR4L2ON9PN19OL","43",NULL,"JUNE","7","DECEMBER","2","0","1975","1",,,,"2018-07-25 18:54:37","503350"
"A3BYOCOPKVRUZ","cs_wg_full_v4_conf_pilot3","3E47SOBEYQX2YML92G17KHSVJZ5CIA","52",NULL,"MARCH","11","JUNE","10","0","471","1",,,,"2018-07-25 18:54:37","503351"
"A31LAW5AW4IUNG","cs_wg_full_v4_conf_pilot3","3Y54SXRO1LMOTUIKIJLBSUGA1GRUTI","11",NULL,"JANUARY","8","SEPTEMBER","6","0","2265","1",,,,"2018-07-25 18:54:39","503352"
"A2309F1W6LTPF6","cs_wg_full_v4_conf_pilot3","3TAYZSBPLL9EUIW3AZ6FC6PWG6TS28","87",NULL,"FEBRUARY","12","OCTOBER","9","0","1209","1",,,,"2018-07-25 18:54:40","503353"
"A2K14P6B2UKYUJ","cs_wg_full_v4_conf_pilot3","3DH6GAKTYYQ1WFBOYC7IH3N4I0OZY1","26",NULL,"MAY","8","DECEMBER","6","0","3335","1",,,,"2018-07-25 18:54:41","503354"
"A2V1VO04WIRL6N","cs_wg_full_v4_conf_pilot3","3HHRAGRYX86AWAP9OR4L2ON9PN19OL","44",NULL,"OCTOBER","6","AUGUST","8","1","2091","1",,,,"2018-07-25 18:54:43","503355"
"A1GOGKHM9YENEF","cs_wg_full_v4_conf_pilot3","38YMOXR4MU0VJ0WDH6SJZ89T2OS6WJ","18",NULL,"AUGUST","4","JANUARY","9","1","1643","1",,,,"2018-07-25 18:54:43","503356"
"A2309F1W6LTPF6","cs_wg_full_v4_conf_pilot3","3TAYZSBPLL9EUIW3AZ6FC6PWG6TS28","88",NULL,"AUGUST","3","JULY","6","0","169","0",,,,"2018-07-25 18:54:44","503357"
"A3BYOCOPKVRUZ","cs_wg_full_v4_conf_pilot3","3E47SOBEYQX2YML92G17KHSVJZ5CIA","53",NULL,"AUGUST","3","JUNE","10","1","1105","1",,,,"2018-07-25 18:54:44","503358"
"A3G4USHY7MR4WW","cs_wg_full_v4_conf_pilot3","3AAPLD8UCCIJO8C0IKEC9FRK78QHT5","21",NULL,"JULY","2","FEBRUARY","1","0","32009","1",,,,"2018-07-25 18:54:45","503359"
"A31LAW5AW4IUNG","cs_wg_full_v4_conf_pilot3","3Y54SXRO1LMOTUIKIJLBSUGA1GRUTI","12",NULL,"JANUARY","8","MARCH","4","1","2105","1",,,,"2018-07-25 18:54:48","503360"
"A3SAD1UI1JRMTG","cs_wg_full_v4_conf_pilot3","39ZSFO5CA8XUFRMF6P77QOT13E0UJD","23",NULL,"FEBRUARY","10","OCTOBER","4","0","2909","1",,,,"2018-07-25 18:54:49","503361"
"A3BYOCOPKVRUZ","cs_wg_full_v4_conf_pilot3","3E47SOBEYQX2YML92G17KHSVJZ5CIA","54",NULL,"SEPTEMBER","5","MAY","1","0","814","1",,,,"2018-07-25 18:54:49","503362"
"A2309F1W6LTPF6","cs_wg_full_v4_conf_pilot3","3TAYZSBPLL9EUIW3AZ6FC6PWG6TS28","89",NULL,"JUNE","1","AUGUST","3","0","512","0",,,,"2018-07-25 18:54:50","503363"
"A2K14P6B2UKYUJ","cs_wg_full_v4_conf_pilot3","3DH6GAKTYYQ1WFBOYC7IH3N4I0OZY1","27",NULL,"MAY","8","JUNE","5","0","2320","1",,,,"2018-07-25 18:54:50","503364"
"A1GOGKHM9YENEF","cs_wg_full_v4_conf_pilot3","38YMOXR4MU0VJ0WDH6SJZ89T2OS6WJ","19",NULL,"DECEMBER","2","AUGUST","4","1","2658","1",,,,"2018-07-25 18:54:51","503365"
"A2V1VO04WIRL6N","cs_wg_full_v4_conf_pilot3","3HHRAGRYX86AWAP9OR4L2ON9PN19OL","45",NULL,"OCTOBER","6","MAY","5","1","2437","0",,,,"2018-07-25 18:54:53","503366"
"A3BYOCOPKVRUZ","cs_wg_full_v4_conf_pilot3","3E47SOBEYQX2YML92G17KHSVJZ5CIA","55",NULL,"MAY","1","OCTOBER","9","1","611","1",,,,"2018-07-25 18:54:54","503367"
"A2309F1W6LTPF6","cs_wg_full_v4_conf_pilot3","3TAYZSBPLL9EUIW3AZ6FC6PWG6TS28","90",NULL,"JUNE","1","OCTOBER","9","0","497","0",,,,"2018-07-25 18:54:55","503368"
"A3G4USHY7MR4WW","cs_wg_full_v4_conf_pilot3","3AAPLD8UCCIJO8C0IKEC9FRK78QHT5","22",NULL,"OCTOBER","4","FEBRUARY","1","1","3229","0",,,,"2018-07-25 18:54:56","503369"
"A31LAW5AW4IUNG","cs_wg_full_v4_conf_pilot3","3Y54SXRO1LMOTUIKIJLBSUGA1GRUTI","13",NULL,"OCTOBER","7","DECEMBER","5","1","3641","1",,,,"2018-07-25 18:54:56","503370"
"A2309F1W6LTPF6","cs_wg_full_v4_conf_pilot3","3TAYZSBPLL9EUIW3AZ6FC6PWG6TS28","91",NULL,"SEPTEMBER","2","APRIL","7","0","274","0",,,,"2018-07-25 18:54:59","503371"
"A2V1VO04WIRL6N","cs_wg_full_v4_conf_pilot3","3HHRAGRYX86AWAP9OR4L2ON9PN19OL","46",NULL,"MAY","5","AUGUST","8","1","1425","1",,,,"2018-07-25 18:54:59","503372"
"A1GOGKHM9YENEF","cs_wg_full_v4_conf_pilot3","38YMOXR4MU0VJ0WDH6SJZ89T2OS6WJ","20",NULL,"FEBRUARY","11","MARCH","10","0","1763","1",,,,"2018-07-25 18:55:00","503373"
"A2K14P6B2UKYUJ","cs_wg_full_v4_conf_pilot3","3DH6GAKTYYQ1WFBOYC7IH3N4I0OZY1","28",NULL,"JULY","12","JUNE","5","1","3057","1",,,,"2018-07-25 18:55:00","503374"
"A3BYOCOPKVRUZ","cs_wg_full_v4_conf_pilot3","3E47SOBEYQX2YML92G17KHSVJZ5CIA","56",NULL,"NOVEMBER","6","AUGUST","3","0","464","1",,,,"2018-07-25 18:55:03","503375"
"A2309F1W6LTPF6","cs_wg_full_v4_conf_pilot3","3TAYZSBPLL9EUIW3AZ6FC6PWG6TS28","92",NULL,"NOVEMBER","5","OCTOBER","9","0","289","0",,,,"2018-07-25 18:55:03","503376"
"A31LAW5AW4IUNG","cs_wg_full_v4_conf_pilot3","3Y54SXRO1LMOTUIKIJLBSUGA1GRUTI","14",NULL,"NOVEMBER","3","JANUARY","8","1","2481","1",,,,"2018-07-25 18:55:05","503377"
"A3SAD1UI1JRMTG","cs_wg_full_v4_conf_pilot3","39ZSFO5CA8XUFRMF6P77QOT13E0UJD","24",NULL,"OCTOBER","4","AUGUST","1","0","7256","1",,,,"2018-07-25 18:55:06","503378"
"A2V1VO04WIRL6N","cs_wg_full_v4_conf_pilot3","3HHRAGRYX86AWAP9OR4L2ON9PN19OL","47",NULL,"FEBRUARY","11","MARCH","1","0","2336","1",,,,"2018-07-25 18:55:06","503379"
"A3G4USHY7MR4WW","cs_wg_full_v4_conf_pilot3","3AAPLD8UCCIJO8C0IKEC9FRK78QHT5","23",NULL,"SEPTEMBER","6","DECEMBER","7","0","1048","0",,,,"2018-07-25 18:55:06","503380"
"A2309F1W6LTPF6","cs_wg_full_v4_conf_pilot3","3TAYZSBPLL9EUIW3AZ6FC6PWG6TS28","93",NULL,"DECEMBER","10","JANUARY","11","0","896","0",,,,"2018-07-25 18:55:08","503381"
"A3BYOCOPKVRUZ","cs_wg_full_v4_conf_pilot3","3E47SOBEYQX2YML92G17KHSVJZ5CIA","57",NULL,"OCTOBER","9","SEPTEMBER","5","1","1713","0",,,,"2018-07-25 18:55:09","503382"
"A2K14P6B2UKYUJ","cs_wg_full_v4_conf_pilot3","3DH6GAKTYYQ1WFBOYC7IH3N4I0OZY1","29",NULL,"SEPTEMBER","10","APRIL","11","0","2186","1",,,,"2018-07-25 18:55:11","503383"
"A1GOGKHM9YENEF","cs_wg_full_v4_conf_pilot3","38YMOXR4MU0VJ0WDH6SJZ89T2OS6WJ","21",NULL,"OCTOBER","8","APRIL","3","1","2084","0",,,,"2018-07-25 18:55:12","503384"
"A2309F1W6LTPF6","cs_wg_full_v4_conf_pilot3","3TAYZSBPLL9EUIW3AZ6FC6PWG6TS28","94",NULL,"APRIL","7","OCTOBER","9","0","257","0",,,,"2018-07-25 18:55:12","503385"
"A31LAW5AW4IUNG","cs_wg_full_v4_conf_pilot3","3Y54SXRO1LMOTUIKIJLBSUGA1GRUTI","15",NULL,"JULY","1","JANUARY","8","1","1328","1",,,,"2018-07-25 18:55:12","503386"
"A3BYOCOPKVRUZ","cs_wg_full_v4_conf_pilot3","3E47SOBEYQX2YML92G17KHSVJZ5CIA","58",NULL,"APRIL","7","FEBRUARY","8","0","577","0",,,,"2018-07-25 18:55:14","503387"
"A2V1VO04WIRL6N","cs_wg_full_v4_conf_pilot3","3HHRAGRYX86AWAP9OR4L2ON9PN19OL","48",NULL,"DECEMBER","2","JULY","9","1","4740","1",,,,"2018-07-25 18:55:15","503388"
"A3SAD1UI1JRMTG","cs_wg_full_v4_conf_pilot3","39ZSFO5CA8XUFRMF6P77QOT13E0UJD","25",NULL,"SEPTEMBER","11","MAY","5","0","2439","1",,,,"2018-07-25 18:55:18","503389"
"A1GOGKHM9YENEF","cs_wg_full_v4_conf_pilot3","38YMOXR4MU0VJ0WDH6SJZ89T2OS6WJ","22",NULL,"JANUARY","9","OCTOBER","8","0","3271","1",,,,"2018-07-25 18:55:20","503390"
"A3BYOCOPKVRUZ","cs_wg_full_v4_conf_pilot3","3E47SOBEYQX2YML92G17KHSVJZ5CIA","59",NULL,"JULY","12","OCTOBER","9","0","741","1",,,,"2018-07-25 18:55:20","503391"
"A2K14P6B2UKYUJ","cs_wg_full_v4_conf_pilot3","3DH6GAKTYYQ1WFBOYC7IH3N4I0OZY1","30",NULL,"SEPTEMBER","10","JULY","12","0","2283","1",,,,"2018-07-25 18:55:20","503392"
"A3G4USHY7MR4WW","cs_wg_full_v4_conf_pilot3","3AAPLD8UCCIJO8C0IKEC9FRK78QHT5","24",NULL,"MARCH","12","SEPTEMBER","6","1","3185","0",,,,"2018-07-25 18:55:21","503393"
"A31LAW5AW4IUNG","cs_wg_full_v4_conf_pilot3","3Y54SXRO1LMOTUIKIJLBSUGA1GRUTI","16",NULL,"OCTOBER","7","JANUARY","8","0","2914","0",,,,"2018-07-25 18:55:23","503394"
"A2V1VO04WIRL6N","cs_wg_full_v4_conf_pilot3","3HHRAGRYX86AWAP9OR4L2ON9PN19OL","49",NULL,"SEPTEMBER","4","NOVEMBER","3","0","5920","1",,,,"2018-07-25 18:55:26","503395"
"A1GOGKHM9YENEF","cs_wg_full_v4_conf_pilot3","38YMOXR4MU0VJ0WDH6SJZ89T2OS6WJ","23",NULL,"FEBRUARY","11","DECEMBER","2","0","1755","1",,,,"2018-07-25 18:55:26","503396"
"A3BYOCOPKVRUZ","cs_wg_full_v4_conf_pilot3","3E47SOBEYQX2YML92G17KHSVJZ5CIA","60",NULL,"JULY","12","APRIL","7","0","938","1",,,,"2018-07-25 18:55:27","503397"
"A3SAD1UI1JRMTG","cs_wg_full_v4_conf_pilot3","39ZSFO5CA8XUFRMF6P77QOT13E0UJD","26",NULL,"MAY","5","FEBRUARY","10","1","1999","1",,,,"2018-07-25 18:55:29","503398"
"A3G4USHY7MR4WW","cs_wg_full_v4_conf_pilot3","3AAPLD8UCCIJO8C0IKEC9FRK78QHT5","25",NULL,"FEBRUARY","1","MAY","3","1","2410","1",,,,"2018-07-25 18:55:29","503399"
"A31LAW5AW4IUNG","cs_wg_full_v4_conf_pilot3","3Y54SXRO1LMOTUIKIJLBSUGA1GRUTI","17",NULL,"JULY","1","FEBRUARY","9","0","888","1",,,,"2018-07-25 18:55:29","503400"
"A2K14P6B2UKYUJ","cs_wg_full_v4_conf_pilot3","3DH6GAKTYYQ1WFBOYC7IH3N4I0OZY1","31",NULL,"AUGUST","2","FEBRUARY","1","1","2934","1",,,,"2018-07-25 18:55:31","503401"
"A2V1VO04WIRL6N","cs_wg_full_v4_conf_pilot3","3HHRAGRYX86AWAP9OR4L2ON9PN19OL","50",NULL,"JUNE","7","MARCH","1","0","1572","1",,,,"2018-07-25 18:55:32","503402"
"A3BYOCOPKVRUZ","cs_wg_full_v4_conf_pilot3","3E47SOBEYQX2YML92G17KHSVJZ5CIA","61",NULL,"JULY","12","JUNE","10","0","505","1",,,,"2018-07-25 18:55:33","503403"
"A1GOGKHM9YENEF","cs_wg_full_v4_conf_pilot3","38YMOXR4MU0VJ0WDH6SJZ89T2OS6WJ","24",NULL,"SEPTEMBER","6","NOVEMBER","5","0","2908","1",,,,"2018-07-25 18:55:34","503404"
"A31LAW5AW4IUNG","cs_wg_full_v4_conf_pilot3","3Y54SXRO1LMOTUIKIJLBSUGA1GRUTI","18",NULL,"MAY","2","JULY","1","0","2751","1",,,,"2018-07-25 18:55:37","503405"
"A3SAD1UI1JRMTG","cs_wg_full_v4_conf_pilot3","39ZSFO5CA8XUFRMF6P77QOT13E0UJD","27",NULL,"APRIL","3","AUGUST","1","1","2602","1",,,,"2018-07-25 18:55:37","503406"
"A3G4USHY7MR4WW","cs_wg_full_v4_conf_pilot3","3AAPLD8UCCIJO8C0IKEC9FRK78QHT5","26",NULL,"JULY","2","JANUARY","10","1","2906","1",,,,"2018-07-25 18:55:38","503407"
"A3BYOCOPKVRUZ","cs_wg_full_v4_conf_pilot3","3E47SOBEYQX2YML92G17KHSVJZ5CIA","62",NULL,"SEPTEMBER","5","MARCH","11","0","896","0",,,,"2018-07-25 18:55:39","503408"
"A2V1VO04WIRL6N","cs_wg_full_v4_conf_pilot3","3HHRAGRYX86AWAP9OR4L2ON9PN19OL","51",NULL,"NOVEMBER","3","APRIL","12","1","4117","1",,,,"2018-07-25 18:55:40","503409"
"A2K14P6B2UKYUJ","cs_wg_full_v4_conf_pilot3","3DH6GAKTYYQ1WFBOYC7IH3N4I0OZY1","32",NULL,"JUNE","5","MAY","8","0","1656","1",,,,"2018-07-25 18:55:41","503410"
"A3BYOCOPKVRUZ","cs_wg_full_v4_conf_pilot3","3E47SOBEYQX2YML92G17KHSVJZ5CIA","63",NULL,"NOVEMBER","6","MARCH","11","1","347","1",,,,"2018-07-25 18:55:43","503411"
"A31LAW5AW4IUNG","cs_wg_full_v4_conf_pilot3","3Y54SXRO1LMOTUIKIJLBSUGA1GRUTI","19",NULL,"DECEMBER","5","NOVEMBER","3","0","1353","1",,,,"2018-07-25 18:55:44","503412"
"A1GOGKHM9YENEF","cs_wg_full_v4_conf_pilot3","38YMOXR4MU0VJ0WDH6SJZ89T2OS6WJ","25",NULL,"NOVEMBER","5","MAY","12","1","2649","1",,,,"2018-07-25 18:55:45","503413"
"A2V1VO04WIRL6N","cs_wg_full_v4_conf_pilot3","3HHRAGRYX86AWAP9OR4L2ON9PN19OL","52",NULL,"APRIL","12","JULY","9","0","1271","1",,,,"2018-07-25 18:55:46","503414"
"A3SAD1UI1JRMTG","cs_wg_full_v4_conf_pilot3","39ZSFO5CA8XUFRMF6P77QOT13E0UJD","28",NULL,"JANUARY","12","MARCH","2","0","1392","1",,,,"2018-07-25 18:55:46","503415"
"A3BYOCOPKVRUZ","cs_wg_full_v4_conf_pilot3","3E47SOBEYQX2YML92G17KHSVJZ5CIA","64",NULL,"MARCH","11","JULY","12","0","448","0",,,,"2018-07-25 18:55:48","503416"
"A3G4USHY7MR4WW","cs_wg_full_v4_conf_pilot3","3AAPLD8UCCIJO8C0IKEC9FRK78QHT5","27",NULL,"FEBRUARY","1","DECEMBER","7","0","3913","0",,,,"2018-07-25 18:55:49","503417"
"A2K14P6B2UKYUJ","cs_wg_full_v4_conf_pilot3","3DH6GAKTYYQ1WFBOYC7IH3N4I0OZY1","33",NULL,"MAY","8","AUGUST","2","0","1724","1",,,,"2018-07-25 18:55:49","503418"
"A2V1VO04WIRL6N","cs_wg_full_v4_conf_pilot3","3HHRAGRYX86AWAP9OR4L2ON9PN19OL","53",NULL,"NOVEMBER","3","OCTOBER","6","1","3476","1",,,,"2018-07-25 18:55:53","503419"
"A3BYOCOPKVRUZ","cs_wg_full_v4_conf_pilot3","3E47SOBEYQX2YML92G17KHSVJZ5CIA","65",NULL,"AUGUST","3","FEBRUARY","8","1","713","1",,,,"2018-07-25 18:55:54","503420"
"A1GOGKHM9YENEF","cs_wg_full_v4_conf_pilot3","38YMOXR4MU0VJ0WDH6SJZ89T2OS6WJ","26",NULL,"JANUARY","9","FEBRUARY","11","1","3984","1",,,,"2018-07-25 18:55:54","503421"
"A3SAD1UI1JRMTG","cs_wg_full_v4_conf_pilot3","39ZSFO5CA8XUFRMF6P77QOT13E0UJD","29",NULL,"MAY","5","JANUARY","12","0","2073","1",,,,"2018-07-25 18:55:56","503422"
"A2K14P6B2UKYUJ","cs_wg_full_v4_conf_pilot3","3DH6GAKTYYQ1WFBOYC7IH3N4I0OZY1","34",NULL,"APRIL","11","JANUARY","9","0","1541","1",,,,"2018-07-25 18:55:58","503423"
"A3BYOCOPKVRUZ","cs_wg_full_v4_conf_pilot3","3E47SOBEYQX2YML92G17KHSVJZ5CIA","66",NULL,"JANUARY","4","APRIL","7","0","578","0",,,,"2018-07-25 18:56:00","503424"
"A2V1VO04WIRL6N","cs_wg_full_v4_conf_pilot3","3HHRAGRYX86AWAP9OR4L2ON9PN19OL","54",NULL,"OCTOBER","6","SEPTEMBER","4","0","2882","1",,,,"2018-07-25 18:56:01","503425"
"A1GOGKHM9YENEF","cs_wg_full_v4_conf_pilot3","38YMOXR4MU0VJ0WDH6SJZ89T2OS6WJ","27",NULL,"MARCH","10","OCTOBER","8","0","2389","1",,,,"2018-07-25 18:56:02","503426"
"A3G4USHY7MR4WW","cs_wg_full_v4_conf_pilot3","3AAPLD8UCCIJO8C0IKEC9FRK78QHT5","28",NULL,"MAY","3","MARCH","12","1","3906","1",,,,"2018-07-25 18:56:02","503427"
"A3SAD1UI1JRMTG","cs_wg_full_v4_conf_pilot3","39ZSFO5CA8XUFRMF6P77QOT13E0UJD","30",NULL,"JULY","6","DECEMBER","7","0","1537","1",,,,"2018-07-25 18:56:03","503428"
"A2K14P6B2UKYUJ","cs_wg_full_v4_conf_pilot3","3DH6GAKTYYQ1WFBOYC7IH3N4I0OZY1","35",NULL,"FEBRUARY","1","APRIL","11","1","1968","1",,,,"2018-07-25 18:56:07","503429"
"A2V1VO04WIRL6N","cs_wg_full_v4_conf_pilot3","3HHRAGRYX86AWAP9OR4L2ON9PN19OL","55",NULL,"JUNE","7","SEPTEMBER","4","0","2311","1",,,,"2018-07-25 18:56:08","503430"
"A3BYOCOPKVRUZ","cs_wg_full_v4_conf_pilot3","3E47SOBEYQX2YML92G17KHSVJZ5CIA","67",NULL,"SEPTEMBER","5","OCTOBER","9","0","4201","0",,,,"2018-07-25 18:56:09","503431"
"A3G4USHY7MR4WW","cs_wg_full_v4_conf_pilot3","3AAPLD8UCCIJO8C0IKEC9FRK78QHT5","29",NULL,"JULY","2","JUNE","8","1","3396","1",,,,"2018-07-25 18:56:12","503432"
"A3SAD1UI1JRMTG","cs_wg_full_v4_conf_pilot3","39ZSFO5CA8XUFRMF6P77QOT13E0UJD","31",NULL,"MAY","5","JUNE","8","1","1179","1",,,,"2018-07-25 18:56:14","503433"
"A2V1VO04WIRL6N","cs_wg_full_v4_conf_pilot3","3HHRAGRYX86AWAP9OR4L2ON9PN19OL","56",NULL,"OCTOBER","6","APRIL","12","1","3375","1",,,,"2018-07-25 18:56:15","503434"
"A2K14P6B2UKYUJ","cs_wg_full_v4_conf_pilot3","3DH6GAKTYYQ1WFBOYC7IH3N4I0OZY1","36",NULL,"JULY","12","JANUARY","9","0","2213","1",,,,"2018-07-25 18:56:16","503435"
"A31LAW5AW4IUNG","cs_wg_full_v4_conf_pilot3","3Y54SXRO1LMOTUIKIJLBSUGA1GRUTI","24",NULL,"DECEMBER","5","FEBRUARY","9","1","864","1",,,,"2018-07-25 18:56:16","503436"
"A3BYOCOPKVRUZ","cs_wg_full_v4_conf_pilot3","3E47SOBEYQX2YML92G17KHSVJZ5CIA","68",NULL,"MAY","1","JANUARY","4","1","2062","1",,,,"2018-07-25 18:56:17","503437"
"A31LAW5AW4IUNG","cs_wg_full_v4_conf_pilot3","3Y54SXRO1LMOTUIKIJLBSUGA1GRUTI","23",NULL,"DECEMBER","5","OCTOBER","7","0","1360","1",,,,"2018-07-25 18:56:21","503438"
"A31LAW5AW4IUNG","cs_wg_full_v4_conf_pilot3","3Y54SXRO1LMOTUIKIJLBSUGA1GRUTI","25",NULL,"MARCH","4","AUGUST","10","1","784","1",,,,"2018-07-25 18:56:22","503439"
"A3SAD1UI1JRMTG","cs_wg_full_v4_conf_pilot3","39ZSFO5CA8XUFRMF6P77QOT13E0UJD","32",NULL,"JUNE","8","MARCH","2","1","1654","1",,,,"2018-07-25 18:56:22","503440"
"A3BYOCOPKVRUZ","cs_wg_full_v4_conf_pilot3","3E47SOBEYQX2YML92G17KHSVJZ5CIA","69",NULL,"JUNE","10","MAY","1","0","904","1",,,,"2018-07-25 18:56:23","503441"
"A3G4USHY7MR4WW","cs_wg_full_v4_conf_pilot3","3AAPLD8UCCIJO8C0IKEC9FRK78QHT5","30",NULL,"JUNE","8","SEPTEMBER","6","0","3694","1",,,,"2018-07-25 18:56:25","503442"
"A2K14P6B2UKYUJ","cs_wg_full_v4_conf_pilot3","3DH6GAKTYYQ1WFBOYC7IH3N4I0OZY1","37",NULL,"JANUARY","9","AUGUST","2","0","4113","1",,,,"2018-07-25 18:56:26","503443"
"A1GOGKHM9YENEF","cs_wg_full_v4_conf_pilot3","38YMOXR4MU0VJ0WDH6SJZ89T2OS6WJ","28",NULL,"AUGUST","4","NOVEMBER","5","0","19418","0",,,,"2018-07-25 18:56:27","503444"
"A3BYOCOPKVRUZ","cs_wg_full_v4_conf_pilot3","3E47SOBEYQX2YML92G17KHSVJZ5CIA","70",NULL,"DECEMBER","2","SEPTEMBER","5","0","664","0",,,,"2018-07-25 18:56:28","503445"
"A31LAW5AW4IUNG","cs_wg_full_v4_conf_pilot3","3Y54SXRO1LMOTUIKIJLBSUGA1GRUTI","26",NULL,"JUNE","12","AUGUST","10","1","617","0",,,,"2018-07-25 18:56:29","503446"
"A3SAD1UI1JRMTG","cs_wg_full_v4_conf_pilot3","39ZSFO5CA8XUFRMF6P77QOT13E0UJD","33",NULL,"FEBRUARY","10","NOVEMBER","9","1","1679","1",,,,"2018-07-25 18:56:30","503447"
"A3BYOCOPKVRUZ","cs_wg_full_v4_conf_pilot3","3E47SOBEYQX2YML92G17KHSVJZ5CIA","71",NULL,"JUNE","10","FEBRUARY","8","0","644","1",,,,"2018-07-25 18:56:33","503448"
"A2V1VO04WIRL6N","cs_wg_full_v4_conf_pilot3","3HHRAGRYX86AWAP9OR4L2ON9PN19OL","57",NULL,"MAY","5","JUNE","7","0","13115","0",,,,"2018-07-25 18:56:33","503449"
"A3G4USHY7MR4WW","cs_wg_full_v4_conf_pilot3","3AAPLD8UCCIJO8C0IKEC9FRK78QHT5","31",NULL,"FEBRUARY","1","NOVEMBER","5","1","3002","1",,,,"2018-07-25 18:56:34","503450"
"A2K14P6B2UKYUJ","cs_wg_full_v4_conf_pilot3","3DH6GAKTYYQ1WFBOYC7IH3N4I0OZY1","38",NULL,"AUGUST","2","OCTOBER","3","0","1769","1",,,,"2018-07-25 18:56:35","503451"
"A1GOGKHM9YENEF","cs_wg_full_v4_conf_pilot3","38YMOXR4MU0VJ0WDH6SJZ89T2OS6WJ","29",NULL,"NOVEMBER","5","JANUARY","9","1","3164","1",,,,"2018-07-25 18:56:36","503452"
"A31LAW5AW4IUNG","cs_wg_full_v4_conf_pilot3","3Y54SXRO1LMOTUIKIJLBSUGA1GRUTI","27",NULL,"FEBRUARY","9","MARCH","4","0","1921","1",,,,"2018-07-25 18:56:36","503453"
"A3BYOCOPKVRUZ","cs_wg_full_v4_conf_pilot3","3E47SOBEYQX2YML92G17KHSVJZ5CIA","72",NULL,"SEPTEMBER","5","JULY","12","1","1169","1",,,,"2018-07-25 18:56:39","503454"
"A3SAD1UI1JRMTG","cs_wg_full_v4_conf_pilot3","39ZSFO5CA8XUFRMF6P77QOT13E0UJD","34",NULL,"MAY","5","SEPTEMBER","11","0","1885","1",,,,"2018-07-25 18:56:39","503455"
"A2V1VO04WIRL6N","cs_wg_full_v4_conf_pilot3","3HHRAGRYX86AWAP9OR4L2ON9PN19OL","58",NULL,"FEBRUARY","11","SEPTEMBER","4","0","2203","1",,,,"2018-07-25 18:56:41","503456"
"A3BYOCOPKVRUZ","cs_wg_full_v4_conf_pilot3","3E47SOBEYQX2YML92G17KHSVJZ5CIA","73",NULL,"DECEMBER","2","APRIL","7","0","881","0",,,,"2018-07-25 18:56:44","503457"
"A1GOGKHM9YENEF","cs_wg_full_v4_conf_pilot3","38YMOXR4MU0VJ0WDH6SJZ89T2OS6WJ","30",NULL,"MAY","12","MARCH","10","0","2950","1",,,,"2018-07-25 18:56:44","503458"
"A2K14P6B2UKYUJ","cs_wg_full_v4_conf_pilot3","3DH6GAKTYYQ1WFBOYC7IH3N4I0OZY1","39",NULL,"SEPTEMBER","10","JANUARY","9","0","3087","1",,,,"2018-07-25 18:56:45","503459"
"A2V1VO04WIRL6N","cs_wg_full_v4_conf_pilot3","3HHRAGRYX86AWAP9OR4L2ON9PN19OL","59",NULL,"MARCH","1","MAY","5","1","1743","1",,,,"2018-07-25 18:56:47","503460"
"A31LAW5AW4IUNG","cs_wg_full_v4_conf_pilot3","3Y54SXRO1LMOTUIKIJLBSUGA1GRUTI","28",NULL,"MAY","2","AUGUST","10","0","1608","0",,,,"2018-07-25 18:56:47","503461"
"A3SAD1UI1JRMTG","cs_wg_full_v4_conf_pilot3","39ZSFO5CA8XUFRMF6P77QOT13E0UJD","35",NULL,"OCTOBER","4","NOVEMBER","9","1","1807","1",,,,"2018-07-25 18:56:49","503462"
"A3BYOCOPKVRUZ","cs_wg_full_v4_conf_pilot3","3E47SOBEYQX2YML92G17KHSVJZ5CIA","74",NULL,"MARCH","11","FEBRUARY","8","1","701","0",,,,"2018-07-25 18:56:50","503463"
"A2V1VO04WIRL6N","cs_wg_full_v4_conf_pilot3","3HHRAGRYX86AWAP9OR4L2ON9PN19OL","60",NULL,"MAY","5","MARCH","1","0","2114","1",,,,"2018-07-25 18:56:53","503464"
"A2K14P6B2UKYUJ","cs_wg_full_v4_conf_pilot3","3DH6GAKTYYQ1WFBOYC7IH3N4I0OZY1","40",NULL,"JULY","12","MAY","8","1","1972","1",,,,"2018-07-25 18:56:53","503465"
"A31LAW5AW4IUNG","cs_wg_full_v4_conf_pilot3","3Y54SXRO1LMOTUIKIJLBSUGA1GRUTI","29",NULL,"APRIL","11","FEBRUARY","9","1","1512","0",,,,"2018-07-25 18:56:54","503466"
"A3BYOCOPKVRUZ","cs_wg_full_v4_conf_pilot3","3E47SOBEYQX2YML92G17KHSVJZ5CIA","75",NULL,"APRIL","7","DECEMBER","2","0","704","1",,,,"2018-07-25 18:56:55","503467"
"A3G4USHY7MR4WW","cs_wg_full_v4_conf_pilot3","3AAPLD8UCCIJO8C0IKEC9FRK78QHT5","32",NULL,"JANUARY","10","JUNE","8","1","2633","1",,,,"2018-07-25 18:56:56","503468"
"A1GOGKHM9YENEF","cs_wg_full_v4_conf_pilot3","38YMOXR4MU0VJ0WDH6SJZ89T2OS6WJ","31",NULL,"NOVEMBER","5","OCTOBER","8","0","8547","0",,,,"2018-07-25 18:56:58","503469"
"A3SAD1UI1JRMTG","cs_wg_full_v4_conf_pilot3","39ZSFO5CA8XUFRMF6P77QOT13E0UJD","36",NULL,"AUGUST","1","MARCH","2","1","1582","1",,,,"2018-07-25 18:56:58","503470"
"A2V1VO04WIRL6N","cs_wg_full_v4_conf_pilot3","3HHRAGRYX86AWAP9OR4L2ON9PN19OL","61",NULL,"DECEMBER","2","JUNE","7","1","1996","1",,,,"2018-07-25 18:57:00","503471"
"A2K14P6B2UKYUJ","cs_wg_full_v4_conf_pilot3","3DH6GAKTYYQ1WFBOYC7IH3N4I0OZY1","41",NULL,"JULY","12","AUGUST","2","0","1933","1",,,,"2018-07-25 18:57:02","503472"
"A3BYOCOPKVRUZ","cs_wg_full_v4_conf_pilot3","3E47SOBEYQX2YML92G17KHSVJZ5CIA","76",NULL,"MAY","1","SEPTEMBER","5","0","761","0",,,,"2018-07-25 18:57:03","503473"
"A3SAD1UI1JRMTG","cs_wg_full_v4_conf_pilot3","39ZSFO5CA8XUFRMF6P77QOT13E0UJD","37",NULL,"MARCH","2","JUNE","8","1","1331","1",,,,"2018-07-25 18:57:05","503474"
"A1GOGKHM9YENEF","cs_wg_full_v4_conf_pilot3","38YMOXR4MU0VJ0WDH6SJZ89T2OS6WJ","32",NULL,"JANUARY","9","JULY","1","0","2501","1",,,,"2018-07-25 18:57:06","503475"
"A3G4USHY7MR4WW","cs_wg_full_v4_conf_pilot3","3AAPLD8UCCIJO8C0IKEC9FRK78QHT5","33",NULL,"APRIL","11","JANUARY","10","0","3114","1",,,,"2018-07-25 18:57:06","503476"
"A31LAW5AW4IUNG","cs_wg_full_v4_conf_pilot3","3Y54SXRO1LMOTUIKIJLBSUGA1GRUTI","31",NULL,"APRIL","11","DECEMBER","5","1","1536","0",,,,"2018-07-25 18:57:10","503477"
"A2K14P6B2UKYUJ","cs_wg_full_v4_conf_pilot3","3DH6GAKTYYQ1WFBOYC7IH3N4I0OZY1","42",NULL,"MARCH","7","JUNE","5","0","1919","1",,,,"2018-07-25 18:57:11","503478"
"A3BYOCOPKVRUZ","cs_wg_full_v4_conf_pilot3","3E47SOBEYQX2YML92G17KHSVJZ5CIA","77",NULL,"AUGUST","3","SEPTEMBER","5","1","470","1",,,,"2018-07-25 18:57:13","503479"
"A3BYOCOPKVRUZ","cs_wg_full_v4_conf_pilot3","3E47SOBEYQX2YML92G17KHSVJZ5CIA","78",NULL,"APRIL","7","NOVEMBER","6","0","1047","1",,,,"2018-07-25 18:57:15","503480"
"A3SAD1UI1JRMTG","cs_wg_full_v4_conf_pilot3","39ZSFO5CA8XUFRMF6P77QOT13E0UJD","38",NULL,"DECEMBER","7","JUNE","8","1","2105","1",,,,"2018-07-25 18:57:16","503481"
"A2V1VO04WIRL6N","cs_wg_full_v4_conf_pilot3","3HHRAGRYX86AWAP9OR4L2ON9PN19OL","62",NULL,"NOVEMBER","3","MAY","5","1","11913","1",,,,"2018-07-25 18:57:17","503482"
"A31LAW5AW4IUNG","cs_wg_full_v4_conf_pilot3","3Y54SXRO1LMOTUIKIJLBSUGA1GRUTI","32",NULL,"NOVEMBER","3","AUGUST","10","0","1160","1",,,,"2018-07-25 18:57:17","503483"
"A3BYOCOPKVRUZ","cs_wg_full_v4_conf_pilot3","3E47SOBEYQX2YML92G17KHSVJZ5CIA","79",NULL,"APRIL","7","MAY","1","1","1063","0",,,,"2018-07-25 18:57:18","503484"
"A1GOGKHM9YENEF","cs_wg_full_v4_conf_pilot3","38YMOXR4MU0VJ0WDH6SJZ89T2OS6WJ","33",NULL,"NOVEMBER","5","SEPTEMBER","6","0","3771","0",,,,"2018-07-25 18:57:20","503485"
"A2K14P6B2UKYUJ","cs_wg_full_v4_conf_pilot3","3DH6GAKTYYQ1WFBOYC7IH3N4I0OZY1","43",NULL,"NOVEMBER","4","JANUARY","9","0","2272","1",,,,"2018-07-25 18:57:21","503486"
"A2V1VO04WIRL6N","cs_wg_full_v4_conf_pilot3","3HHRAGRYX86AWAP9OR4L2ON9PN19OL","63",NULL,"MAY","5","OCTOBER","6","1","1592","1",,,,"2018-07-25 18:57:22","503487"
"A3SAD1UI1JRMTG","cs_wg_full_v4_conf_pilot3","39ZSFO5CA8XUFRMF6P77QOT13E0UJD","39",NULL,"OCTOBER","4","JANUARY","12","0","1681","1",,,,"2018-07-25 18:57:23","503488"
"A31LAW5AW4IUNG","cs_wg_full_v4_conf_pilot3","3Y54SXRO1LMOTUIKIJLBSUGA1GRUTI","33",NULL,"JANUARY","8","AUGUST","10","0","688","0",,,,"2018-07-25 18:57:24","503489"
"A3BYOCOPKVRUZ","cs_wg_full_v4_conf_pilot3","3E47SOBEYQX2YML92G17KHSVJZ5CIA","80",NULL,"NOVEMBER","6","MAY","1","0","3393","1",,,,"2018-07-25 18:57:25","503490"
"A2V1VO04WIRL6N","cs_wg_full_v4_conf_pilot3","3HHRAGRYX86AWAP9OR4L2ON9PN19OL","64",NULL,"SEPTEMBER","4","APRIL","12","1","1868","1",,,,"2018-07-25 18:57:28","503491"
"A1GOGKHM9YENEF","cs_wg_full_v4_conf_pilot3","38YMOXR4MU0VJ0WDH6SJZ89T2OS6WJ","34",NULL,"MAY","12","APRIL","3","1","2571","0",,,,"2018-07-25 18:57:29","503492"
"A3G4USHY7MR4WW","cs_wg_full_v4_conf_pilot3","3AAPLD8UCCIJO8C0IKEC9FRK78QHT5","34",NULL,"DECEMBER","7","APRIL","11","1","7821","1",,,,"2018-07-25 18:57:30","503493"
"A2K14P6B2UKYUJ","cs_wg_full_v4_conf_pilot3","3DH6GAKTYYQ1WFBOYC7IH3N4I0OZY1","44",NULL,"FEBRUARY","1","MARCH","7","0","2603","1",,,,"2018-07-25 18:57:30","503494"
"A3SAD1UI1JRMTG","cs_wg_full_v4_conf_pilot3","39ZSFO5CA8XUFRMF6P77QOT13E0UJD","40",NULL,"APRIL","3","DECEMBER","7","0","1248","1",,,,"2018-07-25 18:57:31","503495"
"A31LAW5AW4IUNG","cs_wg_full_v4_conf_pilot3","3Y54SXRO1LMOTUIKIJLBSUGA1GRUTI","34",NULL,"DECEMBER","5","JUNE","12","1","2584","1",,,,"2018-07-25 18:57:32","503496"
"A1GOGKHM9YENEF","cs_wg_full_v4_conf_pilot3","38YMOXR4MU0VJ0WDH6SJZ89T2OS6WJ","35",NULL,"NOVEMBER","5","AUGUST","4","0","1935","1",,,,"2018-07-25 18:57:38","503497"
"A2V1VO04WIRL6N","cs_wg_full_v4_conf_pilot3","3HHRAGRYX86AWAP9OR4L2ON9PN19OL","65",NULL,"AUGUST","8","MARCH","1","0","5997","1",,,,"2018-07-25 18:57:39","503498"
"A2K14P6B2UKYUJ","cs_wg_full_v4_conf_pilot3","3DH6GAKTYYQ1WFBOYC7IH3N4I0OZY1","45",NULL,"MAY","8","OCTOBER","3","0","1555","1",,,,"2018-07-25 18:57:40","503499"
"A31LAW5AW4IUNG","cs_wg_full_v4_conf_pilot3","3Y54SXRO1LMOTUIKIJLBSUGA1GRUTI","35",NULL,"JUNE","12","NOVEMBER","3","0","2447","1",,,,"2018-07-25 18:57:41","503500"
"A3SAD1UI1JRMTG","cs_wg_full_v4_conf_pilot3","39ZSFO5CA8XUFRMF6P77QOT13E0UJD","41",NULL,"APRIL","3","JULY","6","1","966","1",,,,"2018-07-25 18:57:43","503501"
"A1GOGKHM9YENEF","cs_wg_full_v4_conf_pilot3","38YMOXR4MU0VJ0WDH6SJZ89T2OS6WJ","36",NULL,"AUGUST","4","JUNE","7","1","3135","1",,,,"2018-07-25 18:57:47","503502"
"A3G4USHY7MR4WW","cs_wg_full_v4_conf_pilot3","3AAPLD8UCCIJO8C0IKEC9FRK78QHT5","35",NULL,"OCTOBER","4","JULY","2","0","11131","1",,,,"2018-07-25 18:57:47","503503"
"A31LAW5AW4IUNG","cs_wg_full_v4_conf_pilot3","3Y54SXRO1LMOTUIKIJLBSUGA1GRUTI","36",NULL,"JUNE","12","JULY","1","1","1529","1",,,,"2018-07-25 18:57:48","503504"
"A3BYOCOPKVRUZ","cs_wg_full_v4_conf_pilot3","3E47SOBEYQX2YML92G17KHSVJZ5CIA","81",NULL,"FEBRUARY","8","APRIL","7","0","4193","1",,,,"2018-07-25 18:57:48","503505"
"A2K14P6B2UKYUJ","cs_wg_full_v4_conf_pilot3","3DH6GAKTYYQ1WFBOYC7IH3N4I0OZY1","46",NULL,"JUNE","5","OCTOBER","3","0","1936","1",,,,"2018-07-25 18:57:49","503506"
"A2V1VO04WIRL6N","cs_wg_full_v4_conf_pilot3","3HHRAGRYX86AWAP9OR4L2ON9PN19OL","66",NULL,"JUNE","7","JULY","9","1","4577","1",,,,"2018-07-25 18:57:49","503507"
"A3BYOCOPKVRUZ","cs_wg_full_v4_conf_pilot3","3E47SOBEYQX2YML92G17KHSVJZ5CIA","82",NULL,"APRIL","7","JANUARY","4","0","602","1",,,,"2018-07-25 18:57:51","503508"
"A3SAD1UI1JRMTG","cs_wg_full_v4_conf_pilot3","39ZSFO5CA8XUFRMF6P77QOT13E0UJD","42",NULL,"SEPTEMBER","11","JULY","6","0","1790","1",,,,"2018-07-25 18:57:51","503509"
"A1GOGKHM9YENEF","cs_wg_full_v4_conf_pilot3","38YMOXR4MU0VJ0WDH6SJZ89T2OS6WJ","37",NULL,"FEBRUARY","11","AUGUST","4","0","1471","1",,,,"2018-07-25 18:57:53","503510"
"A3BYOCOPKVRUZ","cs_wg_full_v4_conf_pilot3","3E47SOBEYQX2YML92G17KHSVJZ5CIA","83",NULL,"MAY","1","NOVEMBER","6","0","720","0",,,,"2018-07-25 18:57:53","503511"
"A3BYOCOPKVRUZ","cs_wg_full_v4_conf_pilot3","3E47SOBEYQX2YML92G17KHSVJZ5CIA","84",NULL,"SEPTEMBER","5","AUGUST","3","1","952","0",,,,"2018-07-25 18:57:54","503512"
"A3BYOCOPKVRUZ","cs_wg_full_v4_conf_pilot3","3E47SOBEYQX2YML92G17KHSVJZ5CIA","85",NULL,"JULY","12","JANUARY","4","0","548","1",,,,"2018-07-25 18:57:55","503513"
"A3G4USHY7MR4WW","cs_wg_full_v4_conf_pilot3","3AAPLD8UCCIJO8C0IKEC9FRK78QHT5","36",NULL,"MAY","3","OCTOBER","4","0","2667","0",,,,"2018-07-25 18:57:56","503514"
"A2V1VO04WIRL6N","cs_wg_full_v4_conf_pilot3","3HHRAGRYX86AWAP9OR4L2ON9PN19OL","67",NULL,"JANUARY","10","APRIL","12","1","3555","1",,,,"2018-07-25 18:57:57","503515"
"A2K14P6B2UKYUJ","cs_wg_full_v4_conf_pilot3","3DH6GAKTYYQ1WFBOYC7IH3N4I0OZY1","47",NULL,"JUNE","5","SEPTEMBER","10","1","2066","1",,,,"2018-07-25 18:57:57","503516"
"A3BYOCOPKVRUZ","cs_wg_full_v4_conf_pilot3","3E47SOBEYQX2YML92G17KHSVJZ5CIA","86",NULL,"FEBRUARY","8","SEPTEMBER","5","1","1610","0",,,,"2018-07-25 18:57:59","503517"
"A3SAD1UI1JRMTG","cs_wg_full_v4_conf_pilot3","39ZSFO5CA8XUFRMF6P77QOT13E0UJD","43",NULL,"DECEMBER","7","MARCH","2","1","1628","1",,,,"2018-07-25 18:57:59","503518"
"A1GOGKHM9YENEF","cs_wg_full_v4_conf_pilot3","38YMOXR4MU0VJ0WDH6SJZ89T2OS6WJ","38",NULL,"NOVEMBER","5","APRIL","3","1","2101","0",,,,"2018-07-25 18:58:01","503519"
"A3BYOCOPKVRUZ","cs_wg_full_v4_conf_pilot3","3E47SOBEYQX2YML92G17KHSVJZ5CIA","87",NULL,"OCTOBER","9","APRIL","7","0","938","1",,,,"2018-07-25 18:58:04","503520"
"A2V1VO04WIRL6N","cs_wg_full_v4_conf_pilot3","3HHRAGRYX86AWAP9OR4L2ON9PN19OL","68",NULL,"JULY","9","OCTOBER","6","0","3818","1",,,,"2018-07-25 18:58:05","503521"
"A3SAD1UI1JRMTG","cs_wg_full_v4_conf_pilot3","39ZSFO5CA8XUFRMF6P77QOT13E0UJD","44",NULL,"NOVEMBER","9","APRIL","3","0","1184","1",,,,"2018-07-25 18:58:06","503522"
"A31LAW5AW4IUNG","cs_wg_full_v4_conf_pilot3","3Y54SXRO1LMOTUIKIJLBSUGA1GRUTI","38",NULL,"MARCH","4","JULY","1","0","1784","1",,,,"2018-07-25 18:58:08","503523"
"A3G4USHY7MR4WW","cs_wg_full_v4_conf_pilot3","3AAPLD8UCCIJO8C0IKEC9FRK78QHT5","37",NULL,"OCTOBER","4","SEPTEMBER","6","1","3430","1",,,,"2018-07-25 18:58:08","503524"
"A1GOGKHM9YENEF","cs_wg_full_v4_conf_pilot3","38YMOXR4MU0VJ0WDH6SJZ89T2OS6WJ","39",NULL,"JUNE","7","OCTOBER","8","1","2746","1",,,,"2018-07-25 18:58:09","503525"
"A3BYOCOPKVRUZ","cs_wg_full_v4_conf_pilot3","3E47SOBEYQX2YML92G17KHSVJZ5CIA","88",NULL,"APRIL","7","SEPTEMBER","5","1","1535","0",,,,"2018-07-25 18:58:10","503526"
"A2V1VO04WIRL6N","cs_wg_full_v4_conf_pilot3","3HHRAGRYX86AWAP9OR4L2ON9PN19OL","69",NULL,"MAY","5","FEBRUARY","11","1","2525","1",,,,"2018-07-25 18:58:12","503527"
"A3SAD1UI1JRMTG","cs_wg_full_v4_conf_pilot3","39ZSFO5CA8XUFRMF6P77QOT13E0UJD","45",NULL,"MARCH","2","DECEMBER","7","0","1331","1",,,,"2018-07-25 18:58:14","503528"
"A2K14P6B2UKYUJ","cs_wg_full_v4_conf_pilot3","3DH6GAKTYYQ1WFBOYC7IH3N4I0OZY1","48",NULL,"FEBRUARY","1","NOVEMBER","4","0","4125","1",,,,"2018-07-25 18:58:15","503529"
"A3BYOCOPKVRUZ","cs_wg_full_v4_conf_pilot3","3E47SOBEYQX2YML92G17KHSVJZ5CIA","89",NULL,"DECEMBER","2","JUNE","10","1","1141","1",,,,"2018-07-25 18:58:16","503530"
"A1GOGKHM9YENEF","cs_wg_full_v4_conf_pilot3","38YMOXR4MU0VJ0WDH6SJZ89T2OS6WJ","40",NULL,"JULY","1","DECEMBER","2","0","2979","0",,,,"2018-07-25 18:58:17","503531"
"A31LAW5AW4IUNG","cs_wg_full_v4_conf_pilot3","3Y54SXRO1LMOTUIKIJLBSUGA1GRUTI","39",NULL,"OCTOBER","7","FEBRUARY","9","1","1993","1",,,,"2018-07-25 18:58:18","503532"
"A3SAD1UI1JRMTG","cs_wg_full_v4_conf_pilot3","39ZSFO5CA8XUFRMF6P77QOT13E0UJD","46",NULL,"AUGUST","1","NOVEMBER","9","0","2586","1",,,,"2018-07-25 18:58:22","503533"
"A3G4USHY7MR4WW","cs_wg_full_v4_conf_pilot3","3AAPLD8UCCIJO8C0IKEC9FRK78QHT5","38",NULL,"DECEMBER","7","MAY","3","1","3539","0",,,,"2018-07-25 18:58:23","503534"
"A2K14P6B2UKYUJ","cs_wg_full_v4_conf_pilot3","3DH6GAKTYYQ1WFBOYC7IH3N4I0OZY1","49",NULL,"OCTOBER","3","JUNE","5","1","2315","1",,,,"2018-07-25 18:58:23","503535"
"A31LAW5AW4IUNG","cs_wg_full_v4_conf_pilot3","3Y54SXRO1LMOTUIKIJLBSUGA1GRUTI","40",NULL,"JULY","1","APRIL","11","1","912","1",,,,"2018-07-25 18:58:25","503536"
"A3BYOCOPKVRUZ","cs_wg_full_v4_conf_pilot3","3E47SOBEYQX2YML92G17KHSVJZ5CIA","90",NULL,"SEPTEMBER","5","DECEMBER","2","0","1718","1",,,,"2018-07-25 18:58:25","503537"
"A2JEBSXKVWFCC0","cs_wg_full_v4_conf_pilot3","3I02618YA07Q12PD12CRNKFDCD6UPD","26",NULL,"NOVEMBER","7","JANUARY","2","0","1547","1",,,,"2018-07-25 18:58:25","503538"
"A1GOGKHM9YENEF","cs_wg_full_v4_conf_pilot3","38YMOXR4MU0VJ0WDH6SJZ89T2OS6WJ","41",NULL,"JUNE","7","MAY","12","1","1946","1",,,,"2018-07-25 18:58:25","503539"
"A2V1VO04WIRL6N","cs_wg_full_v4_conf_pilot3","3HHRAGRYX86AWAP9OR4L2ON9PN19OL","70",NULL,"JUNE","7","MAY","5","0","11117","1",,,,"2018-07-25 18:58:28","503540"
"A3SAD1UI1JRMTG","cs_wg_full_v4_conf_pilot3","39ZSFO5CA8XUFRMF6P77QOT13E0UJD","47",NULL,"NOVEMBER","9","SEPTEMBER","11","0","1207","1",,,,"2018-07-25 18:58:29","503541"
"A3BYOCOPKVRUZ","cs_wg_full_v4_conf_pilot3","3E47SOBEYQX2YML92G17KHSVJZ5CIA","91",NULL,"APRIL","7","OCTOBER","9","0","986","0",,,,"2018-07-25 18:58:30","503542"
"A31LAW5AW4IUNG","cs_wg_full_v4_conf_pilot3","3Y54SXRO1LMOTUIKIJLBSUGA1GRUTI","41",NULL,"SEPTEMBER","6","MAY","2","1","360","1",,,,"2018-07-25 18:58:31","503543"
"A2K14P6B2UKYUJ","cs_wg_full_v4_conf_pilot3","3DH6GAKTYYQ1WFBOYC7IH3N4I0OZY1","50",NULL,"APRIL","11","NOVEMBER","4","1","2379","1",,,,"2018-07-25 18:58:32","503544"
"A2V1VO04WIRL6N","cs_wg_full_v4_conf_pilot3","3HHRAGRYX86AWAP9OR4L2ON9PN19OL","71",NULL,"DECEMBER","2","MAY","5","1","2343","1",,,,"2018-07-25 18:58:35","503545"
"A3BYOCOPKVRUZ","cs_wg_full_v4_conf_pilot3","3E47SOBEYQX2YML92G17KHSVJZ5CIA","92",NULL,"JULY","12","MARCH","11","0","776","1",,,,"2018-07-25 18:58:35","503546"
"A1GOGKHM9YENEF","cs_wg_full_v4_conf_pilot3","38YMOXR4MU0VJ0WDH6SJZ89T2OS6WJ","42",NULL,"JUNE","7","JULY","1","0","4680","1",,,,"2018-07-25 18:58:35","503547"
"A3SAD1UI1JRMTG","cs_wg_full_v4_conf_pilot3","39ZSFO5CA8XUFRMF6P77QOT13E0UJD","48",NULL,"OCTOBER","4","MAY","5","1","1794","1",,,,"2018-07-25 18:58:37","503548"
"A31LAW5AW4IUNG","cs_wg_full_v4_conf_pilot3","3Y54SXRO1LMOTUIKIJLBSUGA1GRUTI","42",NULL,"SEPTEMBER","6","OCTOBER","7","0","478","1",,,,"2018-07-25 18:58:38","503549"
"A3BYOCOPKVRUZ","cs_wg_full_v4_conf_pilot3","3E47SOBEYQX2YML92G17KHSVJZ5CIA","93",NULL,"JUNE","10","OCTOBER","9","0","653","1",,,,"2018-07-25 18:58:40","503550"
"A2K14P6B2UKYUJ","cs_wg_full_v4_conf_pilot3","3DH6GAKTYYQ1WFBOYC7IH3N4I0OZY1","51",NULL,"MARCH","7","AUGUST","2","1","2382","1",,,,"2018-07-25 18:58:42","503551"
"A2JEBSXKVWFCC0","cs_wg_full_v4_conf_pilot3","3I02618YA07Q12PD12CRNKFDCD6UPD","27",NULL,"APRIL","10","SEPTEMBER","5","1","3795","1",,,,"2018-07-25 18:58:42","503552"
"A31LAW5AW4IUNG","cs_wg_full_v4_conf_pilot3","3Y54SXRO1LMOTUIKIJLBSUGA1GRUTI","43",NULL,"MAY","2","MARCH","4","1","528","1",,,,"2018-07-25 18:58:43","503553"
"A3BYOCOPKVRUZ","cs_wg_full_v4_conf_pilot3","3E47SOBEYQX2YML92G17KHSVJZ5CIA","94",NULL,"JUNE","10","MARCH","11","0","608","0",,,,"2018-07-25 18:58:45","503554"
"A3SAD1UI1JRMTG","cs_wg_full_v4_conf_pilot3","39ZSFO5CA8XUFRMF6P77QOT13E0UJD","49",NULL,"DECEMBER","7","SEPTEMBER","11","1","1591","1",,,,"2018-07-25 18:58:47","503555"
"A2V1VO04WIRL6N","cs_wg_full_v4_conf_pilot3","3HHRAGRYX86AWAP9OR4L2ON9PN19OL","72",NULL,"JULY","9","JANUARY","10","1","5134","1",,,,"2018-07-25 18:58:47","503556"
"A2JEBSXKVWFCC0","cs_wg_full_v4_conf_pilot3","3I02618YA07Q12PD12CRNKFDCD6UPD","28",NULL,"MARCH","9","AUGUST","12","1","380","1",,,,"2018-07-25 18:58:49","503557"
"A31LAW5AW4IUNG","cs_wg_full_v4_conf_pilot3","3Y54SXRO1LMOTUIKIJLBSUGA1GRUTI","44",NULL,"NOVEMBER","3","MAY","2","1","695","1",,,,"2018-07-25 18:58:50","503558"
"A3BYOCOPKVRUZ","cs_wg_full_v4_conf_pilot3","3E47SOBEYQX2YML92G17KHSVJZ5CIA","95",NULL,"JANUARY","4","JUNE","10","1","1326","1",,,,"2018-07-25 18:58:51","503559"
"A2K14P6B2UKYUJ","cs_wg_full_v4_conf_pilot3","3DH6GAKTYYQ1WFBOYC7IH3N4I0OZY1","52",NULL,"NOVEMBER","4","OCTOBER","3","1","2394","1",,,,"2018-07-25 18:58:52","503560"
"A3SAD1UI1JRMTG","cs_wg_full_v4_conf_pilot3","39ZSFO5CA8XUFRMF6P77QOT13E0UJD","50",NULL,"OCTOBER","4","FEBRUARY","10","0","971","1",,,,"2018-07-25 18:58:53","503561"
"A3BYOCOPKVRUZ","cs_wg_full_v4_conf_pilot3","3E47SOBEYQX2YML92G17KHSVJZ5CIA","96",NULL,"DECEMBER","2","FEBRUARY","8","0","777","0",,,,"2018-07-25 18:58:57","503562"
"A2V1VO04WIRL6N","cs_wg_full_v4_conf_pilot3","3HHRAGRYX86AWAP9OR4L2ON9PN19OL","73",NULL,"NOVEMBER","3","JUNE","7","1","4802","1",,,,"2018-07-25 18:58:57","503563"
"A2K14P6B2UKYUJ","cs_wg_full_v4_conf_pilot3","3DH6GAKTYYQ1WFBOYC7IH3N4I0OZY1","53",NULL,"JANUARY","9","JULY","12","0","1480","1",,,,"2018-07-25 18:59:01","503564"
"A3SAD1UI1JRMTG","cs_wg_full_v4_conf_pilot3","39ZSFO5CA8XUFRMF6P77QOT13E0UJD","51",NULL,"JUNE","8","JULY","6","0","767","1",,,,"2018-07-25 18:59:01","503565"
"A31LAW5AW4IUNG","cs_wg_full_v4_conf_pilot3","3Y54SXRO1LMOTUIKIJLBSUGA1GRUTI","45",NULL,"JANUARY","8","NOVEMBER","3","0","6016","1",,,,"2018-07-25 18:59:01","503566"
"A2JEBSXKVWFCC0","cs_wg_full_v4_conf_pilot3","3I02618YA07Q12PD12CRNKFDCD6UPD","29",NULL,"AUGUST","12","DECEMBER","11","1","69","0",,,,"2018-07-25 18:59:02","503567"
"A3BYOCOPKVRUZ","cs_wg_full_v4_conf_pilot3","3E47SOBEYQX2YML92G17KHSVJZ5CIA","97",NULL,"AUGUST","3","NOVEMBER","6","0","785","0",,,,"2018-07-25 18:59:02","503568"
"A2V1VO04WIRL6N","cs_wg_full_v4_conf_pilot3","3HHRAGRYX86AWAP9OR4L2ON9PN19OL","74",NULL,"JULY","9","MARCH","1","0","3691","1",,,,"2018-07-25 18:59:07","503569"
"A1GOGKHM9YENEF","cs_wg_full_v4_conf_pilot3","38YMOXR4MU0VJ0WDH6SJZ89T2OS6WJ","43",NULL,"JUNE","7","NOVEMBER","5","1","25536","0",,,,"2018-07-25 18:59:07","503570"
"A3BYOCOPKVRUZ","cs_wg_full_v4_conf_pilot3","3E47SOBEYQX2YML92G17KHSVJZ5CIA","98",NULL,"MARCH","11","MAY","1","0","704","1",,,,"2018-07-25 18:59:07","503571"
"A2JEBSXKVWFCC0","cs_wg_full_v4_conf_pilot3","3I02618YA07Q12PD12CRNKFDCD6UPD","30",NULL,"OCTOBER","4","MARCH","9","0","3005","1",,,,"2018-07-25 18:59:09","503572"
"A2K14P6B2UKYUJ","cs_wg_full_v4_conf_pilot3","3DH6GAKTYYQ1WFBOYC7IH3N4I0OZY1","54",NULL,"JULY","12","OCTOBER","3","0","1804","1",,,,"2018-07-25 18:59:10","503573"
"A3BYOCOPKVRUZ","cs_wg_full_v4_conf_pilot3","3E47SOBEYQX2YML92G17KHSVJZ5CIA","99",NULL,"AUGUST","3","APRIL","7","0","1178","0",,,,"2018-07-25 18:59:13","503574"
"A3SAD1UI1JRMTG","cs_wg_full_v4_conf_pilot3","39ZSFO5CA8XUFRMF6P77QOT13E0UJD","52",NULL,"JANUARY","12","JUNE","8","1","728","1",,,,"2018-07-25 18:59:14","503575"
"A2V1VO04WIRL6N","cs_wg_full_v4_conf_pilot3","3HHRAGRYX86AWAP9OR4L2ON9PN19OL","75",NULL,"OCTOBER","6","JANUARY","10","1","2550","1",,,,"2018-07-25 18:59:14","503576"
"A2JEBSXKVWFCC0","cs_wg_full_v4_conf_pilot3","3I02618YA07Q12PD12CRNKFDCD6UPD","31",NULL,"OCTOBER","4","SEPTEMBER","5","0","61","1",,,,"2018-07-25 18:59:14","503577"
"A1GOGKHM9YENEF","cs_wg_full_v4_conf_pilot3","38YMOXR4MU0VJ0WDH6SJZ89T2OS6WJ","44",NULL,"SEPTEMBER","6","JUNE","7","1","5233","1",,,,"2018-07-25 18:59:17","503578"
"A31LAW5AW4IUNG","cs_wg_full_v4_conf_pilot3","3Y54SXRO1LMOTUIKIJLBSUGA1GRUTI","48",NULL,"MAY","2","OCTOBER","7","0","384","1",,,,"2018-07-25 18:59:19","503579"
"A2K14P6B2UKYUJ","cs_wg_full_v4_conf_pilot3","3DH6GAKTYYQ1WFBOYC7IH3N4I0OZY1","55",NULL,"JUNE","5","FEBRUARY","1","0","2393","1",,,,"2018-07-25 18:59:19","503580"
"A3BYOCOPKVRUZ","cs_wg_full_v4_conf_pilot3","3E47SOBEYQX2YML92G17KHSVJZ5CIA","100",NULL,"JULY","12","NOVEMBER","6","0","716","1",,,,"2018-07-25 18:59:19","503581"
"A2JEBSXKVWFCC0","cs_wg_full_v4_conf_pilot3","3I02618YA07Q12PD12CRNKFDCD6UPD","32",NULL,"SEPTEMBER","5","OCTOBER","4","0","17","1",,,,"2018-07-25 18:59:20","503582"
"A3SAD1UI1JRMTG","cs_wg_full_v4_conf_pilot3","39ZSFO5CA8XUFRMF6P77QOT13E0UJD","53",NULL,"JANUARY","12","SEPTEMBER","11","1","1436","1",,,,"2018-07-25 18:59:21","503583"
"A2V1VO04WIRL6N","cs_wg_full_v4_conf_pilot3","3HHRAGRYX86AWAP9OR4L2ON9PN19OL","76",NULL,"SEPTEMBER","4","AUGUST","8","1","3329","1",,,,"2018-07-25 18:59:22","503584"
"A3BYOCOPKVRUZ","cs_wg_full_v4_conf_pilot3","3E47SOBEYQX2YML92G17KHSVJZ5CIA","101",NULL,"JULY","12","DECEMBER","2","0","642","1",,,,"2018-07-25 18:59:25","503585"
"A31LAW5AW4IUNG","cs_wg_full_v4_conf_pilot3","3Y54SXRO1LMOTUIKIJLBSUGA1GRUTI","49",NULL,"AUGUST","10","OCTOBER","7","1","593","0",,,,"2018-07-25 18:59:27","503586"
"A3SAD1UI1JRMTG","cs_wg_full_v4_conf_pilot3","39ZSFO5CA8XUFRMF6P77QOT13E0UJD","54",NULL,"MAY","5","OCTOBER","4","0","621","1",,,,"2018-07-25 18:59:27","503587"
"A2JEBSXKVWFCC0","cs_wg_full_v4_conf_pilot3","3I02618YA07Q12PD12CRNKFDCD6UPD","33",NULL,"NOVEMBER","7","APRIL","10","0","89","0",,,,"2018-07-25 18:59:27","503588"
"A2K14P6B2UKYUJ","cs_wg_full_v4_conf_pilot3","3DH6GAKTYYQ1WFBOYC7IH3N4I0OZY1","56",NULL,"JANUARY","9","DECEMBER","6","1","2523","1",,,,"2018-07-25 18:59:28","503589"
"A1GOGKHM9YENEF","cs_wg_full_v4_conf_pilot3","38YMOXR4MU0VJ0WDH6SJZ89T2OS6WJ","45",NULL,"JUNE","7","JANUARY","9","1","4815","1",,,,"2018-07-25 18:59:29","503590"
"A2V1VO04WIRL6N","cs_wg_full_v4_conf_pilot3","3HHRAGRYX86AWAP9OR4L2ON9PN19OL","77",NULL,"JANUARY","10","MAY","5","0","1976","1",,,,"2018-07-25 18:59:30","503591"
"A3BYOCOPKVRUZ","cs_wg_full_v4_conf_pilot3","3E47SOBEYQX2YML92G17KHSVJZ5CIA","102",NULL,"MAY","1","AUGUST","3","0","872","0",,,,"2018-07-25 18:59:31","503592"
"A31LAW5AW4IUNG","cs_wg_full_v4_conf_pilot3","3Y54SXRO1LMOTUIKIJLBSUGA1GRUTI","50",NULL,"NOVEMBER","3","MARCH","4","1","519","1",,,,"2018-07-25 18:59:31","503593"
"A3SAD1UI1JRMTG","cs_wg_full_v4_conf_pilot3","39ZSFO5CA8XUFRMF6P77QOT13E0UJD","55",NULL,"MAY","5","APRIL","3","1","658","1",,,,"2018-07-25 18:59:34","503594"
"A2V1VO04WIRL6N","cs_wg_full_v4_conf_pilot3","3HHRAGRYX86AWAP9OR4L2ON9PN19OL","78",NULL,"SEPTEMBER","4","DECEMBER","2","0","2300","1",,,,"2018-07-25 18:59:36","503595"
"A2K14P6B2UKYUJ","cs_wg_full_v4_conf_pilot3","3DH6GAKTYYQ1WFBOYC7IH3N4I0OZY1","57",NULL,"SEPTEMBER","10","AUGUST","2","0","1870","1",,,,"2018-07-25 18:59:37","503596"
"A3BYOCOPKVRUZ","cs_wg_full_v4_conf_pilot3","3E47SOBEYQX2YML92G17KHSVJZ5CIA","103",NULL,"JANUARY","4","MARCH","11","1","1634","1",,,,"2018-07-25 18:59:39","503597"
"A3SAD1UI1JRMTG","cs_wg_full_v4_conf_pilot3","39ZSFO5CA8XUFRMF6P77QOT13E0UJD","56",NULL,"JUNE","8","DECEMBER","7","0","668","1",,,,"2018-07-25 18:59:40","503598"
"A2V1VO04WIRL6N","cs_wg_full_v4_conf_pilot3","3HHRAGRYX86AWAP9OR4L2ON9PN19OL","79",NULL,"APRIL","12","DECEMBER","2","0","1668","1",,,,"2018-07-25 18:59:43","503599"
"A3BYOCOPKVRUZ","cs_wg_full_v4_conf_pilot3","3E47SOBEYQX2YML92G17KHSVJZ5CIA","104",NULL,"FEBRUARY","8","OCTOBER","9","0","910","0",,,,"2018-07-25 18:59:44","503600"
"A31LAW5AW4IUNG","cs_wg_full_v4_conf_pilot3","3Y54SXRO1LMOTUIKIJLBSUGA1GRUTI","52",NULL,"DECEMBER","5","AUGUST","10","0","1945","1",,,,"2018-07-25 18:59:45","503601"
"A2K14P6B2UKYUJ","cs_wg_full_v4_conf_pilot3","3DH6GAKTYYQ1WFBOYC7IH3N4I0OZY1","58",NULL,"APRIL","11","JULY","12","1","2158","1",,,,"2018-07-25 18:59:46","503602"
"A3SAD1UI1JRMTG","cs_wg_full_v4_conf_pilot3","39ZSFO5CA8XUFRMF6P77QOT13E0UJD","57",NULL,"DECEMBER","7","APRIL","3","1","1488","1",,,,"2018-07-25 18:59:47","503603"
"A2JEBSXKVWFCC0","cs_wg_full_v4_conf_pilot3","3I02618YA07Q12PD12CRNKFDCD6UPD","34",NULL,"MARCH","9","DECEMBER","11","1","13338","1",,,,"2018-07-25 18:59:47","503604"
"A2V1VO04WIRL6N","cs_wg_full_v4_conf_pilot3","3HHRAGRYX86AWAP9OR4L2ON9PN19OL","80",NULL,"NOVEMBER","3","AUGUST","8","1","1565","1",,,,"2018-07-25 18:59:49","503605"
"A3BYOCOPKVRUZ","cs_wg_full_v4_conf_pilot3","3E47SOBEYQX2YML92G17KHSVJZ5CIA","105",NULL,"SEPTEMBER","5","NOVEMBER","6","0","761","0",,,,"2018-07-25 18:59:49","503606"
"A2K14P6B2UKYUJ","cs_wg_full_v4_conf_pilot3","3DH6GAKTYYQ1WFBOYC7IH3N4I0OZY1","59",NULL,"NOVEMBER","4","APRIL","11","1","2518","1",,,,"2018-07-25 18:59:55","503607"
"A3SAD1UI1JRMTG","cs_wg_full_v4_conf_pilot3","39ZSFO5CA8XUFRMF6P77QOT13E0UJD","58",NULL,"DECEMBER","7","NOVEMBER","9","0","766","1",,,,"2018-07-25 18:59:55","503608"
"A3BYOCOPKVRUZ","cs_wg_full_v4_conf_pilot3","3E47SOBEYQX2YML92G17KHSVJZ5CIA","106",NULL,"DECEMBER","2","NOVEMBER","6","1","1202","1",,,,"2018-07-25 18:59:55","503609"
"A2V1VO04WIRL6N","cs_wg_full_v4_conf_pilot3","3HHRAGRYX86AWAP9OR4L2ON9PN19OL","81",NULL,"APRIL","12","NOVEMBER","3","0","2681","1",,,,"2018-07-25 18:59:57","503610"
"A2JEBSXKVWFCC0","cs_wg_full_v4_conf_pilot3","3I02618YA07Q12PD12CRNKFDCD6UPD","35",NULL,"JUNE","8","JANUARY","2","0","2970","0",,,,"2018-07-25 18:59:57","503611"
"A1GOGKHM9YENEF","cs_wg_full_v4_conf_pilot3","38YMOXR4MU0VJ0WDH6SJZ89T2OS6WJ","46",NULL,"JULY","1","JANUARY","9","1","2909","1",,,,"2018-07-25 19:00:00","503612"
"A3BYOCOPKVRUZ","cs_wg_full_v4_conf_pilot3","3E47SOBEYQX2YML92G17KHSVJZ5CIA","107",NULL,"FEBRUARY","8","JULY","12","1","1341","1",,,,"2018-07-25 19:00:02","503613"
"A3SAD1UI1JRMTG","cs_wg_full_v4_conf_pilot3","39ZSFO5CA8XUFRMF6P77QOT13E0UJD","59",NULL,"FEBRUARY","10","DECEMBER","7","1","1519","1",,,,"2018-07-25 19:00:02","503614"
"A2V1VO04WIRL6N","cs_wg_full_v4_conf_pilot3","3HHRAGRYX86AWAP9OR4L2ON9PN19OL","82",NULL,"APRIL","12","AUGUST","8","0","1367","1",,,,"2018-07-25 19:00:03","503615"
"A2K14P6B2UKYUJ","cs_wg_full_v4_conf_pilot3","3DH6GAKTYYQ1WFBOYC7IH3N4I0OZY1","60",NULL,"DECEMBER","6","AUGUST","2","1","1870","1",,,,"2018-07-25 19:00:03","503616"
"A2JEBSXKVWFCC0","cs_wg_full_v4_conf_pilot3","3I02618YA07Q12PD12CRNKFDCD6UPD","36",NULL,"APRIL","10","MARCH","9","0","157","1",,,,"2018-07-25 19:00:07","503617"
"A31LAW5AW4IUNG","cs_wg_full_v4_conf_pilot3","3Y54SXRO1LMOTUIKIJLBSUGA1GRUTI","55",NULL,"FEBRUARY","9","APRIL","11","0","545","0",,,,"2018-07-25 19:00:08","503618"
"A1GOGKHM9YENEF","cs_wg_full_v4_conf_pilot3","38YMOXR4MU0VJ0WDH6SJZ89T2OS6WJ","47",NULL,"MAY","12","SEPTEMBER","6","0","2115","1",,,,"2018-07-25 19:00:08","503619"
"A3BYOCOPKVRUZ","cs_wg_full_v4_conf_pilot3","3E47SOBEYQX2YML92G17KHSVJZ5CIA","108",NULL,"MARCH","11","APRIL","7","1","1457","0",,,,"2018-07-25 19:00:10","503620"
"A3SAD1UI1JRMTG","cs_wg_full_v4_conf_pilot3","39ZSFO5CA8XUFRMF6P77QOT13E0UJD","60",NULL,"NOVEMBER","9","FEBRUARY","10","0","1356","1",,,,"2018-07-25 19:00:10","503621"
"A3G4USHY7MR4WW","cs_wg_full_v4_conf_pilot3","3AAPLD8UCCIJO8C0IKEC9FRK78QHT5","39",NULL,"FEBRUARY","1","JUNE","8","0","98543","0",,,,"2018-07-25 19:00:11","503622"
"A2V1VO04WIRL6N","cs_wg_full_v4_conf_pilot3","3HHRAGRYX86AWAP9OR4L2ON9PN19OL","83",NULL,"JANUARY","10","SEPTEMBER","4","0","3879","1",,,,"2018-07-25 19:00:12","503623"
"A2K14P6B2UKYUJ","cs_wg_full_v4_conf_pilot3","3DH6GAKTYYQ1WFBOYC7IH3N4I0OZY1","61",NULL,"OCTOBER","3","MARCH","7","1","2152","1",,,,"2018-07-25 19:00:12","503624"
"A31LAW5AW4IUNG","cs_wg_full_v4_conf_pilot3","3Y54SXRO1LMOTUIKIJLBSUGA1GRUTI","56",NULL,"JUNE","12","APRIL","11","1","1751","1",,,,"2018-07-25 19:00:14","503625"
"A3BYOCOPKVRUZ","cs_wg_full_v4_conf_pilot3","3E47SOBEYQX2YML92G17KHSVJZ5CIA","109",NULL,"JANUARY","4","JULY","12","1","1612","1",,,,"2018-07-25 19:00:16","503626"
"A1GOGKHM9YENEF","cs_wg_full_v4_conf_pilot3","38YMOXR4MU0VJ0WDH6SJZ89T2OS6WJ","48",NULL,"SEPTEMBER","6","MARCH","10","0","2802","0",,,,"2018-07-25 19:00:16","503627"
"A2V1VO04WIRL6N","cs_wg_full_v4_conf_pilot3","3HHRAGRYX86AWAP9OR4L2ON9PN19OL","84",NULL,"NOVEMBER","3","JANUARY","10","1","1485","1",,,,"2018-07-25 19:00:18","503628"
"A31LAW5AW4IUNG","cs_wg_full_v4_conf_pilot3","3Y54SXRO1LMOTUIKIJLBSUGA1GRUTI","57",NULL,"MAY","2","NOVEMBER","3","0","593","1",,,,"2018-07-25 19:00:19","503629"
"A3SAD1UI1JRMTG","cs_wg_full_v4_conf_pilot3","39ZSFO5CA8XUFRMF6P77QOT13E0UJD","61",NULL,"JULY","6","SEPTEMBER","11","1","1239","1",,,,"2018-07-25 19:00:20","503630"
"A3G4USHY7MR4WW","cs_wg_full_v4_conf_pilot3","3AAPLD8UCCIJO8C0IKEC9FRK78QHT5","40",NULL,"AUGUST","9","MAY","3","1","1806","0",,,,"2018-07-25 19:00:20","503631"
"A2K14P6B2UKYUJ","cs_wg_full_v4_conf_pilot3","3DH6GAKTYYQ1WFBOYC7IH3N4I0OZY1","62",NULL,"FEBRUARY","1","MAY","8","1","1439","1",,,,"2018-07-25 19:00:20","503632"
"A3BYOCOPKVRUZ","cs_wg_full_v4_conf_pilot3","3E47SOBEYQX2YML92G17KHSVJZ5CIA","110",NULL,"MAY","1","FEBRUARY","8","0","840","0",,,,"2018-07-25 19:00:22","503633"
"A2V1VO04WIRL6N","cs_wg_full_v4_conf_pilot3","3HHRAGRYX86AWAP9OR4L2ON9PN19OL","85",NULL,"FEBRUARY","11","JUNE","7","0","1487","1",,,,"2018-07-25 19:00:23","503634"
"A1GOGKHM9YENEF","cs_wg_full_v4_conf_pilot3","38YMOXR4MU0VJ0WDH6SJZ89T2OS6WJ","49",NULL,"OCTOBER","8","SEPTEMBER","6","0","3396","1",,,,"2018-07-25 19:00:24","503635"
"A31LAW5AW4IUNG","cs_wg_full_v4_conf_pilot3","3Y54SXRO1LMOTUIKIJLBSUGA1GRUTI","58",NULL,"FEBRUARY","9","SEPTEMBER","6","1","320","1",,,,"2018-07-25 19:00:25","503636"
"A3SAD1UI1JRMTG","cs_wg_full_v4_conf_pilot3","39ZSFO5CA8XUFRMF6P77QOT13E0UJD","62",NULL,"DECEMBER","7","OCTOBER","4","0","841","1",,,,"2018-07-25 19:00:27","503637"
"A3G4USHY7MR4WW","cs_wg_full_v4_conf_pilot3","3AAPLD8UCCIJO8C0IKEC9FRK78QHT5","41",NULL,"MARCH","12","JULY","2","0","800","1",,,,"2018-07-25 19:00:28","503638"
"A2JEBSXKVWFCC0","cs_wg_full_v4_conf_pilot3","3I02618YA07Q12PD12CRNKFDCD6UPD","37",NULL,"JUNE","8","FEBRUARY","3","0","381","1",,,,"2018-07-25 19:00:29","503639"
"A3BYOCOPKVRUZ","cs_wg_full_v4_conf_pilot3","3E47SOBEYQX2YML92G17KHSVJZ5CIA","111",NULL,"APRIL","7","JULY","12","1","1232","1",,,,"2018-07-25 19:00:30","503640"
"A31LAW5AW4IUNG","cs_wg_full_v4_conf_pilot3","3Y54SXRO1LMOTUIKIJLBSUGA1GRUTI","59",NULL,"JULY","1","NOVEMBER","3","1","344","1",,,,"2018-07-25 19:00:30","503641"
"A2K14P6B2UKYUJ","cs_wg_full_v4_conf_pilot3","3DH6GAKTYYQ1WFBOYC7IH3N4I0OZY1","63",NULL,"JULY","12","NOVEMBER","4","0","1551","1",,,,"2018-07-25 19:00:31","503642"
"A1GOGKHM9YENEF","cs_wg_full_v4_conf_pilot3","38YMOXR4MU0VJ0WDH6SJZ89T2OS6WJ","50",NULL,"MAY","12","JUNE","7","0","914","1",,,,"2018-07-25 19:00:33","503643"
"A2V1VO04WIRL6N","cs_wg_full_v4_conf_pilot3","3HHRAGRYX86AWAP9OR4L2ON9PN19OL","86",NULL,"DECEMBER","2","OCTOBER","6","1","4457","1",,,,"2018-07-25 19:00:34","503644"
"A3BYOCOPKVRUZ","cs_wg_full_v4_conf_pilot3","3E47SOBEYQX2YML92G17KHSVJZ5CIA","112",NULL,"JULY","12","AUGUST","3","0","949","1",,,,"2018-07-25 19:00:34","503645"
"A3SAD1UI1JRMTG","cs_wg_full_v4_conf_pilot3","39ZSFO5CA8XUFRMF6P77QOT13E0UJD","63",NULL,"JULY","6","MARCH","2","1","1613","1",,,,"2018-07-25 19:00:34","503646"
"A3G4USHY7MR4WW","cs_wg_full_v4_conf_pilot3","3AAPLD8UCCIJO8C0IKEC9FRK78QHT5","42",NULL,"NOVEMBER","5","MARCH","12","0","1357","0",,,,"2018-07-25 19:00:36","503647"
"A31LAW5AW4IUNG","cs_wg_full_v4_conf_pilot3","3Y54SXRO1LMOTUIKIJLBSUGA1GRUTI","60",NULL,"JUNE","12","DECEMBER","5","0","831","1",,,,"2018-07-25 19:00:36","503648"
"A2K14P6B2UKYUJ","cs_wg_full_v4_conf_pilot3","3DH6GAKTYYQ1WFBOYC7IH3N4I0OZY1","64",NULL,"AUGUST","2","JANUARY","9","0","1600","1",,,,"2018-07-25 19:00:39","503649"
"A2V1VO04WIRL6N","cs_wg_full_v4_conf_pilot3","3HHRAGRYX86AWAP9OR4L2ON9PN19OL","87",NULL,"AUGUST","8","MAY","5","0","1952","1",,,,"2018-07-25 19:00:39","503650"
"A2JEBSXKVWFCC0","cs_wg_full_v4_conf_pilot3","3I02618YA07Q12PD12CRNKFDCD6UPD","38",NULL,"MAY","6","SEPTEMBER","5","1","201","1",,,,"2018-07-25 19:00:40","503651"
"A1GOGKHM9YENEF","cs_wg_full_v4_conf_pilot3","38YMOXR4MU0VJ0WDH6SJZ89T2OS6WJ","51",NULL,"MAY","12","AUGUST","4","0","1570","1",,,,"2018-07-25 19:00:40","503652"
"A3SAD1UI1JRMTG","cs_wg_full_v4_conf_pilot3","39ZSFO5CA8XUFRMF6P77QOT13E0UJD","64",NULL,"JUNE","8","FEBRUARY","10","0","732","1",,,,"2018-07-25 19:00:41","503653"
"A31LAW5AW4IUNG","cs_wg_full_v4_conf_pilot3","3Y54SXRO1LMOTUIKIJLBSUGA1GRUTI","61",NULL,"NOVEMBER","3","FEBRUARY","9","1","663","1",,,,"2018-07-25 19:00:42","503654"
"A2V1VO04WIRL6N","cs_wg_full_v4_conf_pilot3","3HHRAGRYX86AWAP9OR4L2ON9PN19OL","88",NULL,"AUGUST","8","NOVEMBER","3","0","3152","1",,,,"2018-07-25 19:00:47","503655"
