"subject","version","assignmentId","trial","trial_type","word","value","alt","choice","rt","resp","resp2","stamp","id"
"A374QLWR03CCMX","cs_wg_full_v2_real1","3E1QT0TDFPA0MJVWL4L2IVWCNSAI8Y","0","0","CELERY","3","5","1","5004","celery","3","2018-06-28 17:20:25","315680"
"A2DOIZHRZR5HHU","cs_wg_full_v2_real1","3OVR4I9USPKCKGWDM90YAL7TCGVQ42","0","0","COFFEE","7","5","0","3261","Coffee","7","2018-06-28 17:20:34","315681"
"A2DL00FVCOBYHJ","cs_wg_full_v2_real1","3COPXFW7XBDCY6K17O8PHX6F46ZKPV","0","0","PEACOCK","10","5","0","9994","peacock","5","2018-06-28 17:20:35","315682"
"A12IOD8IXOEL1P","cs_wg_full_v2_real1","3R8YZBNQ9HJ933EWO7Y5DXR33ILQ7M","0","0","ABDOMEN","3","5","1","5714","Abdomen","3","2018-06-28 17:20:38","315683"
"A374QLWR03CCMX","cs_wg_full_v2_real1","3E1QT0TDFPA0MJVWL4L2IVWCNSAI8Y","1","0","FLIGHT","12","5","0","5445","flight","12","2018-06-28 17:20:42","315684"
"AG430TVZD4313","cs_wg_full_v2_real1","3OF2M9AATGP6CAM7UX6R8V8TE56KZG","0","0","FLIGHT","9","5","0","5683","flight","9","2018-06-28 17:20:42","315685"
"A2DOIZHRZR5HHU","cs_wg_full_v2_real1","3OVR4I9USPKCKGWDM90YAL7TCGVQ42","1","0","SILVER","9","5","0","1321","Silver","9","2018-06-28 17:20:43","315686"
"A1S68DTVE9GU76","cs_wg_full_v2_real1","33OOO72IVHMS701KWS0BYOU4O0BCTF","0","0","PLANET","6","5","1","3981","planet","6","2018-06-28 17:20:48","315687"
"A29OCOF4PPVQJC","cs_wg_full_v2_real1","3VE8AYVF8MYGCST6KWFHFYJK70IF84","0","0","CARROT","10","5","0","3926","carrot","10","2018-06-28 17:20:49","315688"
"A2DOIZHRZR5HHU","cs_wg_full_v2_real1","3OVR4I9USPKCKGWDM90YAL7TCGVQ42","2","0","PRIEST","1","5","0","875","Priest","1","2018-06-28 17:20:50","315689"
"A12IOD8IXOEL1P","cs_wg_full_v2_real1","3R8YZBNQ9HJ933EWO7Y5DXR33ILQ7M","1","0","FLIGHT","7","5","1","2800","flight","7","2018-06-28 17:20:52","315690"
"A2DL00FVCOBYHJ","cs_wg_full_v2_real1","3COPXFW7XBDCY6K17O8PHX6F46ZKPV","1","0","SPATULA","11","5","0","4434","spatula","5","2018-06-28 17:20:52","315691"
"AG430TVZD4313","cs_wg_full_v2_real1","3OF2M9AATGP6CAM7UX6R8V8TE56KZG","1","0","SUMMER","10","5","0","3294","summer","10","2018-06-28 17:20:56","315692"
"A2DOIZHRZR5HHU","cs_wg_full_v2_real1","3OVR4I9USPKCKGWDM90YAL7TCGVQ42","3","0","PILLAR","8","5","0","934","Pillar","8","2018-06-28 17:20:58","315693"
"A374QLWR03CCMX","cs_wg_full_v2_real1","3E1QT0TDFPA0MJVWL4L2IVWCNSAI8Y","2","0","COFFIN","1","5","1","5249","coffin","5","2018-06-28 17:20:58","315694"
"ABPM2716DVK3F","cs_wg_full_v2_real1","3OE22WJIGIPB1EQS1FRGNP5NBTJUQT","0","0","MONKEY","8","5","0","4790","Monkey","8","2018-06-28 17:20:59","315695"
"A29OCOF4PPVQJC","cs_wg_full_v2_real1","3VE8AYVF8MYGCST6KWFHFYJK70IF84","1","0","CARROT","10","5","1","2733","carrot","10","2018-06-28 17:20:59","315696"
"A1S68DTVE9GU76","cs_wg_full_v2_real1","33OOO72IVHMS701KWS0BYOU4O0BCTF","1","0","BULLET","1","5","1","2396","bullet","1","2018-06-28 17:21:00","315697"
"ASLGHXA4453BQ","cs_wg_full_v2_real1","3JV9LGBJWTFPBKCH2XAVU59WNKMOGF","0","0","SPIRAL","6","5","1","3253","sprug","6","2018-06-28 17:21:02","315698"
"A12IOD8IXOEL1P","cs_wg_full_v2_real1","3R8YZBNQ9HJ933EWO7Y5DXR33ILQ7M","2","0","DOMINO","6","5","1","2463","domino","6","2018-06-28 17:21:06","315699"
"A2DL00FVCOBYHJ","cs_wg_full_v2_real1","3COPXFW7XBDCY6K17O8PHX6F46ZKPV","2","0","SILVER","4","5","0","2904","silver","5","2018-06-28 17:21:06","315700"
"A1EQN91S6T820I","cs_wg_full_v2_real1","3NLZY2D53PQ8IO3YS1ZFW294Y2QLQQ","0","0","SPONGE","2","5","0","6966","sponge","2","2018-06-28 17:21:07","315701"
"A2DOIZHRZR5HHU","cs_wg_full_v2_real1","3OVR4I9USPKCKGWDM90YAL7TCGVQ42","4","0","TURKEY","4","5","1","1933","Turkey","4","2018-06-28 17:21:08","315702"
"AG430TVZD4313","cs_wg_full_v2_real1","3OF2M9AATGP6CAM7UX6R8V8TE56KZG","2","0","FLIGHT","9","5","0","2831","flight","9","2018-06-28 17:21:08","315703"
"A29OCOF4PPVQJC","cs_wg_full_v2_real1","3VE8AYVF8MYGCST6KWFHFYJK70IF84","2","0","WAFFLE","8","5","0","2365","waffle","8","2018-06-28 17:21:11","315704"
"A1S68DTVE9GU76","cs_wg_full_v2_real1","33OOO72IVHMS701KWS0BYOU4O0BCTF","2","0","ADDICT","11","5","1","1886","addict","11","2018-06-28 17:21:11","315705"
"ABPM2716DVK3F","cs_wg_full_v2_real1","3OE22WJIGIPB1EQS1FRGNP5NBTJUQT","1","0","FORGERY","2","5","0","3694","Forgery","2","2018-06-28 17:21:13","315706"
"A374QLWR03CCMX","cs_wg_full_v2_real1","3E1QT0TDFPA0MJVWL4L2IVWCNSAI8Y","3","0","TRIVIA","11","5","0","2838","trivia","5","2018-06-28 17:21:14","315707"
"A2TNJ41V0E1WK4","cs_wg_full_v2_real1","3EA3QWIZ4IWJK3NKO2WX9RSZ15VITN","0","0","PICTURE","10","5","0","2732","Picture","10","2018-06-28 17:21:14","315708"
"ASLGHXA4453BQ","cs_wg_full_v2_real1","3JV9LGBJWTFPBKCH2XAVU59WNKMOGF","1","0","CABINET","12","5","1","3694","cabinet","12","2018-06-28 17:21:15","315709"
"A2DOIZHRZR5HHU","cs_wg_full_v2_real1","3OVR4I9USPKCKGWDM90YAL7TCGVQ42","5","0","BARREL","3","5","0","956","Barrel","3","2018-06-28 17:21:15","315710"
"A3CI8WWVFXEW74","cs_wg_full_v2_real1","3E47SOBEYQX2YML92G17KHSVDJVCIY","0","0","SHIVER","4","5","1","4138","Shiver","4","2018-06-28 17:21:18","315711"
"AG430TVZD4313","cs_wg_full_v2_real1","3OF2M9AATGP6CAM7UX6R8V8TE56KZG","3","0","DOLLAR","4","5","0","2428","dollar","4","2018-06-28 17:21:20","315712"
"A2DOIZHRZR5HHU","cs_wg_full_v2_real1","3OVR4I9USPKCKGWDM90YAL7TCGVQ42","6","0","DOMINO","11","5","0","799","Domino","11","2018-06-28 17:21:22","315713"
"A29OCOF4PPVQJC","cs_wg_full_v2_real1","3VE8AYVF8MYGCST6KWFHFYJK70IF84","3","0","ROYALTY","1","5","0","3087","royalty","1","2018-06-28 17:21:22","315714"
"A1EQN91S6T820I","cs_wg_full_v2_real1","3NLZY2D53PQ8IO3YS1ZFW294Y2QLQQ","1","0","ANIMAL","1","5","0","3222","animal","1","2018-06-28 17:21:23","315715"
"A1S68DTVE9GU76","cs_wg_full_v2_real1","33OOO72IVHMS701KWS0BYOU4O0BCTF","3","0","PLANET","6","5","0","2946","planet","6","2018-06-28 17:21:24","315716"
"A12IOD8IXOEL1P","cs_wg_full_v2_real1","3R8YZBNQ9HJ933EWO7Y5DXR33ILQ7M","3","0","WAFFLE","2","5","0","7548","waffle","2","2018-06-28 17:21:24","315717"
"A3OTBMKOEQ410P","cs_wg_full_v2_real1","3NLZY2D53PQ8IO3YS1ZFW294Y2QQLV","0","0","MAGNET","3","5","0","2902","magnet","3","2018-06-28 17:21:24","315718"
"ASLGHXA4453BQ","cs_wg_full_v2_real1","3JV9LGBJWTFPBKCH2XAVU59WNKMOGF","2","0","BULLET","7","5","1","2707","bullet","7","2018-06-28 17:21:25","315719"
"A1UKZRDH1T231M","cs_wg_full_v2_real1","3VZLGYJEYLBCWALETGLGYPGVAELZXK","0","0","PARENT","8","5","0","4185","PARENT","8","2018-06-28 17:21:26","315720"
"ABPM2716DVK3F","cs_wg_full_v2_real1","3OE22WJIGIPB1EQS1FRGNP5NBTJUQT","2","0","SPIRAL","6","5","0","4621","Spiral","6","2018-06-28 17:21:26","315721"
"A2DL00FVCOBYHJ","cs_wg_full_v2_real1","3COPXFW7XBDCY6K17O8PHX6F46ZKPV","3","0","SPATULA","11","5","0","7799","spatula","5","2018-06-28 17:21:27","315722"
"ADMPIBL7UKJUS","cs_wg_full_v2_real1","3UN61F00HWQUS0FDDT88K3NC8YSR59","0","0","ANIMAL","9","5","1","4873","Animal","9","2018-06-28 17:21:28","315723"
"A2DOIZHRZR5HHU","cs_wg_full_v2_real1","3OVR4I9USPKCKGWDM90YAL7TCGVQ42","7","0","BARREL","3","5","1","1284","Barrel","3","2018-06-28 17:21:29","315724"
"A3CI8WWVFXEW74","cs_wg_full_v2_real1","3E47SOBEYQX2YML92G17KHSVDJVCIY","1","0","SHIVER","4","5","0","3497","Shiver","4","2018-06-28 17:21:33","315725"
"A2TNJ41V0E1WK4","cs_wg_full_v2_real1","3EA3QWIZ4IWJK3NKO2WX9RSZ15VITN","1","0","HERMIT","8","5","0","3387","Hermit","8","2018-06-28 17:21:33","315726"
"ASLGHXA4453BQ","cs_wg_full_v2_real1","3JV9LGBJWTFPBKCH2XAVU59WNKMOGF","3","0","MUFFIN","2","5","1","1773","muffin","2","2018-06-28 17:21:34","315727"
"A1S68DTVE9GU76","cs_wg_full_v2_real1","33OOO72IVHMS701KWS0BYOU4O0BCTF","4","0","BANQUET","2","5","1","1677","banquet","2","2018-06-28 17:21:35","315728"
"A29OCOF4PPVQJC","cs_wg_full_v2_real1","3VE8AYVF8MYGCST6KWFHFYJK70IF84","4","0","CARROT","10","5","0","2288","carrot","10","2018-06-28 17:21:35","315729"
"AG430TVZD4313","cs_wg_full_v2_real1","3OF2M9AATGP6CAM7UX6R8V8TE56KZG","4","0","DOLLAR","4","5","1","3646","dollar","4","2018-06-28 17:21:35","315730"
"A3ZRJ5ATKTDSW","cs_wg_full_v2_real1","3TMFV4NEP8FINEF1ALPHJM5K238W8J","0","0","COFFEE","2","5","1","4724","COFFEE","2","2018-06-28 17:21:35","315731"
"A30M5EFYJ9R84T","cs_wg_full_v2_real1","3QAVNHZ3EM5GV8WH352T62UZUK4AL8","0","0","ALMOND","5","5","0","7448","ACORN","ACORN","2018-06-28 17:21:35","315732"
"A2G8DTHDX0XO4I","cs_wg_full_v2_real1","3NQL1CS15R9KNV6EXFIFWXA8O99VYM","0","0","BIKINI","12","5","1","5102","Bikini","12","2018-06-28 17:21:36","315733"
"A2DOIZHRZR5HHU","cs_wg_full_v2_real1","3OVR4I9USPKCKGWDM90YAL7TCGVQ42","8","0","DOMINO","11","5","0","1173","Domino","11","2018-06-28 17:21:36","315734"
"A1UKZRDH1T231M","cs_wg_full_v2_real1","3VZLGYJEYLBCWALETGLGYPGVAELZXK","1","0","DOLLAR","10","5","0","2265","DOLLAR","10","2018-06-28 17:21:37","315735"
"A1EQN91S6T820I","cs_wg_full_v2_real1","3NLZY2D53PQ8IO3YS1ZFW294Y2QLQQ","2","0","CANVAS","5","5","0","1562","canvas","5","2018-06-28 17:21:38","315736"
"ABPM2716DVK3F","cs_wg_full_v2_real1","3OE22WJIGIPB1EQS1FRGNP5NBTJUQT","3","0","BUDGET","5","5","1","3321","Budget","5","2018-06-28 17:21:38","315737"
"A3OTBMKOEQ410P","cs_wg_full_v2_real1","3NLZY2D53PQ8IO3YS1ZFW294Y2QQLV","1","0","COFFEE","8","5","0","2161","coffee","8","2018-06-28 17:21:40","315738"
"A12IOD8IXOEL1P","cs_wg_full_v2_real1","3R8YZBNQ9HJ933EWO7Y5DXR33ILQ7M","4","0","DOMINO","6","5","0","9980","domino","6","2018-06-28 17:21:43","315739"
"A2DOIZHRZR5HHU","cs_wg_full_v2_real1","3OVR4I9USPKCKGWDM90YAL7TCGVQ42","9","0","PILLAR","8","5","0","1068","Pillar","8","2018-06-28 17:21:44","315740"
"A3CI8WWVFXEW74","cs_wg_full_v2_real1","3E47SOBEYQX2YML92G17KHSVDJVCIY","2","0","FIREMAN","3","5","1","2473","Fireman","5","2018-06-28 17:21:45","315741"
"AABTCZKHGB7AR","cs_wg_full_v2_real1","32N49TQG3GJJRD8BH94ZTBS1LI6VAC","0","0","FIREFLY","10","5","0","6462","FIREFLY","10","2018-06-28 17:21:45","315742"
"ADMPIBL7UKJUS","cs_wg_full_v2_real1","3UN61F00HWQUS0FDDT88K3NC8YSR59","1","0","BIKINI","1","5","0","5531","Bikini","1","2018-06-28 17:21:45","315743"
"A140OPI45PUCN1","cs_wg_full_v2_real1","3YW4XOSQKQMNKA6BG011MOXF3HRU1Y","0","0","FORGERY","2","5","0","2730","forgery","2","2018-06-28 17:21:45","315744"
"A1S68DTVE9GU76","cs_wg_full_v2_real1","33OOO72IVHMS701KWS0BYOU4O0BCTF","5","0","PLANET","6","5","0","2655","planet","6","2018-06-28 17:21:45","315745"
"A29OCOF4PPVQJC","cs_wg_full_v2_real1","3VE8AYVF8MYGCST6KWFHFYJK70IF84","5","0","BANQUET","7","5","0","1303","banquet","7","2018-06-28 17:21:45","315746"
"A2DL00FVCOBYHJ","cs_wg_full_v2_real1","3COPXFW7XBDCY6K17O8PHX6F46ZKPV","4","0","FIREMAN","6","5","0","3973","fireman","5","2018-06-28 17:21:46","315747"
"A3ZRJ5ATKTDSW","cs_wg_full_v2_real1","3TMFV4NEP8FINEF1ALPHJM5K238W8J","1","0","PENGUIN","9","5","0","2393","Penguin","9","2018-06-28 17:21:46","315748"
"A1UKZRDH1T231M","cs_wg_full_v2_real1","3VZLGYJEYLBCWALETGLGYPGVAELZXK","2","0","CANVAS","11","5","0","2295","CANVAS","11","2018-06-28 17:21:48","315749"
"AG430TVZD4313","cs_wg_full_v2_real1","3OF2M9AATGP6CAM7UX6R8V8TE56KZG","5","0","SPATULA","7","5","0","1795","spatula","7","2018-06-28 17:21:48","315750"
"ASLGHXA4453BQ","cs_wg_full_v2_real1","3JV9LGBJWTFPBKCH2XAVU59WNKMOGF","4","0","CANVAS","11","5","1","6930","canvas","11","2018-06-28 17:21:48","315751"
"A2TNJ41V0E1WK4","cs_wg_full_v2_real1","3EA3QWIZ4IWJK3NKO2WX9RSZ15VITN","2","0","CARROT","7","5","1","2921","Carrot ","7","2018-06-28 17:21:51","315752"
"ABPM2716DVK3F","cs_wg_full_v2_real1","3OE22WJIGIPB1EQS1FRGNP5NBTJUQT","4","0","ABDOMEN","10","5","0","2171","Abdomen","10","2018-06-28 17:21:51","315753"
"A2G8DTHDX0XO4I","cs_wg_full_v2_real1","3NQL1CS15R9KNV6EXFIFWXA8O99VYM","1","0","JUNGLE","2","5","1","2979","Jungle","2
2","2018-06-28 17:21:51","315754"
"A2DOIZHRZR5HHU","cs_wg_full_v2_real1","3OVR4I9USPKCKGWDM90YAL7TCGVQ42","10","0","SILVER","9","5","0","1148","Silver","9","2018-06-28 17:21:51","315755"
"A30M5EFYJ9R84T","cs_wg_full_v2_real1","3QAVNHZ3EM5GV8WH352T62UZUK4AL8","1","0","MUFFIN","12","5","0","4703","MUFFIN","MUFFIN","2018-06-28 17:21:52","315756"
"A1EQN91S6T820I","cs_wg_full_v2_real1","3NLZY2D53PQ8IO3YS1ZFW294Y2QLQQ","3","0","CASINO","3","5","0","4549","casino","3","2018-06-28 17:21:52","315757"
"A15X0MSBZ74TFT","cs_wg_full_v2_real1","3Y9N9SS8LYCXDB94H9PV0H8OF1AD3Z","0","0","BASKET","12","5","0","9032","basket","12","2018-06-28 17:21:52","315758"
"A2KDYSLV030FVX","cs_wg_full_v2_real1","3YMTUJH0DSHPCWO53DUTFQIGWNUT4J","0","0","TONGUE","2","5","1","8962","tongue","2","2018-06-28 17:21:53","315759"
"A29OCOF4PPVQJC","cs_wg_full_v2_real1","3VE8AYVF8MYGCST6KWFHFYJK70IF84","6","0","ABDOMEN","3","5","0","1862","abdomen","3","2018-06-28 17:21:55","315760"
"A34SVP7NQ7MH17","cs_wg_full_v2_real1","37Z929RLG998EHQGTEQBDTYMA3XTSQ","0","0","SCIENCE","3","5","1","11636","science","3","2018-06-28 17:21:55","315761"
"A3OTBMKOEQ410P","cs_wg_full_v2_real1","3NLZY2D53PQ8IO3YS1ZFW294Y2QQLV","2","0","HEAVEN","2","5","1","2922","heaven ","2","2018-06-28 17:21:55","315762"
"A3CI8WWVFXEW74","cs_wg_full_v2_real1","3E47SOBEYQX2YML92G17KHSVDJVCIY","3","0","FIREMAN","3","5","0","2730","Fireman","3","2018-06-28 17:21:56","315763"
"A1T0ND039EWAVV","cs_wg_full_v2_real1","3M0NZ3JDP1Z3UR14NA2L66PBHFC5ZH","0","0","CHURCH","1","5","0","6148","church","1","2018-06-28 17:21:56","315764"
"A12IOD8IXOEL1P","cs_wg_full_v2_real1","3R8YZBNQ9HJ933EWO7Y5DXR33ILQ7M","5","0","DOMINO","6","5","0","2873","domino","6","2018-06-28 17:21:56","315765"
"A1S68DTVE9GU76","cs_wg_full_v2_real1","33OOO72IVHMS701KWS0BYOU4O0BCTF","6","0","DRAGON","10","5","1","1902","dragon","10","2018-06-28 17:21:56","315766"
"A3G4HX36KVNQC0","cs_wg_full_v2_real1","3WETL7AQWT929YUB237C25KW2KD35I","0","0","BARREL","7","5","1","2807","Barrell","7","2018-06-28 17:21:56","315767"
"A3DG1J21ISJC9O","cs_wg_full_v2_real1","3JW0YLFXRTHTDFBJ8O5NX286KABWWY","0","0","BARREL","4","5","0","4641","Barrel","4","2018-06-28 17:21:57","315768"
"A1UKZRDH1T231M","cs_wg_full_v2_real1","3VZLGYJEYLBCWALETGLGYPGVAELZXK","3","0","JACKET","6","5","0","1583","JACKET","6","2018-06-28 17:21:57","315769"
"A2DOIZHRZR5HHU","cs_wg_full_v2_real1","3OVR4I9USPKCKGWDM90YAL7TCGVQ42","11","0","COFFEE","7","5","0","552","Coffee","7","2018-06-28 17:21:58","315770"
"ASLGHXA4453BQ","cs_wg_full_v2_real1","3JV9LGBJWTFPBKCH2XAVU59WNKMOGF","5","0","CANVAS","11","5","1","1047","canvas","11","2018-06-28 17:21:58","315771"
"AABTCZKHGB7AR","cs_wg_full_v2_real1","32N49TQG3GJJRD8BH94ZTBS1LI6VAC","1","0","HERMIT","12","5","1","3913","HERMIT","12","2018-06-28 17:21:58","315772"
"A140OPI45PUCN1","cs_wg_full_v2_real1","3YW4XOSQKQMNKA6BG011MOXF3HRU1Y","1","0","CANVAS","5","5","0","3001","canvas","5","2018-06-28 17:21:59","315773"
"A2DL00FVCOBYHJ","cs_wg_full_v2_real1","3COPXFW7XBDCY6K17O8PHX6F46ZKPV","5","0","SPONGE","3","5","1","1649","sponge","5","2018-06-28 17:21:59","315774"
"A3ZRJ5ATKTDSW","cs_wg_full_v2_real1","3TMFV4NEP8FINEF1ALPHJM5K238W8J","2","0","PENGUIN","9","5","0","3439","Penguin","9","2018-06-28 17:22:01","315775"
"A3PE20PVSRKCLA","cs_wg_full_v2_real1","3R2UR8A0IAH0X677R7AZIR9RQAIXOG","0","0","BAGPIPE","2","5","1","6950","BAGPIPE","2","2018-06-28 17:22:01","315776"
"ABPM2716DVK3F","cs_wg_full_v2_real1","3OE22WJIGIPB1EQS1FRGNP5NBTJUQT","5","0","SPIRAL","6","5","1","3663","Spiral","6","2018-06-28 17:22:02","315777"
"AG430TVZD4313","cs_wg_full_v2_real1","3OF2M9AATGP6CAM7UX6R8V8TE56KZG","6","0","PRIEST","8","5","0","1912","priest","8","2018-06-28 17:22:02","315778"
"A29OCOF4PPVQJC","cs_wg_full_v2_real1","3VE8AYVF8MYGCST6KWFHFYJK70IF84","7","0","MONKEY","4","5","0","973","monkey","4","2018-06-28 17:22:02","315779"
"A13GUTDMGGZZDL","cs_wg_full_v2_real1","3L2IS5HSFAJQYHD0LNZZJVAI6IWNUZ","0","0","TRAFFIC","4","5","1","5818","traffic","4","2018-06-28 17:22:02","315780"
"ADMPIBL7UKJUS","cs_wg_full_v2_real1","3UN61F00HWQUS0FDDT88K3NC8YSR59","2","0","LIQUID","5","5","1","3268","liquid","5","2018-06-28 17:22:03","315781"
"A2DOIZHRZR5HHU","cs_wg_full_v2_real1","3OVR4I9USPKCKGWDM90YAL7TCGVQ42","12","0","BARREL","3","5","1","1256","Barrel","3","2018-06-28 17:22:05","315782"
"A30M5EFYJ9R84T","cs_wg_full_v2_real1","3QAVNHZ3EM5GV8WH352T62UZUK4AL8","2","0","ADDICT","9","5","0","2455","ADDICT","ADDICT","2018-06-28 17:22:05","315783"
"A1EQN91S6T820I","cs_wg_full_v2_real1","3NLZY2D53PQ8IO3YS1ZFW294Y2QLQQ","4","0","DOLLAR","12","5","0","2138","dollar","12","2018-06-28 17:22:06","315784"
"A2G8DTHDX0XO4I","cs_wg_full_v2_real1","3NQL1CS15R9KNV6EXFIFWXA8O99VYM","2","0","ROYALTY","10","5","0","2597","ROYALTY","10","2018-06-28 17:22:06","315785"
"A3H2Z8DCHVGTO6","cs_wg_full_v2_real1","3VAR3R6G1P2AI56ZJZY72SSYZ19O8Z","0","0","BUCKET","7","5","0","4219","bucket","7","2018-06-28 17:22:06","315786"
"A12IOD8IXOEL1P","cs_wg_full_v2_real1","3R8YZBNQ9HJ933EWO7Y5DXR33ILQ7M","6","0","SPATULA","5","5","0","1855","spatula","5","2018-06-28 17:22:07","315787"
"A2TNJ41V0E1WK4","cs_wg_full_v2_real1","3EA3QWIZ4IWJK3NKO2WX9RSZ15VITN","3","0","TENNIS","1","5","0","2852","Tennis","1","2018-06-28 17:22:07","315788"
"A1UKZRDH1T231M","cs_wg_full_v2_real1","3VZLGYJEYLBCWALETGLGYPGVAELZXK","4","0","HERMIT","12","5","1","2343","HERMIT","12","2018-06-28 17:22:07","315789"
"A3CI8WWVFXEW74","cs_wg_full_v2_real1","3E47SOBEYQX2YML92G17KHSVDJVCIY","4","0","WALRUS","11","5","0","2561","Walrus","11","2018-06-28 17:22:07","315790"
"ASLGHXA4453BQ","cs_wg_full_v2_real1","3JV9LGBJWTFPBKCH2XAVU59WNKMOGF","6","0","ALMOND","8","5","1","2051","almond","5","2018-06-28 17:22:08","315791"
"A1S68DTVE9GU76","cs_wg_full_v2_real1","33OOO72IVHMS701KWS0BYOU4O0BCTF","7","0","DEMON","3","5","1","2888","demon","3","2018-06-28 17:22:08","315792"
"A38ZSUV2A2HCB9","cs_wg_full_v2_real1","3R0T90IZ1SDO2VFECS14Z5FFY63GCA","0","0","BULLET","6","5","0","5274","Bullet","6 points","2018-06-28 17:22:09","315793"
"A140OPI45PUCN1","cs_wg_full_v2_real1","3YW4XOSQKQMNKA6BG011MOXF3HRU1Y","2","0","SUMMER","6","5","0","1565","summer","6","2018-06-28 17:22:10","315794"
"A3DG1J21ISJC9O","cs_wg_full_v2_real1","3JW0YLFXRTHTDFBJ8O5NX286KABWWY","1","0","FIREFLY","6","5","0","4137","Firefly","6","2018-06-28 17:22:10","315795"
"A2DOIZHRZR5HHU","cs_wg_full_v2_real1","3OVR4I9USPKCKGWDM90YAL7TCGVQ42","13","0","ANIMAL","2","5","0","590","Animal","2","2018-06-28 17:22:11","315796"
"AHV4U78TUUDKI","cs_wg_full_v2_real1","3NG53N1RLVKS35I0YZBMRSXO9668P1","0","0","DEMON","1","5","0","3437","demon","1","2018-06-28 17:22:11","315797"
"AG430TVZD4313","cs_wg_full_v2_real1","3OF2M9AATGP6CAM7UX6R8V8TE56KZG","7","0","SHIVER","11","5","0","1223","shiver","11","2018-06-28 17:22:11","315798"
"A3OTBMKOEQ410P","cs_wg_full_v2_real1","3NLZY2D53PQ8IO3YS1ZFW294Y2QQLV","3","0","HEAVEN","2","5","1","3555","heaven","2","2018-06-28 17:22:12","315799"
"ABPM2716DVK3F","cs_wg_full_v2_real1","3OE22WJIGIPB1EQS1FRGNP5NBTJUQT","6","0","SILVER","4","5","1","2767","Silver","4
","2018-06-28 17:22:12","315800"
"AABTCZKHGB7AR","cs_wg_full_v2_real1","32N49TQG3GJJRD8BH94ZTBS1LI6VAC","2","0","BUDGET","2","5","1","3166","BUDGET","2","2018-06-28 17:22:12","315801"
"A29OCOF4PPVQJC","cs_wg_full_v2_real1","3VE8AYVF8MYGCST6KWFHFYJK70IF84","8","0","ROYALTY","1","5","1","2464","royalty","1","2018-06-28 17:22:13","315802"
"AX00W57XAZBWO","cs_wg_full_v2_real1","3GFK2QRXX9IZ0WWZCNIE72VT0D85WR","0","0","HEAVEN","5","5","1","6357","heaven","5","2018-06-28 17:22:13","315803"
"A3G4HX36KVNQC0","cs_wg_full_v2_real1","3WETL7AQWT929YUB237C25KW2KD35I","1","0","WALNUT","9","5","0","4587","Walnut","10","2018-06-28 17:22:14","315804"
"A2DL00FVCOBYHJ","cs_wg_full_v2_real1","3COPXFW7XBDCY6K17O8PHX6F46ZKPV","6","0","SPONGE","3","5","0","3325","sponge","5","2018-06-28 17:22:14","315805"
"AZ57C58RDAMJF","cs_wg_full_v2_real1","3S96KQ6I9M52CS7YWOVMIUCM90NTDW","0","0","ADDICT","2","5","0","5875","addict","2","2018-06-28 17:22:14","315806"
"A1T0ND039EWAVV","cs_wg_full_v2_real1","3M0NZ3JDP1Z3UR14NA2L66PBHFC5ZH","1","0","CHURCH","1","5","1","3905","church","1","2018-06-28 17:22:16","315807"
"A1UKZRDH1T231M","cs_wg_full_v2_real1","3VZLGYJEYLBCWALETGLGYPGVAELZXK","5","0","DOLLAR","10","5","0","1833","DOLLAR","10","2018-06-28 17:22:16","315808"
"A3CI8WWVFXEW74","cs_wg_full_v2_real1","3E47SOBEYQX2YML92G17KHSVDJVCIY","5","0","FACTORY","2","5","1","2170","factory","2","2018-06-28 17:22:17","315809"
"ASLGHXA4453BQ","cs_wg_full_v2_real1","3JV9LGBJWTFPBKCH2XAVU59WNKMOGF","7","0","ANIMAL","9","5","1","2473","animal","9","2018-06-28 17:22:17","315810"
"A3PE20PVSRKCLA","cs_wg_full_v2_real1","3R2UR8A0IAH0X677R7AZIR9RQAIXOG","1","0","BABOON","9","5","0","5267","BABOON","9","2018-06-28 17:22:17","315811"
"A2DOIZHRZR5HHU","cs_wg_full_v2_real1","3OVR4I9USPKCKGWDM90YAL7TCGVQ42","14","0","BALCONY","12","5","0","1002","Balcony","12","2018-06-28 17:22:18","315812"
"A34SVP7NQ7MH17","cs_wg_full_v2_real1","37Z929RLG998EHQGTEQBDTYMA3XTSQ","1","0","BLANKET","1","5","1","3308","blanket","1","2018-06-28 17:22:18","315813"
"A1S68DTVE9GU76","cs_wg_full_v2_real1","33OOO72IVHMS701KWS0BYOU4O0BCTF","8","0","GIRAFFE","9","5","1","1596","giraffe","9","2018-06-28 17:22:18","315814"
"A30M5EFYJ9R84T","cs_wg_full_v2_real1","3QAVNHZ3EM5GV8WH352T62UZUK4AL8","3","0","SCIENCE","11","5","0","2091","SCIENCE","SCIENCE","2018-06-28 17:22:19","315815"
"A2TNJ41V0E1WK4","cs_wg_full_v2_real1","3EA3QWIZ4IWJK3NKO2WX9RSZ15VITN","4","0","CARROT","7","5","0","3369","Carrot ","7","2018-06-28 17:22:19","315816"
"A140OPI45PUCN1","cs_wg_full_v2_real1","3YW4XOSQKQMNKA6BG011MOXF3HRU1Y","3","0","PEACOCK","9","5","0","1752","peacock","9","2018-06-28 17:22:20","315817"
"A13GUTDMGGZZDL","cs_wg_full_v2_real1","3L2IS5HSFAJQYHD0LNZZJVAI6IWNUZ","1","0","ADDICT","10","5","1","3417","addict","10","2018-06-28 17:22:20","315818"
"A3DG1J21ISJC9O","cs_wg_full_v2_real1","3JW0YLFXRTHTDFBJ8O5NX286KABWWY","2","0","BUCKET","2","5","1","2456","Bucket","2","2018-06-28 17:22:21","315819"
"A15X0MSBZ74TFT","cs_wg_full_v2_real1","3Y9N9SS8LYCXDB94H9PV0H8OF1AD3Z","1","0","PRIEST","5","5","1","8253","priest","5","2018-06-28 17:22:21","315820"
"A29OCOF4PPVQJC","cs_wg_full_v2_real1","3VE8AYVF8MYGCST6KWFHFYJK70IF84","9","0","ALMOND","5","5","0","1467","almond","5","2018-06-28 17:22:21","315821"
"A2KDYSLV030FVX","cs_wg_full_v2_real1","3YMTUJH0DSHPCWO53DUTFQIGWNUT4J","1","0","PEANUT","11","5","1","7691","peanut","11","2018-06-28 17:22:21","315822"
"A3W2TEQC53S3WW","cs_wg_full_v2_real1","3OCHAWUVGOLH7FMSTFI6BASI658KXJ","0","0","SUNBURN","7","5","1","4549","sunscreen","7","2018-06-28 17:22:21","315823"
"A3BH1OZZ0VRLXI","cs_wg_full_v2_real1","38F71OA9GTXVXHVAEXP0KGKFR57FMS","0","0","SUNBURN","5","5","0","9186","subbest ",".20","2018-06-28 17:22:21","315824"
"AV8SKBUQ7KOU5","cs_wg_full_v2_real1","3ZAZR5XV01JOTCAJ2KPTKCVL9WXCZV","0","0","JACKET","9","5","1","8382","jacket","9","2018-06-28 17:22:22","315825"
"A3H2Z8DCHVGTO6","cs_wg_full_v2_real1","3VAR3R6G1P2AI56ZJZY72SSYZ19O8Z","1","0","DRAGON","8","5","0","2540","dragon","8","2018-06-28 17:22:22","315826"
"ABPM2716DVK3F","cs_wg_full_v2_real1","3OE22WJIGIPB1EQS1FRGNP5NBTJUQT","7","0","SPATULA","11","5","0","1247","Spatula","11","2018-06-28 17:22:22","315827"
"A3ZRJ5ATKTDSW","cs_wg_full_v2_real1","3TMFV4NEP8FINEF1ALPHJM5K238W8J","3","0","CRICKET","10","5","1","4299","Cricket","10","2018-06-28 17:22:23","315828"
"AG430TVZD4313","cs_wg_full_v2_real1","3OF2M9AATGP6CAM7UX6R8V8TE56KZG","8","0","PRIEST","8","5","0","2279","priest","8","2018-06-28 17:22:23","315829"
"A2DOIZHRZR5HHU","cs_wg_full_v2_real1","3OVR4I9USPKCKGWDM90YAL7TCGVQ42","15","0","SILVER","9","5","0","717","Silver","9","2018-06-28 17:22:24","315830"
"ADMPIBL7UKJUS","cs_wg_full_v2_real1","3UN61F00HWQUS0FDDT88K3NC8YSR59","3","0","BALCONY","11","5","1","4746","balcony ","11","2018-06-28 17:22:25","315831"
"A1UKZRDH1T231M","cs_wg_full_v2_real1","3VZLGYJEYLBCWALETGLGYPGVAELZXK","6","0","PARENT","8","5","0","1429","PARENT","8","2018-06-28 17:22:25","315832"
"A38ZSUV2A2HCB9","cs_wg_full_v2_real1","3R0T90IZ1SDO2VFECS14Z5FFY63GCA","1","0","BIKINI","12","5","1","4870","bikini","12","2018-06-28 17:22:25","315833"
"A2G8DTHDX0XO4I","cs_wg_full_v2_real1","3NQL1CS15R9KNV6EXFIFWXA8O99VYM","3","0","SPONGE","6","5","1","2286","SPONGE","6","2018-06-28 17:22:26","315834"
"A3CI8WWVFXEW74","cs_wg_full_v2_real1","3E47SOBEYQX2YML92G17KHSVDJVCIY","6","0","JUNGLE","7","5","0","1921","jungle","7","2018-06-28 17:22:26","315835"
"A3OTBMKOEQ410P","cs_wg_full_v2_real1","3NLZY2D53PQ8IO3YS1ZFW294Y2QQLV","4","0","DRAGON","9","5","0","1620","dragon","9","2018-06-28 17:22:26","315836"
"A3G4HX36KVNQC0","cs_wg_full_v2_real1","3WETL7AQWT929YUB237C25KW2KD35I","2","0","WAFFLE","5","5","0","1797","Waffle","5","2018-06-28 17:22:26","315837"
"A1EQN91S6T820I","cs_wg_full_v2_real1","3NLZY2D53PQ8IO3YS1ZFW294Y2QLQQ","5","0","BARREL","11","5","0","1438","barrel","11","2018-06-28 17:22:26","315838"
"AHV4U78TUUDKI","cs_wg_full_v2_real1","3NG53N1RLVKS35I0YZBMRSXO9668P1","1","0","DEMON","1","5","1","2245","demon","1","2018-06-28 17:22:27","315839"
"ASLGHXA4453BQ","cs_wg_full_v2_real1","3JV9LGBJWTFPBKCH2XAVU59WNKMOGF","8","0","MUFFIN","2","5","1","3604","muffin","2","2018-06-28 17:22:27","315840"
"A12IOD8IXOEL1P","cs_wg_full_v2_real1","3R8YZBNQ9HJ933EWO7Y5DXR33ILQ7M","7","0","CARROT","1","5","0","1985","carrot","1","2018-06-28 17:22:27","315841"
"A2DL00FVCOBYHJ","cs_wg_full_v2_real1","3COPXFW7XBDCY6K17O8PHX6F46ZKPV","7","0","BATTERY","1","5","0","2614","battery","5","2018-06-28 17:22:28","315842"
"A1S68DTVE9GU76","cs_wg_full_v2_real1","33OOO72IVHMS701KWS0BYOU4O0BCTF","9","0","CRICKET","8","5","1","1317","cricket","8","2018-06-28 17:22:28","315843"
"A1T0ND039EWAVV","cs_wg_full_v2_real1","3M0NZ3JDP1Z3UR14NA2L66PBHFC5ZH","2","0","PENGUIN","6","5","1","3203","penguin",,"2018-06-28 17:22:28","315844"
"AX00W57XAZBWO","cs_wg_full_v2_real1","3GFK2QRXX9IZ0WWZCNIE72VT0D85WR","1","0","JAVELIN","2","5","1","3508","javelin","2","2018-06-28 17:22:29","315845"
"ANUMWP3PGWQBJ","cs_wg_full_v2_real1","3TOK3KHVJTJ6IR1G9U61OSW3OH3O7C","0","0","FIREMAN","6","5","1","7893","FIREMAN","6","2018-06-28 17:22:30","315846"
"AZ57C58RDAMJF","cs_wg_full_v2_real1","3S96KQ6I9M52CS7YWOVMIUCM90NTDW","1","0","PICTURE","8","5","1","3083","picture","8","2018-06-28 17:22:30","315847"
"A140OPI45PUCN1","cs_wg_full_v2_real1","3YW4XOSQKQMNKA6BG011MOXF3HRU1Y","4","0","BLANKET","8","5","0","918","blanket","8","2018-06-28 17:22:31","315848"
"A62S68DZEDAKA","cs_wg_full_v2_real1","3B2X28YI3WG3VXY2MFWNCUW8M716BS","0","0","BAGPIPE","2","5","0","5593","bagpipe","2","2018-06-28 17:22:31","315849"
"A2DOIZHRZR5HHU","cs_wg_full_v2_real1","3OVR4I9USPKCKGWDM90YAL7TCGVQ42","16","0","ANIMAL","2","5","1","1090","Animal","2","2018-06-28 17:22:31","315850"
"A1N85HSLCY9OK1","cs_wg_full_v2_real1","3Y4W8Q93LZLHPKBN1JV1JC076L4DVX","0","0","BASKET","10","5","0","4085","basket","10","2018-06-28 17:22:31","315851"
"AYGJUG9FNEJVI","cs_wg_full_v2_real1","3ND9UOO81K3D2LZK4AYLORRQM37WL5","0","0","GOGGLES","10","5","1","6189","Goggles","10","2018-06-28 17:22:31","315852"
"A30M5EFYJ9R84T","cs_wg_full_v2_real1","3QAVNHZ3EM5GV8WH352T62UZUK4AL8","4","0","ANIMAL","1","5","0","1116","ANIMAL","ANIMAL","2018-06-28 17:22:31","315853"
"AABTCZKHGB7AR","cs_wg_full_v2_real1","32N49TQG3GJJRD8BH94ZTBS1LI6VAC","3","0","BUDGET","2","5","1","4486","BUDGET","2","2018-06-28 17:22:31","315854"
"ABPM2716DVK3F","cs_wg_full_v2_real1","3OE22WJIGIPB1EQS1FRGNP5NBTJUQT","8","0","SPIRAL","6","5","0","3273","Spiral","6","2018-06-28 17:22:32","315855"
"A29OCOF4PPVQJC","cs_wg_full_v2_real1","3VE8AYVF8MYGCST6KWFHFYJK70IF84","10","0","MONKEY","4","5","0","3908","monkey","4","2018-06-28 17:22:32","315856"
"A3TODSYUYQ1V65","cs_wg_full_v2_real1","39GXDJN2OTF58PFWKBKLXKM6VU6V88","0","0","BEGGAR","1","5","0","4715","BUGGER","1","2018-06-28 17:22:32","315857"
"A3DG1J21ISJC9O","cs_wg_full_v2_real1","3JW0YLFXRTHTDFBJ8O5NX286KABWWY","3","0","FIREFLY","6","5","0","2972","Firefly","6","2018-06-28 17:22:33","315858"
"AG430TVZD4313","cs_wg_full_v2_real1","3OF2M9AATGP6CAM7UX6R8V8TE56KZG","9","0","SHIVER","11","5","0","1251","shiver","11","2018-06-28 17:22:34","315859"
"A34SVP7NQ7MH17","cs_wg_full_v2_real1","37Z929RLG998EHQGTEQBDTYMA3XTSQ","2","0","CASINO","4","5","0","3498","casino","4","2018-06-28 17:22:34","315860"
"A1UKZRDH1T231M","cs_wg_full_v2_real1","3VZLGYJEYLBCWALETGLGYPGVAELZXK","7","0","DOLLAR","10","5","0","1227","DOLLAR","10","2018-06-28 17:22:34","315861"
"A3H2Z8DCHVGTO6","cs_wg_full_v2_real1","3VAR3R6G1P2AI56ZJZY72SSYZ19O8Z","2","0","FORGERY","12","5","0","3113","forgery","12","2018-06-28 17:22:35","315862"
"A3PE20PVSRKCLA","cs_wg_full_v2_real1","3R2UR8A0IAH0X677R7AZIR9RQAIXOG","2","0","TONGUE","8","5","0","5166","TONGUE","8","2018-06-28 17:22:35","315863"
"A2TNJ41V0E1WK4","cs_wg_full_v2_real1","3EA3QWIZ4IWJK3NKO2WX9RSZ15VITN","5","0","DAGGER","5","5","0","2894","Dagger","5","2018-06-28 17:22:35","315864"
"ASLGHXA4453BQ","cs_wg_full_v2_real1","3JV9LGBJWTFPBKCH2XAVU59WNKMOGF","9","0","ANIMAL","9","5","0","2092","animal","9","2018-06-28 17:22:36","315865"
"A13GUTDMGGZZDL","cs_wg_full_v2_real1","3L2IS5HSFAJQYHD0LNZZJVAI6IWNUZ","2","0","FRIEND","8","5","1","3654","friend","8","2018-06-28 17:22:36","315866"
"A3ZRJ5ATKTDSW","cs_wg_full_v2_real1","3TMFV4NEP8FINEF1ALPHJM5K238W8J","4","0","PEACOCK","11","5","1","3827","peacock","11","2018-06-28 17:22:37","315867"
"A1NNHRXAIIHH9D","cs_wg_full_v2_real1","3SB5N7Y3O35483KY0C8K44DEPH6G0H","0","0","CASINO","11","5","1","5335","casino","11","2018-06-28 17:22:37","315868"
"A2DOIZHRZR5HHU","cs_wg_full_v2_real1","3OVR4I9USPKCKGWDM90YAL7TCGVQ42","17","0","PRIEST","1","5","1","1150","Priest","1","2018-06-28 17:22:38","315869"
"A1S68DTVE9GU76","cs_wg_full_v2_real1","33OOO72IVHMS701KWS0BYOU4O0BCTF","10","0","BALCONY","12","5","1","1347","balcony","12","2018-06-28 17:22:39","315870"
"A3CI8WWVFXEW74","cs_wg_full_v2_real1","3E47SOBEYQX2YML92G17KHSVDJVCIY","7","0","FACTORY","2","5","1","4774","factory","2","2018-06-28 17:22:39","315871"
"A2G8DTHDX0XO4I","cs_wg_full_v2_real1","3NQL1CS15R9KNV6EXFIFWXA8O99VYM","4","0","JUNGLE","2","5","0","2742","JUNGLE","2","2018-06-28 17:22:40","315872"
"AHV4U78TUUDKI","cs_wg_full_v2_real1","3NG53N1RLVKS35I0YZBMRSXO9668P1","2","0","PICTURE","3","5","0","2511","picture","3","2018-06-28 17:22:40","315873"
"A15X0MSBZ74TFT","cs_wg_full_v2_real1","3Y9N9SS8LYCXDB94H9PV0H8OF1AD3Z","2","0","FACTORY","3","5","0","5274","factory","3","2018-06-28 17:22:40","315874"
"A140OPI45PUCN1","cs_wg_full_v2_real1","3YW4XOSQKQMNKA6BG011MOXF3HRU1Y","5","0","CHURCH","1","5","0","1281","church","1","2018-06-28 17:22:40","315875"
"A38ZSUV2A2HCB9","cs_wg_full_v2_real1","3R0T90IZ1SDO2VFECS14Z5FFY63GCA","2","0","HERMIT","5","5","0","4812","hermit","5","2018-06-28 17:22:40","315876"
"A29OCOF4PPVQJC","cs_wg_full_v2_real1","3VE8AYVF8MYGCST6KWFHFYJK70IF84","11","0","SPONGE","12","5","0","1125","sponge","12","2018-06-28 17:22:41","315877"
"ABPM2716DVK3F","cs_wg_full_v2_real1","3OE22WJIGIPB1EQS1FRGNP5NBTJUQT","9","0","FORGERY","2","5","1","1901","Forgery","2","2018-06-28 17:22:42","315878"
"A1EQN91S6T820I","cs_wg_full_v2_real1","3NLZY2D53PQ8IO3YS1ZFW294Y2QLQQ","6","0","PENGUIN","7","5","0","1439","penguin","7","2018-06-28 17:22:42","315879"
"A1UKZRDH1T231M","cs_wg_full_v2_real1","3VZLGYJEYLBCWALETGLGYPGVAELZXK","8","0","DOLLAR","10","5","0","1209","DOLLAR","10","2018-06-28 17:22:42","315880"
"A2DL00FVCOBYHJ","cs_wg_full_v2_real1","3COPXFW7XBDCY6K17O8PHX6F46ZKPV","8","0","GIRAFFE","9","5","0","3459","giraffe","5","2018-06-28 17:22:43","315881"
"A3OTBMKOEQ410P","cs_wg_full_v2_real1","3NLZY2D53PQ8IO3YS1ZFW294Y2QQLV","5","0","FRIEND","5","5","1","3266","friend ","5","2018-06-28 17:22:43","315882"
"AABTCZKHGB7AR","cs_wg_full_v2_real1","32N49TQG3GJJRD8BH94ZTBS1LI6VAC","4","0","TENNIS","11","5","0","3310","TENNIS","11","2018-06-28 17:22:43","315883"
"ADMPIBL7UKJUS","cs_wg_full_v2_real1","3UN61F00HWQUS0FDDT88K3NC8YSR59","4","0","BATTERY","2","5","0","4469","battery","2","2018-06-28 17:22:43","315884"
"A3G4HX36KVNQC0","cs_wg_full_v2_real1","3WETL7AQWT929YUB237C25KW2KD35I","3","0","BAGPIPE","6","5","0","2501","Bagpipe","5","2018-06-28 17:22:44","315885"
"A3SNR937FTFKFP","cs_wg_full_v2_real1","3LS2AMNW5FRGO96V5TF7OJDYT7VQOC","0","0","FACTORY","9","5","1","7199","factory","9","2018-06-28 17:22:44","315886"
"A3DG1J21ISJC9O","cs_wg_full_v2_real1","3JW0YLFXRTHTDFBJ8O5NX286KABWWY","4","0","CASINO","3","5","0","3055","Casino","3","2018-06-28 17:22:44","315887"
"A2KDYSLV030FVX","cs_wg_full_v2_real1","3YMTUJH0DSHPCWO53DUTFQIGWNUT4J","2","0","GIRAFFE","6","5","0","6177","giraffe","6","2018-06-28 17:22:44","315888"
"AZ57C58RDAMJF","cs_wg_full_v2_real1","3S96KQ6I9M52CS7YWOVMIUCM90NTDW","2","0","EARDRUM","10","5","1","4024","eardrum","10","2018-06-28 17:22:44","315889"
"A2DOIZHRZR5HHU","cs_wg_full_v2_real1","3OVR4I9USPKCKGWDM90YAL7TCGVQ42","18","0","COFFEE","7","5","0","650","Coffee","7","2018-06-28 17:22:44","315890"
"A1T0ND039EWAVV","cs_wg_full_v2_real1","3M0NZ3JDP1Z3UR14NA2L66PBHFC5ZH","3","0","CHURCH","1","5","1","3987","church","1","2018-06-28 17:22:45","315891"
"A30M5EFYJ9R84T","cs_wg_full_v2_real1","3QAVNHZ3EM5GV8WH352T62UZUK4AL8","5","0","HEAVEN","8","5","0","3181","HEAVAN","HEAVAN","2018-06-28 17:22:45","315892"
"ASLGHXA4453BQ","cs_wg_full_v2_real1","3JV9LGBJWTFPBKCH2XAVU59WNKMOGF","10","0","BUDGET","4","5","1","1542","budget","4","2018-06-28 17:22:45","315893"
"A3BH1OZZ0VRLXI","cs_wg_full_v2_real1","38F71OA9GTXVXHVAEXP0KGKFR57FMS","1","0","SUNBURN","5","5","0","6248","sunburn ","5","2018-06-28 17:22:45","315894"
"A3H2Z8DCHVGTO6","cs_wg_full_v2_real1","3VAR3R6G1P2AI56ZJZY72SSYZ19O8Z","3","0","WAFFLE","2","5","0","1780","waffle","2","2018-06-28 17:22:45","315895"
"ANUMWP3PGWQBJ","cs_wg_full_v2_real1","3TOK3KHVJTJ6IR1G9U61OSW3OH3O7C","1","0","FRIEND","12","5","0","3041","FRIEND","5","2018-06-28 17:22:46","315896"
"A2TNJ41V0E1WK4","cs_wg_full_v2_real1","3EA3QWIZ4IWJK3NKO2WX9RSZ15VITN","6","0","TENNIS","1","5","1","2741","Tennis","1","2018-06-28 17:22:46","315897"
"AYGJUG9FNEJVI","cs_wg_full_v2_real1","3ND9UOO81K3D2LZK4AYLORRQM37WL5","1","0","BUDGET","4","5","1","3921","Budget","4","2018-06-28 17:22:47","315898"
"A3W2TEQC53S3WW","cs_wg_full_v2_real1","3OCHAWUVGOLH7FMSTFI6BASI658KXJ","1","0","TENNIS","6","5","0","8803","Tennis","6","2018-06-28 17:22:47","315899"
"A1N85HSLCY9OK1","cs_wg_full_v2_real1","3Y4W8Q93LZLHPKBN1JV1JC076L4DVX","1","0","BAGPIPE","1","5","1","4443","bagpipe","1","2018-06-28 17:22:47","315900"
"A1S68DTVE9GU76","cs_wg_full_v2_real1","33OOO72IVHMS701KWS0BYOU4O0BCTF","11","0","CHORUS","4","5","1","1520","chorus","4","2018-06-28 17:22:48","315901"
"A3ZRJ5ATKTDSW","cs_wg_full_v2_real1","3TMFV4NEP8FINEF1ALPHJM5K238W8J","5","0","DOMINO","5","5","0","2302","domino","5","2018-06-28 17:22:48","315902"
"AV8SKBUQ7KOU5","cs_wg_full_v2_real1","3ZAZR5XV01JOTCAJ2KPTKCVL9WXCZV","1","0","HERMIT","6","5","0","5813","hermet","6","2018-06-28 17:22:48","315903"
"A3PE20PVSRKCLA","cs_wg_full_v2_real1","3R2UR8A0IAH0X677R7AZIR9RQAIXOG","3","0","TRAFFIC","7","5","1","3055","TRAFFIC","7","2018-06-28 17:22:48","315904"
"AG430TVZD4313","cs_wg_full_v2_real1","3OF2M9AATGP6CAM7UX6R8V8TE56KZG","10","0","GIRAFFE","12","5","0","4914","giraffe","12","2018-06-28 17:22:49","315905"
"A3CI8WWVFXEW74","cs_wg_full_v2_real1","3E47SOBEYQX2YML92G17KHSVDJVCIY","8","0","FIREMAN","3","5","0","1471","fireman","3","2018-06-28 17:22:49","315906"
"A62S68DZEDAKA","cs_wg_full_v2_real1","3B2X28YI3WG3VXY2MFWNCUW8M716BS","1","0","SMOKER","8","5","0","4545","smoker","8","2018-06-28 17:22:50","315907"
"A1NNHRXAIIHH9D","cs_wg_full_v2_real1","3SB5N7Y3O35483KY0C8K44DEPH6G0H","1","0","CASINO","11","5","0","2159","casino","11","2018-06-28 17:22:50","315908"
"A3TODSYUYQ1V65","cs_wg_full_v2_real1","39GXDJN2OTF58PFWKBKLXKM6VU6V88","1","0","BEGGAR","1","5","1","3032","BEGGER","1","2018-06-28 17:22:50","315909"
"A32TE6EV146OW","cs_wg_full_v2_real1","3JV9LGBJWTFPBKCH2XAVU59WNKNGO8","0","0","CHURCH","7","5","0","2244","church","7","2018-06-28 17:22:50","315910"
"AMI4OR8CUAIED","cs_wg_full_v2_real1","3FFJ6VRIL1PI4UQTQ08NPGQU4UYI0B","0","0","TRAFFIC","6","5","1","5109","Traffic","6","2018-06-28 17:22:50","315911"
"A29OCOF4PPVQJC","cs_wg_full_v2_real1","3VE8AYVF8MYGCST6KWFHFYJK70IF84","12","0","DRAGON","9","5","0","1581","dragon","9","2018-06-28 17:22:50","315912"
"ABPM2716DVK3F","cs_wg_full_v2_real1","3OE22WJIGIPB1EQS1FRGNP5NBTJUQT","10","0","SPATULA","11","5","0","1581","Spatula","11","2018-06-28 17:22:51","315913"
"AHV4U78TUUDKI","cs_wg_full_v2_real1","3NG53N1RLVKS35I0YZBMRSXO9668P1","3","0","DEMON","1","5","1","2807","demon","1","2018-06-28 17:22:51","315914"
"A13GUTDMGGZZDL","cs_wg_full_v2_real1","3L2IS5HSFAJQYHD0LNZZJVAI6IWNUZ","3","0","SILVER","12","5","0","3817","silver","12","2018-06-28 17:22:51","315915"
"A2DOIZHRZR5HHU","cs_wg_full_v2_real1","3OVR4I9USPKCKGWDM90YAL7TCGVQ42","19","0","BARREL","3","5","1","1095","Barrel","3","2018-06-28 17:22:52","315916"
"A34SVP7NQ7MH17","cs_wg_full_v2_real1","37Z929RLG998EHQGTEQBDTYMA3XTSQ","3","0","CARROT","11","5","0","2953","carrot","11","2018-06-28 17:22:52","315917"
"AX00W57XAZBWO","cs_wg_full_v2_real1","3GFK2QRXX9IZ0WWZCNIE72VT0D85WR","2","0","SPIRAL","3","5","1","9030","spiral ","3","2018-06-28 17:22:52","315918"
"A38ZSUV2A2HCB9","cs_wg_full_v2_real1","3R0T90IZ1SDO2VFECS14Z5FFY63GCA","3","0","CHORUS","9","5","0","1964","chorus","9","2018-06-28 17:22:53","315919"
"A2G8DTHDX0XO4I","cs_wg_full_v2_real1","3NQL1CS15R9KNV6EXFIFWXA8O99VYM","5","0","BUCKET","11","5","0","2309","BUCKET","11
","2018-06-28 17:22:53","315920"
"A140OPI45PUCN1","cs_wg_full_v2_real1","3YW4XOSQKQMNKA6BG011MOXF3HRU1Y","6","0","PEACOCK","9","5","0","2780","peacock","9","2018-06-28 17:22:53","315921"
"A3DG1J21ISJC9O","cs_wg_full_v2_real1","3JW0YLFXRTHTDFBJ8O5NX286KABWWY","5","0","GOGGLES","8","5","0","2416","Goggles","8","2018-06-28 17:22:54","315922"
"A15X0MSBZ74TFT","cs_wg_full_v2_real1","3Y9N9SS8LYCXDB94H9PV0H8OF1AD3Z","3","0","COFFEE","6","5","1","2496","coffee","6","2018-06-28 17:22:54","315923"
"A3G4HX36KVNQC0","cs_wg_full_v2_real1","3WETL7AQWT929YUB237C25KW2KD35I","4","0","WAFFLE","5","5","0","2528","Waffle","5","2018-06-28 17:22:56","315924"
"A3OTBMKOEQ410P","cs_wg_full_v2_real1","3NLZY2D53PQ8IO3YS1ZFW294Y2QQLV","6","0","SUMMER","7","5","0","1834","summer","7","2018-06-28 17:22:57","315925"
"A1T0ND039EWAVV","cs_wg_full_v2_real1","3M0NZ3JDP1Z3UR14NA2L66PBHFC5ZH","4","0","BEAVER","5","5","0","3945","beaver","5","2018-06-28 17:22:57","315926"
"A34LAJH3Q4GEPC","cs_wg_full_v2_real1","3D4CH1LGEAUM4X8B08RDXFE7SL0G9T","0","0","SPATULA","1","5","0","7045","spatula","1","2018-06-28 17:22:57","315927"
"A1S68DTVE9GU76","cs_wg_full_v2_real1","33OOO72IVHMS701KWS0BYOU4O0BCTF","12","0","BULLET","1","5","1","1878","bullet","1","2018-06-28 17:22:57","315928"
"A1UKZRDH1T231M","cs_wg_full_v2_real1","3VZLGYJEYLBCWALETGLGYPGVAELZXK","9","0","BABOON","5","5","0","1539","BABOON","5","2018-06-28 17:22:58","315929"
"A30M5EFYJ9R84T","cs_wg_full_v2_real1","3QAVNHZ3EM5GV8WH352T62UZUK4AL8","6","0","JUNGLE","6","5","0","1928","JUNGLE","JUNGLE","2018-06-28 17:22:58","315930"
"ASLGHXA4453BQ","cs_wg_full_v2_real1","3JV9LGBJWTFPBKCH2XAVU59WNKMOGF","11","0","SPIRAL","6","5","0","6053","spiral","6","2018-06-28 17:22:58","315931"
"AZ57C58RDAMJF","cs_wg_full_v2_real1","3S96KQ6I9M52CS7YWOVMIUCM90NTDW","3","0","BEAVER","4","5","1","2726","beaver","4","2018-06-28 17:22:58","315932"
"A2DOIZHRZR5HHU","cs_wg_full_v2_real1","3OVR4I9USPKCKGWDM90YAL7TCGVQ42","20","0","MAGNET","5","5","0","863","Magnet","5","2018-06-28 17:22:59","315933"
"A29OCOF4PPVQJC","cs_wg_full_v2_real1","3VE8AYVF8MYGCST6KWFHFYJK70IF84","13","0","DRAGON","9","5","0","1255","dragon","9","2018-06-28 17:22:59","315934"
"A1EQN91S6T820I","cs_wg_full_v2_real1","3NLZY2D53PQ8IO3YS1ZFW294Y2QLQQ","7","0","SPONGE","2","5","1","3805","sponge","2","2018-06-28 17:22:59","315935"
"A2DL00FVCOBYHJ","cs_wg_full_v2_real1","3COPXFW7XBDCY6K17O8PHX6F46ZKPV","9","0","PEACOCK","10","5","0","3643","peacock","5","2018-06-28 17:22:59","315936"
"ABPM2716DVK3F","cs_wg_full_v2_real1","3OE22WJIGIPB1EQS1FRGNP5NBTJUQT","11","0","SILVER","4","5","1","2535","Silver","4","2018-06-28 17:22:59","315937"
"A2T4QDRDP5HAID","cs_wg_full_v2_real1","3VZLGYJEYLBCWALETGLGYPGVAELXZI","0","0","CANVAS","4","5","0","11860","W","W","2018-06-28 17:22:59","315938"
"A3H2Z8DCHVGTO6","cs_wg_full_v2_real1","3VAR3R6G1P2AI56ZJZY72SSYZ19O8Z","4","0","PLANET","6","5","0","3499","planet","6","2018-06-28 17:23:00","315939"
"A3CI8WWVFXEW74","cs_wg_full_v2_real1","3E47SOBEYQX2YML92G17KHSVDJVCIY","9","0","BATTERY","8","5","1","1569","battery","8","2018-06-28 17:23:00","315940"
"A3ZRJ5ATKTDSW","cs_wg_full_v2_real1","3TMFV4NEP8FINEF1ALPHJM5K238W8J","6","0","SCIENCE","8","5","0","2939","science","8","2018-06-28 17:23:00","315941"
"A1N85HSLCY9OK1","cs_wg_full_v2_real1","3Y4W8Q93LZLHPKBN1JV1JC076L4DVX","2","0","BASKET","10","5","0","4885","basket","10","2018-06-28 17:23:00","315942"
"A1UKZRDH1T231M","cs_wg_full_v2_real1","3VZLGYJEYLBCWALETGLGYPGVAELZXK","10","0","PARENT","8","5","0","1392","PARENT","8","2018-06-28 17:23:00","315943"
"A3N6I6F2CUQUN","cs_wg_full_v2_real1","3HRMW88U16R40DGKBF6FH9XBL3IM0V","0","0","SILVER","9","5","0","4586","SILVER","9","2018-06-28 17:23:01","315944"
"A2TNJ41V0E1WK4","cs_wg_full_v2_real1","3EA3QWIZ4IWJK3NKO2WX9RSZ15VITN","7","0","CHICKEN","12","5","0","2196","Chicken","12","2018-06-28 17:23:02","315945"
"AG430TVZD4313","cs_wg_full_v2_real1","3OF2M9AATGP6CAM7UX6R8V8TE56KZG","11","0","PICKLE","5","5","0","2097","pickle","5","2018-06-28 17:23:02","315946"
"A3SNR937FTFKFP","cs_wg_full_v2_real1","3LS2AMNW5FRGO96V5TF7OJDYT7VQOC","1","0","BULLET","5","5","1","7973","bullet","5","2018-06-28 17:23:02","315947"
"AABTCZKHGB7AR","cs_wg_full_v2_real1","32N49TQG3GJJRD8BH94ZTBS1LI6VAC","5","0","BUDGET","2","5","1","2301","BUDGET","2","2018-06-28 17:23:02","315948"
"ANUMWP3PGWQBJ","cs_wg_full_v2_real1","3TOK3KHVJTJ6IR1G9U61OSW3OH3O7C","2","0","DAGGER","3","5","0","3740","DAGGER","5","2018-06-28 17:23:03","315949"
"A140OPI45PUCN1","cs_wg_full_v2_real1","3YW4XOSQKQMNKA6BG011MOXF3HRU1Y","7","0","SPATULA","3","5","0","908","spatula","3","2018-06-28 17:23:03","315950"
"AHV4U78TUUDKI","cs_wg_full_v2_real1","3NG53N1RLVKS35I0YZBMRSXO9668P1","4","0","ADDICT","6","5","0","2402","addict","6","2018-06-28 17:23:03","315951"
"A3BH1OZZ0VRLXI","cs_wg_full_v2_real1","38F71OA9GTXVXHVAEXP0KGKFR57FMS","2","0","FRIEND","6","5","1","5788","friend ","6","2018-06-28 17:23:03","315952"
"A3TODSYUYQ1V65","cs_wg_full_v2_real1","39GXDJN2OTF58PFWKBKLXKM6VU6V88","2","0","PARENT","2","5","0","2507","PARENT","2","2018-06-28 17:23:03","315953"
"A3DG1J21ISJC9O","cs_wg_full_v2_real1","3JW0YLFXRTHTDFBJ8O5NX286KABWWY","6","0","DAGGER","10","5","1","2223","Dagger","10","2018-06-28 17:23:03","315954"
"A32TE6EV146OW","cs_wg_full_v2_real1","3JV9LGBJWTFPBKCH2XAVU59WNKNGO8","1","0","SPONGE","4","5","0","1852","sponge","4","2018-06-28 17:23:04","315955"
"A62S68DZEDAKA","cs_wg_full_v2_real1","3B2X28YI3WG3VXY2MFWNCUW8M716BS","2","0","DOLLAR","5","5","0","3418","dollar","5","2018-06-28 17:23:04","315956"
"A2G8DTHDX0XO4I","cs_wg_full_v2_real1","3NQL1CS15R9KNV6EXFIFWXA8O99VYM","6","0","COFFIN","9","5","0","2093","COFFIN","9","2018-06-28 17:23:05","315957"
"A3PE20PVSRKCLA","cs_wg_full_v2_real1","3R2UR8A0IAH0X677R7AZIR9RQAIXOG","4","0","SPATULA","11","5","1","3919","SPATULA","11","2018-06-28 17:23:05","315958"
"AX00W57XAZBWO","cs_wg_full_v2_real1","3GFK2QRXX9IZ0WWZCNIE72VT0D85WR","3","0","HEAVEN","5","5","1","2701","heaven","5","2018-06-28 17:23:05","315959"
"A2KDYSLV030FVX","cs_wg_full_v2_real1","3YMTUJH0DSHPCWO53DUTFQIGWNUT4J","3","0","CANVAS","9","5","1","5238","canvas","9","2018-06-28 17:23:05","315960"
"A1S68DTVE9GU76","cs_wg_full_v2_real1","33OOO72IVHMS701KWS0BYOU4O0BCTF","13","0","CAMERA","7","5","1","1316","camera","7","2018-06-28 17:23:06","315961"
"A3N7NW3VUMDL4X","cs_wg_full_v2_real1","3ZV9H2YQQD8WMH9VY4ULS5X9MHGW3R","0","0","ALMOND","4","5","0","8183","Almond","4","2018-06-28 17:23:06","315962"
"A1NNHRXAIIHH9D","cs_wg_full_v2_real1","3SB5N7Y3O35483KY0C8K44DEPH6G0H","2","0","PEACOCK","5","5","1","3760","peacock","5","2018-06-28 17:23:06","315963"
"ADMPIBL7UKJUS","cs_wg_full_v2_real1","3UN61F00HWQUS0FDDT88K3NC8YSR59","5","0","JAVELIN","7","5","0","5421","javelin","9","2018-06-28 17:23:06","315964"
"A2DOIZHRZR5HHU","cs_wg_full_v2_real1","3OVR4I9USPKCKGWDM90YAL7TCGVQ42","21","0","BARREL","3","5","1","926","Barrel","3","2018-06-28 17:23:07","315965"
"A34SVP7NQ7MH17","cs_wg_full_v2_real1","37Z929RLG998EHQGTEQBDTYMA3XTSQ","4","0","DRAGON","7","5","0","3060","dragon","7","2018-06-28 17:23:07","315966"
"ASLGHXA4453BQ","cs_wg_full_v2_real1","3JV9LGBJWTFPBKCH2XAVU59WNKMOGF","12","0","JACKET","10","5","1","2238","jacket","10","2018-06-28 17:23:07","315967"
"ABPM2716DVK3F","cs_wg_full_v2_real1","3OE22WJIGIPB1EQS1FRGNP5NBTJUQT","12","0","BAGPIPE","3","5","0","1318","Bagpipe","3","2018-06-28 17:23:07","315968"
"A3OTBMKOEQ410P","cs_wg_full_v2_real1","3NLZY2D53PQ8IO3YS1ZFW294Y2QQLV","7","0","HEAVEN","2","5","1","1877","heaven ","2","2018-06-28 17:23:07","315969"
"A1UKZRDH1T231M","cs_wg_full_v2_real1","3VZLGYJEYLBCWALETGLGYPGVAELZXK","11","0","DOLLAR","10","5","0","1178","DOLLAR","10","2018-06-28 17:23:08","315970"
"A3G4HX36KVNQC0","cs_wg_full_v2_real1","3WETL7AQWT929YUB237C25KW2KD35I","5","0","LIQUID","8","5","0","2032","Liquid","8","2018-06-28 17:23:08","315971"
"A13GUTDMGGZZDL","cs_wg_full_v2_real1","3L2IS5HSFAJQYHD0LNZZJVAI6IWNUZ","4","0","ADDICT","10","5","0","2708","addict","10","2018-06-28 17:23:08","315972"
"A29OCOF4PPVQJC","cs_wg_full_v2_real1","3VE8AYVF8MYGCST6KWFHFYJK70IF84","14","0","BAGPIPE","6","5","0","1970","bagpipe","6","2018-06-28 17:23:08","315973"
"A1T0ND039EWAVV","cs_wg_full_v2_real1","3M0NZ3JDP1Z3UR14NA2L66PBHFC5ZH","5","0","THRONE","11","5","0","5593","throne","11","2018-06-28 17:23:09","315974"
"A38ZSUV2A2HCB9","cs_wg_full_v2_real1","3R0T90IZ1SDO2VFECS14Z5FFY63GCA","4","0","BUDGET","8","5","0","2236","budget","9","2018-06-28 17:23:09","315975"
"A15X0MSBZ74TFT","cs_wg_full_v2_real1","3Y9N9SS8LYCXDB94H9PV0H8OF1AD3Z","4","0","FIREMAN","8","5","1","3920","fireman","8","2018-06-28 17:23:09","315976"
"AYGJUG9FNEJVI","cs_wg_full_v2_real1","3ND9UOO81K3D2LZK4AYLORRQM37WL5","2","0","CARROT","6","5","1","3987","Carrot","6","2018-06-28 17:23:09","315977"
"A3CI8WWVFXEW74","cs_wg_full_v2_real1","3E47SOBEYQX2YML92G17KHSVDJVCIY","10","0","ADDICT","5","5","0","2466","addict","5","2018-06-28 17:23:10","315978"
"A30M5EFYJ9R84T","cs_wg_full_v2_real1","3QAVNHZ3EM5GV8WH352T62UZUK4AL8","7","0","MONKEY","2","5","0","1937","MONKEY","MONKEY","2018-06-28 17:23:10","315979"
"A3H2Z8DCHVGTO6","cs_wg_full_v2_real1","3VAR3R6G1P2AI56ZJZY72SSYZ19O8Z","5","0","THRONE","9","5","0","2107","throne","9","2018-06-28 17:23:10","315980"
"A3W2TEQC53S3WW","cs_wg_full_v2_real1","3OCHAWUVGOLH7FMSTFI6BASI658KXJ","2","0","TONGUE","10","5","1","4850","tounge","10","2018-06-28 17:23:11","315981"
"A1N85HSLCY9OK1","cs_wg_full_v2_real1","3Y4W8Q93LZLHPKBN1JV1JC076L4DVX","3","0","BARREL","9","5","0","2473","barrel","9","2018-06-28 17:23:11","315982"
"A30BFU2MOXOS","cs_wg_full_v2_real1","3018Q3ZVOIRRY6RU8PZPSE3Y0CTRAF","0","0","ALMOND","3","5","0","6278","almond","3","2018-06-28 17:23:12","315983"
"AG430TVZD4313","cs_wg_full_v2_real1","3OF2M9AATGP6CAM7UX6R8V8TE56KZG","12","0","BALCONY","2","5","0","1641","balcony","2","2018-06-28 17:23:12","315984"
"A3ZRJ5ATKTDSW","cs_wg_full_v2_real1","3TMFV4NEP8FINEF1ALPHJM5K238W8J","7","0","COFFEE","2","5","0","4332","coffee","2","2018-06-28 17:23:12","315985"
"A3DG1J21ISJC9O","cs_wg_full_v2_real1","3JW0YLFXRTHTDFBJ8O5NX286KABWWY","7","0","KIDNEY","9","5","1","1426","Kidney","9","2018-06-28 17:23:13","315986"
"AABTCZKHGB7AR","cs_wg_full_v2_real1","32N49TQG3GJJRD8BH94ZTBS1LI6VAC","6","0","BUDGET","2","5","1","2192","BUDGET","2","2018-06-28 17:23:13","315987"
"AV8SKBUQ7KOU5","cs_wg_full_v2_real1","3ZAZR5XV01JOTCAJ2KPTKCVL9WXCZV","2","0","FACTORY","10","5","1","6589","factory","10","2018-06-28 17:23:13","315988"
"A2DOIZHRZR5HHU","cs_wg_full_v2_real1","3OVR4I9USPKCKGWDM90YAL7TCGVQ42","22","0","ANIMAL","2","5","1","1281","Animal","2","2018-06-28 17:23:13","315989"
"A32TE6EV146OW","cs_wg_full_v2_real1","3JV9LGBJWTFPBKCH2XAVU59WNKNGO8","2","0","BABOON","2","5","0","1955","baboon","2","2018-06-28 17:23:14","315990"
"AZ57C58RDAMJF","cs_wg_full_v2_real1","3S96KQ6I9M52CS7YWOVMIUCM90NTDW","4","0","SMOKER","3","5","1","4613","smoker","3","2018-06-28 17:23:14","315991"
"A1S68DTVE9GU76","cs_wg_full_v2_real1","33OOO72IVHMS701KWS0BYOU4O0BCTF","14","0","DRAGON","10","5","0","1896","dragon","10","2018-06-28 17:23:15","315992"
"AHV4U78TUUDKI","cs_wg_full_v2_real1","3NG53N1RLVKS35I0YZBMRSXO9668P1","5","0","BEAVER","5","5","0","2567","beaver","5","2018-06-28 17:23:15","315993"
"A2DL00FVCOBYHJ","cs_wg_full_v2_real1","3COPXFW7XBDCY6K17O8PHX6F46ZKPV","10","0","BAGPIPE","5","5","0","4696","bagpipe","5","2018-06-28 17:23:15","315994"
"A1EQN91S6T820I","cs_wg_full_v2_real1","3NLZY2D53PQ8IO3YS1ZFW294Y2QLQQ","8","0","CANVAS","5","5","1","6291","canvas","5","2018-06-28 17:23:15","315995"
"A2M20C31SK6KCJ","cs_wg_full_v2_real1","3TVSS0C0E111LY7PDJ0CAI17GGTWT8","0","0","EARDRUM","7","5","1","3485","zuble","7","2018-06-28 17:23:16","315996"
"A140OPI45PUCN1","cs_wg_full_v2_real1","3YW4XOSQKQMNKA6BG011MOXF3HRU1Y","8","0","CHURCH","1","5","1","3424","church","1","2018-06-28 17:23:16","315997"
"A34LAJH3Q4GEPC","cs_wg_full_v2_real1","3D4CH1LGEAUM4X8B08RDXFE7SL0G9T","1","0","TRAFFIC","7","5","1","7359","traffic","7","2018-06-28 17:23:16","315998"
"ABPM2716DVK3F","cs_wg_full_v2_real1","3OE22WJIGIPB1EQS1FRGNP5NBTJUQT","13","0","MONKEY","8","5","0","2790","Monkey","8","2018-06-28 17:23:16","315999"
"A3TODSYUYQ1V65","cs_wg_full_v2_real1","39GXDJN2OTF58PFWKBKLXKM6VU6V88","3","0","CASINO","11","5","0","2234","CASINO","11","2018-06-28 17:23:16","316000"
"A2TNJ41V0E1WK4","cs_wg_full_v2_real1","3EA3QWIZ4IWJK3NKO2WX9RSZ15VITN","8","0","DOLLAR","4","5","0","1600","Dollar","4","2018-06-28 17:23:16","316001"
"ASLGHXA4453BQ","cs_wg_full_v2_real1","3JV9LGBJWTFPBKCH2XAVU59WNKMOGF","13","0","ANIMAL","9","5","0","2720","animal","9","2018-06-28 17:23:16","316002"
"A2T4QDRDP5HAID","cs_wg_full_v2_real1","3VZLGYJEYLBCWALETGLGYPGVAELXZI","1","0","BULLET","11","5","1","5578","P","P","2018-06-28 17:23:16","316003"
"A2G8DTHDX0XO4I","cs_wg_full_v2_real1","3NQL1CS15R9KNV6EXFIFWXA8O99VYM","7","0","BATTERY","3","5","0","1934","BATTERY","3","2018-06-28 17:23:17","316004"
"A3SNR937FTFKFP","cs_wg_full_v2_real1","3LS2AMNW5FRGO96V5TF7OJDYT7VQOC","2","0","FRIEND","11","5","0","5631","friend","11","2018-06-28 17:23:17","316005"
"A1NNHRXAIIHH9D","cs_wg_full_v2_real1","3SB5N7Y3O35483KY0C8K44DEPH6G0H","3","0","MAGNET","3","5","0","2430","magnet","3","2018-06-28 17:23:17","316006"
"A1UKZRDH1T231M","cs_wg_full_v2_real1","3VZLGYJEYLBCWALETGLGYPGVAELZXK","12","0","TONGUE","3","5","0","1531","TONGUE","3","2018-06-28 17:23:18","316007"
"A139T58A6VX1ZJ","cs_wg_full_v2_real1","3K772S5NP8CHZPU3SPPHATRJYIUEH1","0","0","WALRUS","8","5","0","5799","walrus","8","2018-06-28 17:23:18","316008"
"AX00W57XAZBWO","cs_wg_full_v2_real1","3GFK2QRXX9IZ0WWZCNIE72VT0D85WR","4","0","FLIGHT","10","5","0","2470","flight","10","2018-06-28 17:23:19","316009"
"A3CI8WWVFXEW74","cs_wg_full_v2_real1","3E47SOBEYQX2YML92G17KHSVDJVCIY","11","0","ADDICT","5","5","1","1665","addict","5","2018-06-28 17:23:19","316010"
"A62S68DZEDAKA","cs_wg_full_v2_real1","3B2X28YI3WG3VXY2MFWNCUW8M716BS","3","0","EARDRUM","9","5","0","2592","eardrum","9","2018-06-28 17:23:19","316011"
"A3G4HX36KVNQC0","cs_wg_full_v2_real1","3WETL7AQWT929YUB237C25KW2KD35I","6","0","BAGPIPE","6","5","0","1255","Bagpipe","6","2018-06-28 17:23:19","316012"
"A1T0ND039EWAVV","cs_wg_full_v2_real1","3M0NZ3JDP1Z3UR14NA2L66PBHFC5ZH","6","0","FIREMAN","12","5","1","3428","fireman","12","2018-06-28 17:23:20","316013"
"A3PE20PVSRKCLA","cs_wg_full_v2_real1","3R2UR8A0IAH0X677R7AZIR9RQAIXOG","5","0","BAGPIPE","2","5","0","3991","BAGPIPE","2","2018-06-28 17:23:20","316014"
"A38ZSUV2A2HCB9","cs_wg_full_v2_real1","3R0T90IZ1SDO2VFECS14Z5FFY63GCA","5","0","TURKEY","1","5","0","2466","turkey","1","2018-06-28 17:23:21","316015"
"AMI4OR8CUAIED","cs_wg_full_v2_real1","3FFJ6VRIL1PI4UQTQ08NPGQU4UYI0B","1","0","BATTERY","9","5","1","3744","Battery","9","2018-06-28 17:23:21","316016"
"A2DOIZHRZR5HHU","cs_wg_full_v2_real1","3OVR4I9USPKCKGWDM90YAL7TCGVQ42","23","0","PILLAR","8","5","0","986","Pillar","8","2018-06-28 17:23:21","316017"
"A3OTBMKOEQ410P","cs_wg_full_v2_real1","3NLZY2D53PQ8IO3YS1ZFW294Y2QQLV","8","0","HEAVEN","2","5","1","2357","heaven ","2","2018-06-28 17:23:21","316018"
"A3DG1J21ISJC9O","cs_wg_full_v2_real1","3JW0YLFXRTHTDFBJ8O5NX286KABWWY","8","0","BANQUET","1","5","0","1651","Banquet","1","2018-06-28 17:23:22","316019"
"A3H2Z8DCHVGTO6","cs_wg_full_v2_real1","3VAR3R6G1P2AI56ZJZY72SSYZ19O8Z","6","0","HERMIT","5","5","0","1793","hermit","5","2018-06-28 17:23:22","316020"
"A34SVP7NQ7MH17","cs_wg_full_v2_real1","37Z929RLG998EHQGTEQBDTYMA3XTSQ","5","0","FIREFLY","2","5","1","3251","firefly","2","2018-06-28 17:23:22","316021"
"A2LW8B2A7KGWST","cs_wg_full_v2_real1","39N5ACM9HEOSHA1A3RH0ROSZTCO9PR","0","0","PICKLE","6","5","0","6208","pickle","6","2018-06-28 17:23:22","316022"
"AYGJUG9FNEJVI","cs_wg_full_v2_real1","3ND9UOO81K3D2LZK4AYLORRQM37WL5","3","0","GIRAFFE","5","5","0","2989","Giraffe","5","2018-06-28 17:23:23","316023"
"A2KDYSLV030FVX","cs_wg_full_v2_real1","3YMTUJH0DSHPCWO53DUTFQIGWNUT4J","4","0","PILLAR","4","5","1","4717","pillar","4","2018-06-28 17:23:23","316024"
"A3ZRJ5ATKTDSW","cs_wg_full_v2_real1","3TMFV4NEP8FINEF1ALPHJM5K238W8J","8","0","DOMINO","5","5","0","2059","domino","5","2018-06-28 17:23:23","316025"
"A3N6I6F2CUQUN","cs_wg_full_v2_real1","3HRMW88U16R40DGKBF6FH9XBL3IM0V","1","0","SILVER","9","5","0","5295","SILVER","9","2018-06-28 17:23:23","316026"
"A3A54V0XVSERFC","cs_wg_full_v2_real1","3P59JYT76LLF9I9IZZB5MBLIC9YT2N","0","0","BALCONY","2","5","0","4855","W","2","2018-06-28 17:23:23","316027"
"A30M5EFYJ9R84T","cs_wg_full_v2_real1","3QAVNHZ3EM5GV8WH352T62UZUK4AL8","8","0","ANIMAL","1","5","0","2703","ANIMAL","ANIMAL","2018-06-28 17:23:23","316028"
"A1S68DTVE9GU76","cs_wg_full_v2_real1","33OOO72IVHMS701KWS0BYOU4O0BCTF","15","0","PLANET","6","5","1","1688","planet","6","2018-06-28 17:23:24","316029"
"A32TE6EV146OW","cs_wg_full_v2_real1","3JV9LGBJWTFPBKCH2XAVU59WNKNGO8","3","0","BANQUET","6","5","0","2997","banquet","5","2018-06-28 17:23:24","316030"
"ABPM2716DVK3F","cs_wg_full_v2_real1","3OE22WJIGIPB1EQS1FRGNP5NBTJUQT","14","0","BUDGET","5","5","1","2261","budget","5","2018-06-28 17:23:24","316031"
"A1N85HSLCY9OK1","cs_wg_full_v2_real1","3Y4W8Q93LZLHPKBN1JV1JC076L4DVX","4","0","SPONGE","7","5","1","3890","sponge","7","2018-06-28 17:23:25","316032"
"ADMPIBL7UKJUS","cs_wg_full_v2_real1","3UN61F00HWQUS0FDDT88K3NC8YSR59","6","0","LIQUID","5","5","1","7582","liquid","5","2018-06-28 17:23:25","316033"
"ASLGHXA4453BQ","cs_wg_full_v2_real1","3JV9LGBJWTFPBKCH2XAVU59WNKMOGF","14","0","JACKET","10","5","0","2824","jacket","10","2018-06-28 17:23:26","316034"
"A13GUTDMGGZZDL","cs_wg_full_v2_real1","3L2IS5HSFAJQYHD0LNZZJVAI6IWNUZ","5","0","TENNIS","3","5","1","3810","tennis","4","2018-06-28 17:23:26","316035"
"A2TNJ41V0E1WK4","cs_wg_full_v2_real1","3EA3QWIZ4IWJK3NKO2WX9RSZ15VITN","9","0","TENNIS","1","5","1","2504","Tennis","1","2018-06-28 17:23:26","316036"
"A1UKZRDH1T231M","cs_wg_full_v2_real1","3VZLGYJEYLBCWALETGLGYPGVAELZXK","13","0","HERMIT","12","5","0","1267","HERMIT","12","2018-06-28 17:23:26","316037"
"A3W2TEQC53S3WW","cs_wg_full_v2_real1","3OCHAWUVGOLH7FMSTFI6BASI658KXJ","3","0","FRIEND","1","5","0","3853","friend","1","2018-06-28 17:23:26","316038"
"AG430TVZD4313","cs_wg_full_v2_real1","3OF2M9AATGP6CAM7UX6R8V8TE56KZG","13","0","PICKLE","5","5","1","3399","pickle","5","2018-06-28 17:23:26","316039"
"A140OPI45PUCN1","cs_wg_full_v2_real1","3YW4XOSQKQMNKA6BG011MOXF3HRU1Y","9","0","BAPTISM","11","5","0","1193","baptism","11","2018-06-28 17:23:26","316040"
"AABTCZKHGB7AR","cs_wg_full_v2_real1","32N49TQG3GJJRD8BH94ZTBS1LI6VAC","7","0","TRIVIA","5","5","0","2004","TRIVIA","5","2018-06-28 17:23:27","316041"
"A15X0MSBZ74TFT","cs_wg_full_v2_real1","3Y9N9SS8LYCXDB94H9PV0H8OF1AD3Z","5","0","FIREMAN","8","5","0","6680","fireman","8","2018-06-28 17:23:27","316042"
"ABWE3PBZSLECW","cs_wg_full_v2_real1","324G5B4FB39LFA9X794QYR0LQEO706","0","0","TONGUE","7","5","1","7435","tongue","7","2018-06-28 17:23:28","316043"
"AHV4U78TUUDKI","cs_wg_full_v2_real1","3NG53N1RLVKS35I0YZBMRSXO9668P1","6","0","CHURCH","7","5","0","1767","church","7","2018-06-28 17:23:28","316044"
"A2DOIZHRZR5HHU","cs_wg_full_v2_real1","3OVR4I9USPKCKGWDM90YAL7TCGVQ42","24","0","BALCONY","12","5","0","991","Balcony","12","2018-06-28 17:23:28","316045"
"A1EQN91S6T820I","cs_wg_full_v2_real1","3NLZY2D53PQ8IO3YS1ZFW294Y2QLQQ","9","0","BARREL","11","5","0","3377","barrel","11","2018-06-28 17:23:28","316046"
"A1WBTDNCJBXPLX","cs_wg_full_v2_real1","3QEMNNSB2X0FEUARJLSLDYK4K3X7DZ","0","0","SCIENCE","12","5","1","3951","Science","12","2018-06-28 17:23:28","316047"
"A3CI8WWVFXEW74","cs_wg_full_v2_real1","3E47SOBEYQX2YML92G17KHSVDJVCIY","12","0","FACTORY","2","5","1","1793","factory","2","2018-06-28 17:23:29","316048"
"AGSTNWHT8ECY1","cs_wg_full_v2_real1","3MX2NQ3YC9VEPW1PMSE09L909FDX5B","0","0","DOMINO","4","5","1","4922","DOMINO","4","2018-06-28 17:23:29","316049"
"A2G8DTHDX0XO4I","cs_wg_full_v2_real1","3NQL1CS15R9KNV6EXFIFWXA8O99VYM","8","0","BIKINI","12","5","0","2101","BIKINI","12","2018-06-28 17:23:29","316050"
"A29OCOF4PPVQJC","cs_wg_full_v2_real1","3VE8AYVF8MYGCST6KWFHFYJK70IF84","15","0","BANQUET","7","5","1","3358","banquet","7","2018-06-28 17:23:29","316051"
"A3SNR937FTFKFP","cs_wg_full_v2_real1","3LS2AMNW5FRGO96V5TF7OJDYT7VQOC","3","0","SPIRAL","12","5","0","3601","spiral","12","2018-06-28 17:23:30","316052"
"A1T0ND039EWAVV","cs_wg_full_v2_real1","3M0NZ3JDP1Z3UR14NA2L66PBHFC5ZH","7","0","CHURCH","1","5","1","3460","church","1","2018-06-28 17:23:30","316053"
"A37BTYD4D4Q8U5","cs_wg_full_v2_real1","3M0BCWMB8VX1PCD8DX9RAOVLA9UBWY","0","0","MUFFIN","2","5","0","6965","muffin","2","2018-06-28 17:23:30","316054"
"A2M20C31SK6KCJ","cs_wg_full_v2_real1","3TVSS0C0E111LY7PDJ0CAI17GGTWT8","1","0","KIDNEY","6","5","0","3939","KINDNEY","6","2018-06-28 17:23:30","316055"
"A3TODSYUYQ1V65","cs_wg_full_v2_real1","39GXDJN2OTF58PFWKBKLXKM6VU6V88","4","0","WAFFLE","7","5","1","2619","WAFFLE","7","2018-06-28 17:23:30","316056"
"A3G4HX36KVNQC0","cs_wg_full_v2_real1","3WETL7AQWT929YUB237C25KW2KD35I","7","0","ABDOMEN","3","5","0","1124","Abdomen","3","2018-06-28 17:23:31","316057"
"A2DL00FVCOBYHJ","cs_wg_full_v2_real1","3COPXFW7XBDCY6K17O8PHX6F46ZKPV","11","0","BLANKET","8","5","0","3471","blanket","5","2018-06-28 17:23:31","316058"
"AX00W57XAZBWO","cs_wg_full_v2_real1","3GFK2QRXX9IZ0WWZCNIE72VT0D85WR","5","0","ADDICT","11","5","1","2669","addict","11","2018-06-28 17:23:31","316059"
"A38ZSUV2A2HCB9","cs_wg_full_v2_real1","3R0T90IZ1SDO2VFECS14Z5FFY63GCA","6","0","CHORUS","9","5","0","1821","chorus","9","2018-06-28 17:23:31","316060"
"A3DG1J21ISJC9O","cs_wg_full_v2_real1","3JW0YLFXRTHTDFBJ8O5NX286KABWWY","9","0","GOGGLES","8","5","0","2963","Goggles","8","2018-06-28 17:23:32","316061"
"A62S68DZEDAKA","cs_wg_full_v2_real1","3B2X28YI3WG3VXY2MFWNCUW8M716BS","4","0","THRONE","3","5","0","2856","throne","3","2018-06-28 17:23:32","316062"
"A3N7NW3VUMDL4X","cs_wg_full_v2_real1","3ZV9H2YQQD8WMH9VY4ULS5X9MHGW3R","1","0","DEMON","7","5","1","4568","Demon","7","2018-06-28 17:23:33","316063"
"AZ57C58RDAMJF","cs_wg_full_v2_real1","3S96KQ6I9M52CS7YWOVMIUCM90NTDW","5","0","BEAVER","4","5","1","7101","beaver","
4","2018-06-28 17:23:33","316064"
"A34LAJH3Q4GEPC","cs_wg_full_v2_real1","3D4CH1LGEAUM4X8B08RDXFE7SL0G9T","2","0","FORGERY","6","5","1","4223","forgery","6","2018-06-28 17:23:33","316065"
"A3ZRJ5ATKTDSW","cs_wg_full_v2_real1","3TMFV4NEP8FINEF1ALPHJM5K238W8J","9","0","DOMINO","5","5","0","1523","domino","5","2018-06-28 17:23:33","316066"
"A32TE6EV146OW","cs_wg_full_v2_real1","3JV9LGBJWTFPBKCH2XAVU59WNKNGO8","4","0","CHURCH","7","5","0","2406","church","7","2018-06-28 17:23:34","316067"
"A2ZUC3INRC7TP3","cs_wg_full_v2_real1","3OXV7EAXLERYS2UP7MHHUBYWYFO631","0","0","TRAFFIC","7","5","0","8671","traffic","7","2018-06-28 17:23:34","316068"
"ASLGHXA4453BQ","cs_wg_full_v2_real1","3JV9LGBJWTFPBKCH2XAVU59WNKMOGF","15","0","JACKET","10","5","0","1484","jacket","10","2018-06-28 17:23:34","316069"
"A30BFU2MOXOS","cs_wg_full_v2_real1","3018Q3ZVOIRRY6RU8PZPSE3Y0CTRAF","1","0","CASINO","10","5","0","6399","casino","10","2018-06-28 17:23:34","316070"
"A1UKZRDH1T231M","cs_wg_full_v2_real1","3VZLGYJEYLBCWALETGLGYPGVAELZXK","14","0","EARDRUM","1","5","0","1116","EARDRUM","1","2018-06-28 17:23:34","316071"
"A3H2Z8DCHVGTO6","cs_wg_full_v2_real1","3VAR3R6G1P2AI56ZJZY72SSYZ19O8Z","7","0","THRONE","9","5","0","4434","throne","9","2018-06-28 17:23:34","316072"
"A1S68DTVE9GU76","cs_wg_full_v2_real1","33OOO72IVHMS701KWS0BYOU4O0BCTF","16","0","GIRAFFE","9","5","0","2378","giraffe","9","2018-06-28 17:23:34","316073"
"ABPM2716DVK3F","cs_wg_full_v2_real1","3OE22WJIGIPB1EQS1FRGNP5NBTJUQT","15","0","MUFFIN","12","5","0","3732","Muffin","12","2018-06-28 17:23:35","316074"
"ANUMWP3PGWQBJ","cs_wg_full_v2_real1","3TOK3KHVJTJ6IR1G9U61OSW3OH3O7C","3","0","BAPTISM","5","5","1","14262","BAPTISM","5","2018-06-28 17:23:35","316075"
"A1N85HSLCY9OK1","cs_wg_full_v2_real1","3Y4W8Q93LZLHPKBN1JV1JC076L4DVX","5","0","MUFFIN","8","5","0","1343","muffin","8","2018-06-28 17:23:35","316076"
"A2DOIZHRZR5HHU","cs_wg_full_v2_real1","3OVR4I9USPKCKGWDM90YAL7TCGVQ42","25","0","JUNGLE","6","5","0","799","Jungle","6","2018-06-28 17:23:35","316077"
"AYGJUG9FNEJVI","cs_wg_full_v2_real1","3ND9UOO81K3D2LZK4AYLORRQM37WL5","4","0","SPATULA","12","5","1","2433","Spatula","5","2018-06-28 17:23:35","316078"
"A140OPI45PUCN1","cs_wg_full_v2_real1","3YW4XOSQKQMNKA6BG011MOXF3HRU1Y","10","0","GIRAFFE","7","5","0","1022","giraffe","7","2018-06-28 17:23:36","316079"
"A2LW8B2A7KGWST","cs_wg_full_v2_real1","39N5ACM9HEOSHA1A3RH0ROSZTCO9PR","1","0","PENGUIN","2","5","0","1951","penguin","2","2018-06-28 17:23:36","316080"
"A1NNHRXAIIHH9D","cs_wg_full_v2_real1","3SB5N7Y3O35483KY0C8K44DEPH6G0H","4","0","MAGNET","3","5","1","2700","magnet","3","2018-06-28 17:23:36","316081"
"A139T58A6VX1ZJ","cs_wg_full_v2_real1","3K772S5NP8CHZPU3SPPHATRJYIUEH1","1","0","JAVELIN","2","5","0","5831","javelin","2","2018-06-28 17:23:36","316082"
"A36HLORY5EEG4X","cs_wg_full_v2_real1","3NOKK93PR195FF312OHBPQU6622EEL","0","0","BAPTISM","4","5","0","11159","baptism","4","2018-06-28 17:23:36","316083"
"A36X8EUS26449Y","cs_wg_full_v2_real1","3QILPRALQ5WS0K6NIKYUN3ST9R4N8J","0","0","CAMERA","8","5","0","4859","camera","8","2018-06-28 17:23:36","316084"
"A30M5EFYJ9R84T","cs_wg_full_v2_real1","3QAVNHZ3EM5GV8WH352T62UZUK4AL8","9","0","SCIENCE","11","5","0","2249","SCIENCE","SCIENCE","2018-06-28 17:23:37","316085"
"A3BH1OZZ0VRLXI","cs_wg_full_v2_real1","38F71OA9GTXVXHVAEXP0KGKFR57FMS","3","0","CARROT","9","5","1","20467","carrot","6","2018-06-28 17:23:37","316086"
"A2TNJ41V0E1WK4","cs_wg_full_v2_real1","3EA3QWIZ4IWJK3NKO2WX9RSZ15VITN","10","0","PICTURE","10","5","0","2045","Picture","10","2018-06-28 17:23:37","316087"
"A3PE20PVSRKCLA","cs_wg_full_v2_real1","3R2UR8A0IAH0X677R7AZIR9RQAIXOG","6","0","SILVER","4","5","0","2967","SILVER","4","2018-06-28 17:23:37","316088"
"A29OCOF4PPVQJC","cs_wg_full_v2_real1","3VE8AYVF8MYGCST6KWFHFYJK70IF84","16","0","CELERY","11","5","0","1142","celery","11","2018-06-28 17:23:37","316089"
"AG430TVZD4313","cs_wg_full_v2_real1","3OF2M9AATGP6CAM7UX6R8V8TE56KZG","14","0","PICKLE","5","5","0","2694","pickle","5","2018-06-28 17:23:37","316090"
"AABTCZKHGB7AR","cs_wg_full_v2_real1","32N49TQG3GJJRD8BH94ZTBS1LI6VAC","8","0","FIREFLY","10","5","0","2036","FIREFLY","10","2018-06-28 17:23:38","316091"
"A13GUTDMGGZZDL","cs_wg_full_v2_real1","3L2IS5HSFAJQYHD0LNZZJVAI6IWNUZ","6","0","FLIGHT","7","5","1","2891","flight","7","2018-06-28 17:23:38","316092"
"A3CI8WWVFXEW74","cs_wg_full_v2_real1","3E47SOBEYQX2YML92G17KHSVDJVCIY","13","0","COFFIN","6","5","0","1529","coffin","6","2018-06-28 17:23:38","316093"
"AV8SKBUQ7KOU5","cs_wg_full_v2_real1","3ZAZR5XV01JOTCAJ2KPTKCVL9WXCZV","3","0","MUFFIN","12","5","1","7511","muffin","12","2018-06-28 17:23:38","316094"
"A1T0ND039EWAVV","cs_wg_full_v2_real1","3M0NZ3JDP1Z3UR14NA2L66PBHFC5ZH","8","0","CHURCH","1","5","1","2460","church","1","2018-06-28 17:23:39","316095"
"AHV4U78TUUDKI","cs_wg_full_v2_real1","3NG53N1RLVKS35I0YZBMRSXO9668P1","7","0","ADDICT","6","5","0","2934","addict","6","2018-06-28 17:23:40","316096"
"ADMPIBL7UKJUS","cs_wg_full_v2_real1","3UN61F00HWQUS0FDDT88K3NC8YSR59","7","0","BASKET","6","5","0","3547","basket","6","2018-06-28 17:23:40","316097"
"A3OTBMKOEQ410P","cs_wg_full_v2_real1","3NLZY2D53PQ8IO3YS1ZFW294Y2QQLV","9","0","THRONE","4","5","0","2637","throne","4","2018-06-28 17:23:41","316098"
"A34SVP7NQ7MH17","cs_wg_full_v2_real1","37Z929RLG998EHQGTEQBDTYMA3XTSQ","6","0","SCIENCE","3","5","1","7259","science","3","2018-06-28 17:23:41","316099"
"A3SNR937FTFKFP","cs_wg_full_v2_real1","3LS2AMNW5FRGO96V5TF7OJDYT7VQOC","4","0","SUNBURN","7","5","0","3021","sunburn","7","2018-06-28 17:23:42","316100"
"A3G4HX36KVNQC0","cs_wg_full_v2_real1","3WETL7AQWT929YUB237C25KW2KD35I","8","0","FORGERY","1","5","0","1271","Forgery","1","2018-06-28 17:23:42","316101"
"ABPM2716DVK3F","cs_wg_full_v2_real1","3OE22WJIGIPB1EQS1FRGNP5NBTJUQT","16","0","BALCONY","9","5","0","1831","Balcony","9","2018-06-28 17:23:42","316102"
"A1EQN91S6T820I","cs_wg_full_v2_real1","3NLZY2D53PQ8IO3YS1ZFW294Y2QLQQ","10","0","FACTORY","4","5","0","4114","factory","4","2018-06-28 17:23:43","316103"
"A2DOIZHRZR5HHU","cs_wg_full_v2_real1","3OVR4I9USPKCKGWDM90YAL7TCGVQ42","26","0","COSTUME","10","5","0","752","Costume","10","2018-06-28 17:23:43","316104"
"A38ZSUV2A2HCB9","cs_wg_full_v2_real1","3R0T90IZ1SDO2VFECS14Z5FFY63GCA","7","0","PENGUIN","10","5","0","1442","penguin","10","2018-06-28 17:23:43","316105"
"AMI4OR8CUAIED","cs_wg_full_v2_real1","3FFJ6VRIL1PI4UQTQ08NPGQU4UYI0B","2","0","SUMMER","8","5","1","3819","summer","8","2018-06-28 17:23:43","316106"
"A3H2Z8DCHVGTO6","cs_wg_full_v2_real1","3VAR3R6G1P2AI56ZJZY72SSYZ19O8Z","8","0","DOLLAR","4","5","0","1004","dollar","4","2018-06-28 17:23:43","316107"
"A2T4QDRDP5HAID","cs_wg_full_v2_real1","3VZLGYJEYLBCWALETGLGYPGVAELXZI","2","0","CANVAS","4","5","1","5358","CANVAS","CANVAS","2018-06-28 17:23:43","316108"
"A1UKZRDH1T231M","cs_wg_full_v2_real1","3VZLGYJEYLBCWALETGLGYPGVAELZXK","15","0","EARDRUM","1","5","1","1938","EARDRUM","1","2018-06-28 17:23:43","316109"
"A32TE6EV146OW","cs_wg_full_v2_real1","3JV9LGBJWTFPBKCH2XAVU59WNKNGO8","5","0","FRIEND","10","5","0","992","friend","10","2018-06-28 17:23:43","316110"
"ABWE3PBZSLECW","cs_wg_full_v2_real1","324G5B4FB39LFA9X794QYR0LQEO706","1","0","THRONE","1","5","1","5380","throne","1","2018-06-28 17:23:43","316111"
"ASLGHXA4453BQ","cs_wg_full_v2_real1","3JV9LGBJWTFPBKCH2XAVU59WNKMOGF","16","0","MUFFIN","2","5","1","1395","muffin","2","2018-06-28 17:23:43","316112"
"A3N6I6F2CUQUN","cs_wg_full_v2_real1","3HRMW88U16R40DGKBF6FH9XBL3IM0V","2","0","BULLET","10","5","1","6247","BULLET","10","2018-06-28 17:23:44","316113"
"AX00W57XAZBWO","cs_wg_full_v2_real1","3GFK2QRXX9IZ0WWZCNIE72VT0D85WR","6","0","COFFIN","8","5","1","2822","coffin","8","2018-06-28 17:23:44","316114"
"A3W2TEQC53S3WW","cs_wg_full_v2_real1","3OCHAWUVGOLH7FMSTFI6BASI658KXJ","4","0","BARREL","4","5","0","5658","barrel","5","2018-06-28 17:23:44","316115"
"A3DG1J21ISJC9O","cs_wg_full_v2_real1","3JW0YLFXRTHTDFBJ8O5NX286KABWWY","10","0","BARREL","4","5","1","3434","Barrel","4","2018-06-28 17:23:44","316116"
"A3ZRJ5ATKTDSW","cs_wg_full_v2_real1","3TMFV4NEP8FINEF1ALPHJM5K238W8J","10","0","PILLAR","7","5","0","2553","pillar","7","2018-06-28 17:23:44","316117"
"AZ57C58RDAMJF","cs_wg_full_v2_real1","3S96KQ6I9M52CS7YWOVMIUCM90NTDW","6","0","BEAVER","4","5","1","2442","beaver","4","2018-06-28 17:23:44","316118"
"A1S68DTVE9GU76","cs_wg_full_v2_real1","33OOO72IVHMS701KWS0BYOU4O0BCTF","17","0","CHORUS","4","5","1","2315","chorus","4","2018-06-28 17:23:44","316119"
"A3TODSYUYQ1V65","cs_wg_full_v2_real1","39GXDJN2OTF58PFWKBKLXKM6VU6V88","5","0","BANQUET","6","5","0","2435","BANQUET","6","2018-06-28 17:23:44","316120"
"A1WBTDNCJBXPLX","cs_wg_full_v2_real1","3QEMNNSB2X0FEUARJLSLDYK4K3X7DZ","1","0","FORGERY","6","5","0","5061","forgery","6","2018-06-28 17:23:45","316121"
"A37BTYD4D4Q8U5","cs_wg_full_v2_real1","3M0BCWMB8VX1PCD8DX9RAOVLA9UBWY","1","0","SILVER","4","5","0","2119","silver","4","2018-06-28 17:23:45","316122"
"A140OPI45PUCN1","cs_wg_full_v2_real1","3YW4XOSQKQMNKA6BG011MOXF3HRU1Y","11","0","SUMMER","6","5","0","2213","summer","6","2018-06-28 17:23:45","316123"
"A2KDYSLV030FVX","cs_wg_full_v2_real1","3YMTUJH0DSHPCWO53DUTFQIGWNUT4J","5","0","FACTORY","5","5","1","5481","factory","5","2018-06-28 17:23:46","316124"
"A1N85HSLCY9OK1","cs_wg_full_v2_real1","3Y4W8Q93LZLHPKBN1JV1JC076L4DVX","6","0","BAGPIPE","1","5","0","3795","bagpipe","1","2018-06-28 17:23:47","316125"
"A15X0MSBZ74TFT","cs_wg_full_v2_real1","3Y9N9SS8LYCXDB94H9PV0H8OF1AD3Z","6","0","COSTUME","9","5","1","4459","costume","9","2018-06-28 17:23:47","316126"
"A3CI8WWVFXEW74","cs_wg_full_v2_real1","3E47SOBEYQX2YML92G17KHSVDJVCIY","14","0","FACTORY","2","5","1","1442","factory","2","2018-06-28 17:23:47","316127"
"A2LW8B2A7KGWST","cs_wg_full_v2_real1","39N5ACM9HEOSHA1A3RH0ROSZTCO9PR","2","0","CHIMNEY","3","5","1","2142","chimney","3","2018-06-28 17:23:48","316128"
"A2GOX7W5IA7LHE","cs_wg_full_v2_real1","3Z7ISHFUH0WMH9K6L89OIQZ2J5CZ8C","0","0","CHURCH","2","5","0","7436","Church","2","2018-06-28 17:23:48","316129"
"A2TNJ41V0E1WK4","cs_wg_full_v2_real1","3EA3QWIZ4IWJK3NKO2WX9RSZ15VITN","11","0","HERMIT","8","5","0","2825","Hermit","8","2018-06-28 17:23:48","316130"
"A29OCOF4PPVQJC","cs_wg_full_v2_real1","3VE8AYVF8MYGCST6KWFHFYJK70IF84","17","0","WAFFLE","8","5","0","1541","waffle","8","2018-06-28 17:23:48","316131"
"A30M5EFYJ9R84T","cs_wg_full_v2_real1","3QAVNHZ3EM5GV8WH352T62UZUK4AL8","10","0","BULLET","10","5","0","2536","BULLET","BULLET","2018-06-28 17:23:48","316132"
"AG430TVZD4313","cs_wg_full_v2_real1","3OF2M9AATGP6CAM7UX6R8V8TE56KZG","15","0","PLANET","3","5","0","1396","planet","3","2018-06-28 17:23:48","316133"
"A1VP5RK4OTU2TW","cs_wg_full_v2_real1","3B2X28YI3WG3VXY2MFWNCUW8M71B6X","0","0","PENGUIN","11","5","1","12530","Penguin ","11","2018-06-28 17:23:49","316134"
"A1T0ND039EWAVV","cs_wg_full_v2_real1","3M0NZ3JDP1Z3UR14NA2L66PBHFC5ZH","9","0","ROYALTY","2","5","0","3497","royalty","2","2018-06-28 17:23:49","316135"
"A62S68DZEDAKA","cs_wg_full_v2_real1","3B2X28YI3WG3VXY2MFWNCUW8M716BS","5","0","EARDRUM","9","5","0","5200","eardrum","9","2018-06-28 17:23:49","316136"
"A2DOIZHRZR5HHU","cs_wg_full_v2_real1","3OVR4I9USPKCKGWDM90YAL7TCGVQ42","27","0","ANIMAL","2","5","1","956","Animal","2","2018-06-28 17:23:50","316137"
"AYGJUG9FNEJVI","cs_wg_full_v2_real1","3ND9UOO81K3D2LZK4AYLORRQM37WL5","5","0","CABINET","1","5","0","4525","Cabinet","1","2018-06-28 17:23:50","316138"
"A282BOWD2IBE4X","cs_wg_full_v2_real1","34FNN24DCMA3P1RZRO02SZG9BL7Y5I","0","0","FORGERY","3","5","0","6081","forge","3","2018-06-28 17:23:50","316139"
"A2G8DTHDX0XO4I","cs_wg_full_v2_real1","3NQL1CS15R9KNV6EXFIFWXA8O99VYM","9","0","ANIMAL","4","5","1","6672","ANIMAL","6","2018-06-28 17:23:51","316140"
"A2DL00FVCOBYHJ","cs_wg_full_v2_real1","3COPXFW7XBDCY6K17O8PHX6F46ZKPV","12","0","GOGGLES","7","5","0","4138","goggles","5","2018-06-28 17:23:51","316141"
"ASLGHXA4453BQ","cs_wg_full_v2_real1","3JV9LGBJWTFPBKCH2XAVU59WNKMOGF","17","0","ANIMAL","9","5","0","1602","animal","9","2018-06-28 17:23:51","316142"
"A1NNHRXAIIHH9D","cs_wg_full_v2_real1","3SB5N7Y3O35483KY0C8K44DEPH6G0H","5","0","SUMMER","9","5","1","3442","summer","9","2018-06-28 17:23:51","316143"
"A3N7NW3VUMDL4X","cs_wg_full_v2_real1","3ZV9H2YQQD8WMH9VY4ULS5X9MHGW3R","2","0","TRIVIA","9","5","0","4021","Trivia","9","2018-06-28 17:23:51","316144"
"ABPM2716DVK3F","cs_wg_full_v2_real1","3OE22WJIGIPB1EQS1FRGNP5NBTJUQT","17","0","SPATULA","11","5","0","1061","Spatula","11","2018-06-28 17:23:51","316145"
"A1UKZRDH1T231M","cs_wg_full_v2_real1","3VZLGYJEYLBCWALETGLGYPGVAELZXK","16","0","SPONGE","2","5","0","2048","SPONGE","2","2018-06-28 17:23:52","316146"
"AHV4U78TUUDKI","cs_wg_full_v2_real1","3NG53N1RLVKS35I0YZBMRSXO9668P1","8","0","CHICKEN","8","5","0","1635","chicken ","8","2018-06-28 17:23:52","316147"
"AGSTNWHT8ECY1","cs_wg_full_v2_real1","3MX2NQ3YC9VEPW1PMSE09L909FDX5B","1","0","BULLET","8","5","1","5321","BULLET","8","2018-06-28 17:23:52","316148"
"A139T58A6VX1ZJ","cs_wg_full_v2_real1","3K772S5NP8CHZPU3SPPHATRJYIUEH1","2","0","HEAVEN","10","5","1","5438","heaven","10","2018-06-28 17:23:52","316149"
"A36HLORY5EEG4X","cs_wg_full_v2_real1","3NOKK93PR195FF312OHBPQU6622EEL","1","0","BEGGAR","9","5","0","4110","beggar","9","2018-06-28 17:23:52","316150"
"A2M20C31SK6KCJ","cs_wg_full_v2_real1","3TVSS0C0E111LY7PDJ0CAI17GGTWT8","2","0","CELERY","11","5","0","1764","CELERY","7","2018-06-28 17:23:52","316151"
"A3H2Z8DCHVGTO6","cs_wg_full_v2_real1","3VAR3R6G1P2AI56ZJZY72SSYZ19O8Z","9","0","THRONE","9","5","0","1108","throne","9","2018-06-28 17:23:53","316152"
"A13GUTDMGGZZDL","cs_wg_full_v2_real1","3L2IS5HSFAJQYHD0LNZZJVAI6IWNUZ","7","0","CRICKET","1","5","0","3175","cricket","1","2018-06-28 17:23:53","316153"
"AABTCZKHGB7AR","cs_wg_full_v2_real1","32N49TQG3GJJRD8BH94ZTBS1LI6VAC","9","0","DOMINO","6","5","0","1760","DOMINO","6","2018-06-28 17:23:53","316154"
"A32TE6EV146OW","cs_wg_full_v2_real1","3JV9LGBJWTFPBKCH2XAVU59WNKNGO8","6","0","BABOON","2","5","1","2480","baboon","2","2018-06-28 17:23:54","316155"
"A3DG1J21ISJC9O","cs_wg_full_v2_real1","3JW0YLFXRTHTDFBJ8O5NX286KABWWY","11","0","DEMON","7","5","1","2308","Demon","7","2018-06-28 17:23:54","316156"
"ANUMWP3PGWQBJ","cs_wg_full_v2_real1","3TOK3KHVJTJ6IR1G9U61OSW3OH3O7C","4","0","FRIEND","12","5","0","2933","FRIEND","12","2018-06-28 17:23:54","316157"
"A38ZSUV2A2HCB9","cs_wg_full_v2_real1","3R0T90IZ1SDO2VFECS14Z5FFY63GCA","8","0","GIRAFFE","7","5","0","1555","giraffe","7","2018-06-28 17:23:54","316158"
"A3PE20PVSRKCLA","cs_wg_full_v2_real1","3R2UR8A0IAH0X677R7AZIR9RQAIXOG","7","0","BABOON","9","5","0","6973","BABOON","9","2018-06-28 17:23:54","316159"
"A3A54V0XVSERFC","cs_wg_full_v2_real1","3P59JYT76LLF9I9IZZB5MBLIC9YT2N","1","0","BULLET","12","5","0","2563","W","12","2018-06-28 17:23:55","316160"
"ABWE3PBZSLECW","cs_wg_full_v2_real1","324G5B4FB39LFA9X794QYR0LQEO706","2","0","TONGUE","7","5","0","3132","tongue","7","2018-06-28 17:23:55","316161"
"A1S68DTVE9GU76","cs_wg_full_v2_real1","33OOO72IVHMS701KWS0BYOU4O0BCTF","18","0","BULLET","1","5","0","3666","bullet","1","2018-06-28 17:23:55","316162"
"AJTKU0XJ7QTME","cs_wg_full_v2_real1","3QECW5O0KH278FS5HID3KIOUWJPT5O","0","0","CABINET","10","5","1","3348","cabinet","10","2018-06-28 17:23:55","316163"
"A3SNR937FTFKFP","cs_wg_full_v2_real1","3LS2AMNW5FRGO96V5TF7OJDYT7VQOC","5","0","BIKINI","2","5","0","4959","bikini","2","2018-06-28 17:23:55","316164"
"A34LAJH3Q4GEPC","cs_wg_full_v2_real1","3D4CH1LGEAUM4X8B08RDXFE7SL0G9T","3","0","SHIVER","11","5","0","2955","shiver","11","2018-06-28 17:23:56","316165"
"A30BFU2MOXOS","cs_wg_full_v2_real1","3018Q3ZVOIRRY6RU8PZPSE3Y0CTRAF","2","0","DOLLAR","2","5","0","4952","dollar","2","2018-06-28 17:23:56","316166"
"A3BH1OZZ0VRLXI","cs_wg_full_v2_real1","38F71OA9GTXVXHVAEXP0KGKFR57FMS","4","0","TRIVIA","8","5","1","4008","trivia","5","2018-06-28 17:23:56","316167"
"A3ZRJ5ATKTDSW","cs_wg_full_v2_real1","3TMFV4NEP8FINEF1ALPHJM5K238W8J","11","0","PILLAR","7","5","0","2332","pillar","7","2018-06-28 17:23:56","316168"
"A29OCOF4PPVQJC","cs_wg_full_v2_real1","3VE8AYVF8MYGCST6KWFHFYJK70IF84","18","0","ALMOND","5","5","0","1913","almond","5","2018-06-28 17:23:57","316169"
"A2DOIZHRZR5HHU","cs_wg_full_v2_real1","3OVR4I9USPKCKGWDM90YAL7TCGVQ42","28","0","BALCONY","12","5","0","593","Balcony","12","2018-06-28 17:23:57","316170"
"A3G4HX36KVNQC0","cs_wg_full_v2_real1","3WETL7AQWT929YUB237C25KW2KD35I","9","0","ABDOMEN","3","5","1","2464","Abdomen","3","2018-06-28 17:23:57","316171"
"A1N85HSLCY9OK1","cs_wg_full_v2_real1","3Y4W8Q93LZLHPKBN1JV1JC076L4DVX","7","0","BAGPIPE","1","5","1","1930","bagpipe","1","2018-06-28 17:23:57","316172"
"A140OPI45PUCN1","cs_wg_full_v2_real1","3YW4XOSQKQMNKA6BG011MOXF3HRU1Y","12","0","BLANKET","8","5","0","2251","blanket","8","2018-06-28 17:23:57","316173"
"A3TODSYUYQ1V65","cs_wg_full_v2_real1","39GXDJN2OTF58PFWKBKLXKM6VU6V88","6","0","BABOON","4","5","1","2819","BABOON","4","2018-06-28 17:23:57","316174"
"AX00W57XAZBWO","cs_wg_full_v2_real1","3GFK2QRXX9IZ0WWZCNIE72VT0D85WR","7","0","SPIRAL","3","5","1","3462","spiral","3","2018-06-28 17:23:58","316175"
"AZ57C58RDAMJF","cs_wg_full_v2_real1","3S96KQ6I9M52CS7YWOVMIUCM90NTDW","7","0","EARDRUM","10","5","0","3135","eardrum","10","2018-06-28 17:23:58","316176"
"A1WBTDNCJBXPLX","cs_wg_full_v2_real1","3QEMNNSB2X0FEUARJLSLDYK4K3X7DZ","2","0","SCIENCE","12","5","0","2599","science","12","2018-06-28 17:23:58","316177"
"A1T0ND039EWAVV","cs_wg_full_v2_real1","3M0NZ3JDP1Z3UR14NA2L66PBHFC5ZH","10","0","TRAFFIC","7","5","0","2655","traffic","7","2018-06-28 17:23:58","316178"
"A2ZUC3INRC7TP3","cs_wg_full_v2_real1","3OXV7EAXLERYS2UP7MHHUBYWYFO631","1","0","DEMON","9","5","0","7594","demon","9","2018-06-28 17:23:59","316179"
"ASLGHXA4453BQ","cs_wg_full_v2_real1","3JV9LGBJWTFPBKCH2XAVU59WNKMOGF","18","0","MUFFIN","2","5","1","2073","muffin","2","2018-06-28 17:24:00","316180"
"A34SVP7NQ7MH17","cs_wg_full_v2_real1","37Z929RLG998EHQGTEQBDTYMA3XTSQ","7","0","BALCONY","9","5","0","2761","balcony","9","2018-06-28 17:24:00","316181"
"ADMPIBL7UKJUS","cs_wg_full_v2_real1","3UN61F00HWQUS0FDDT88K3NC8YSR59","8","0","FLIGHT","8","5","0","8708","flight","8","2018-06-28 17:24:00","316182"
"A3OTBMKOEQ410P","cs_wg_full_v2_real1","3NLZY2D53PQ8IO3YS1ZFW294Y2QQLV","10","0","BAGPIPE","1","5","0","1837","bagpipe","1","2018-06-28 17:24:00","316183"
"AG430TVZD4313","cs_wg_full_v2_real1","3OF2M9AATGP6CAM7UX6R8V8TE56KZG","16","0","PRIEST","8","5","0","2152","priest","8","2018-06-28 17:24:00","316184"
"ABPM2716DVK3F","cs_wg_full_v2_real1","3OE22WJIGIPB1EQS1FRGNP5NBTJUQT","18","0","BAGPIPE","3","5","1","1450","bagpipe","3","2018-06-28 17:24:00","316185"
"A1UKZRDH1T231M","cs_wg_full_v2_real1","3VZLGYJEYLBCWALETGLGYPGVAELZXK","17","0","JACKET","6","5","0","1770","JACKET","6","2018-06-28 17:24:00","316186"
"AV8SKBUQ7KOU5","cs_wg_full_v2_real1","3ZAZR5XV01JOTCAJ2KPTKCVL9WXCZV","4","0","SHIVER","5","5","0","7245","shiver","5","2018-06-28 17:24:01","316187"
"A30M5EFYJ9R84T","cs_wg_full_v2_real1","3QAVNHZ3EM5GV8WH352T62UZUK4AL8","11","0","MUFFIN","12","5","1","3131","MUFFIN","MUFFIN","2018-06-28 17:24:01","316188"
"A62S68DZEDAKA","cs_wg_full_v2_real1","3B2X28YI3WG3VXY2MFWNCUW8M716BS","6","0","TRAFFIC","6","5","0","1258","traffic","6","2018-06-28 17:24:01","316189"
"A3N6I6F2CUQUN","cs_wg_full_v2_real1","3HRMW88U16R40DGKBF6FH9XBL3IM0V","3","0","BABOON","12","5","1","3576","BABBOON","12","2018-06-28 17:24:01","316190"
"A2TNJ41V0E1WK4","cs_wg_full_v2_real1","3EA3QWIZ4IWJK3NKO2WX9RSZ15VITN","12","0","DOLLAR","4","5","1","3728","Dollar","4","2018-06-28 17:24:01","316191"
"A36X8EUS26449Y","cs_wg_full_v2_real1","3QILPRALQ5WS0K6NIKYUN3ST9R4N8J","1","0","CRICKET","3","5","1","7419","cricket","3","2018-06-28 17:24:01","316192"
"A15X0MSBZ74TFT","cs_wg_full_v2_real1","3Y9N9SS8LYCXDB94H9PV0H8OF1AD3Z","7","0","TRIVIA","1","5","1","3856","trivia","1","2018-06-28 17:24:01","316193"
"A32TE6EV146OW","cs_wg_full_v2_real1","3JV9LGBJWTFPBKCH2XAVU59WNKNGO8","7","0","TONGUE","8","5","0","1069","tongue","8","2018-06-28 17:24:02","316194"
"A1NNHRXAIIHH9D","cs_wg_full_v2_real1","3SB5N7Y3O35483KY0C8K44DEPH6G0H","6","0","HEAVEN","10","5","0","2036","heaven","10","2018-06-28 17:24:02","316195"
"A3W2TEQC53S3WW","cs_wg_full_v2_real1","3OCHAWUVGOLH7FMSTFI6BASI658KXJ","5","0","FRIEND","1","5","1","5245","friend","1","2018-06-28 17:24:02","316196"
"AHV4U78TUUDKI","cs_wg_full_v2_real1","3NG53N1RLVKS35I0YZBMRSXO9668P1","9","0","FIREFLY","10","5","0","1591","firefly","10","2018-06-28 17:24:03","316197"
"AMI4OR8CUAIED","cs_wg_full_v2_real1","3FFJ6VRIL1PI4UQTQ08NPGQU4UYI0B","3","0","FLIGHT","5","5","1","2402","flight","5","2018-06-28 17:24:03","316198"
"A2DOIZHRZR5HHU","cs_wg_full_v2_real1","3OVR4I9USPKCKGWDM90YAL7TCGVQ42","29","0","COFFEE","7","5","0","592","Coffee","7","2018-06-28 17:24:03","316199"
"A1EQN91S6T820I","cs_wg_full_v2_real1","3NLZY2D53PQ8IO3YS1ZFW294Y2QLQQ","11","0","FIREFLY","9","5","0","1222","firefly","9","2018-06-28 17:24:03","316200"
"A2GOX7W5IA7LHE","cs_wg_full_v2_real1","3Z7ISHFUH0WMH9K6L89OIQZ2J5CZ8C","1","0","WALNUT","10","5","0","3854","walnut","10","2018-06-28 17:24:04","316201"
"A2LW8B2A7KGWST","cs_wg_full_v2_real1","39N5ACM9HEOSHA1A3RH0ROSZTCO9PR","3","0","BALCONY","9","5","1","2619","balcony","9","2018-06-28 17:24:04","316202"
"A3DG1J21ISJC9O","cs_wg_full_v2_real1","3JW0YLFXRTHTDFBJ8O5NX286KABWWY","12","0","DAGGER","10","5","0","2386","Dagger","10","2018-06-28 17:24:04","316203"
"A2DL00FVCOBYHJ","cs_wg_full_v2_real1","3COPXFW7XBDCY6K17O8PHX6F46ZKPV","13","0","JUNGLE","12","5","0","1301","jungle","5","2018-06-28 17:24:04","316204"
"AYGJUG9FNEJVI","cs_wg_full_v2_real1","3ND9UOO81K3D2LZK4AYLORRQM37WL5","6","0","BEAVER","8","5","0","2311","Beaver","8","2018-06-28 17:24:04","316205"
"A3H2Z8DCHVGTO6","cs_wg_full_v2_real1","3VAR3R6G1P2AI56ZJZY72SSYZ19O8Z","10","0","DOLLAR","4","5","1","4190","dollar","4","2018-06-28 17:24:05","316206"
"A38ZSUV2A2HCB9","cs_wg_full_v2_real1","3R0T90IZ1SDO2VFECS14Z5FFY63GCA","9","0","CHORUS","9","5","0","1329","chorus","9","2018-06-28 17:24:05","316207"
"AABTCZKHGB7AR","cs_wg_full_v2_real1","32N49TQG3GJJRD8BH94ZTBS1LI6VAC","10","0","HERMIT","12","5","0","2486","HERMIT","12","2018-06-28 17:24:05","316208"
"A29OCOF4PPVQJC","cs_wg_full_v2_real1","3VE8AYVF8MYGCST6KWFHFYJK70IF84","19","0","ROYALTY","1","5","1","1829","royalty","1","2018-06-28 17:24:05","316209"
"A2M20C31SK6KCJ","cs_wg_full_v2_real1","3TVSS0C0E111LY7PDJ0CAI17GGTWT8","3","0","CELERY","11","5","0","3665","CELERY","5","2018-06-28 17:24:06","316210"
"A3ZRJ5ATKTDSW","cs_wg_full_v2_real1","3TMFV4NEP8FINEF1ALPHJM5K238W8J","12","0","DOMINO","5","5","0","1923","domino","5","2018-06-28 17:24:06","316211"
"A1S68DTVE9GU76","cs_wg_full_v2_real1","33OOO72IVHMS701KWS0BYOU4O0BCTF","19","0","PLANET","6","5","0","1697","planet","9","2018-06-28 17:24:06","316212"
"A3PE20PVSRKCLA","cs_wg_full_v2_real1","3R2UR8A0IAH0X677R7AZIR9RQAIXOG","8","0","TRAFFIC","7","5","0","1778","TRAFFIC","7","2018-06-28 17:24:06","316213"
"A37BTYD4D4Q8U5","cs_wg_full_v2_real1","3M0BCWMB8VX1PCD8DX9RAOVLA9UBWY","2","0","JAVELIN","5","5","0","2303","javelin","5","2018-06-28 17:24:06","316214"
"A139T58A6VX1ZJ","cs_wg_full_v2_real1","3K772S5NP8CHZPU3SPPHATRJYIUEH1","3","0","ALMOND","6","5","0","2514","almond","6","2018-06-28 17:24:06","316215"
"ABWE3PBZSLECW","cs_wg_full_v2_real1","324G5B4FB39LFA9X794QYR0LQEO706","3","0","HEAVEN","6","5","0","2566","heaven","6","2018-06-28 17:24:07","316216"
"A140OPI45PUCN1","cs_wg_full_v2_real1","3YW4XOSQKQMNKA6BG011MOXF3HRU1Y","13","0","PEACOCK","9","5","0","1832","peacock","9","2018-06-28 17:24:07","316217"
"A2KDYSLV030FVX","cs_wg_full_v2_real1","3YMTUJH0DSHPCWO53DUTFQIGWNUT4J","6","0","PEANUT","11","5","0","6504","peanut","11","2018-06-28 17:24:07","316218"
"ASLGHXA4453BQ","cs_wg_full_v2_real1","3JV9LGBJWTFPBKCH2XAVU59WNKMOGF","19","0","MUFFIN","2","5","1","1434","muffin","2","2018-06-28 17:24:07","316219"
"A282BOWD2IBE4X","cs_wg_full_v2_real1","34FNN24DCMA3P1RZRO02SZG9BL7Y5I","1","0","PILLAR","7","5","0","3274","pillar","7","2018-06-28 17:24:07","316220"
"A3SNR937FTFKFP","cs_wg_full_v2_real1","3LS2AMNW5FRGO96V5TF7OJDYT7VQOC","6","0","BULLET","5","5","0","4457","bullet","5","2018-06-28 17:24:08","316221"
"ABPM2716DVK3F","cs_wg_full_v2_real1","3OE22WJIGIPB1EQS1FRGNP5NBTJUQT","19","0","BALCONY","9","5","0","1287","balcony","9","2018-06-28 17:24:08","316222"
"A36HLORY5EEG4X","cs_wg_full_v2_real1","3NOKK93PR195FF312OHBPQU6622EEL","2","0","TRIVIA","11","5","0","2069","trivia","11","2018-06-28 17:24:08","316223"
"A3G4HX36KVNQC0","cs_wg_full_v2_real1","3WETL7AQWT929YUB237C25KW2KD35I","10","0","BULLET","11","5","0","1532","Bullet ","11","2018-06-28 17:24:08","316224"
"A1UKZRDH1T231M","cs_wg_full_v2_real1","3VZLGYJEYLBCWALETGLGYPGVAELZXK","18","0","BAPTISM","9","5","0","1305","BAPTISM","9","2018-06-28 17:24:08","316225"
"A13GUTDMGGZZDL","cs_wg_full_v2_real1","3L2IS5HSFAJQYHD0LNZZJVAI6IWNUZ","8","0","SILVER","12","5","0","3270","silver","12","2018-06-28 17:24:09","316226"
"A3ROCURKQZE1K7","cs_wg_full_v2_real1","3IRIK4HM3ALM52Q80FSINE2Q4S1C65","0","0","SILVER","4","5","0","4781","Silver","4","2018-06-28 17:24:09","316227"
"AX00W57XAZBWO","cs_wg_full_v2_real1","3GFK2QRXX9IZ0WWZCNIE72VT0D85WR","8","0","SUMMER","4","5","0","2278","summer","4","2018-06-28 17:24:09","316228"
"A2G8DTHDX0XO4I","cs_wg_full_v2_real1","3NQL1CS15R9KNV6EXFIFWXA8O99VYM","10","0","COFFIN","9","5","0","3501","COFFIN","9","2018-06-28 17:24:09","316229"
"A2DOIZHRZR5HHU","cs_wg_full_v2_real1","3OVR4I9USPKCKGWDM90YAL7TCGVQ42","30","0","SILVER","9","5","0","683","Silver","9","2018-06-28 17:24:10","316230"
"A32TE6EV146OW","cs_wg_full_v2_real1","3JV9LGBJWTFPBKCH2XAVU59WNKNGO8","8","0","SUMMER","9","5","0","1050","summer","9","2018-06-28 17:24:10","316231"
"AJTKU0XJ7QTME","cs_wg_full_v2_real1","3QECW5O0KH278FS5HID3KIOUWJPT5O","1","0","BASKET","11","5","1","2607","basket","11","2018-06-28 17:24:10","316232"
"A1T0ND039EWAVV","cs_wg_full_v2_real1","3M0NZ3JDP1Z3UR14NA2L66PBHFC5ZH","11","0","THRONE","11","5","0","4416","throne","11","2018-06-28 17:24:10","316233"
"A2ZM4LN2OUFME0","cs_wg_full_v2_real1","3K3R2QNK8B459F96KDGU1UFY1TFU97","0","0","BAPTISM","12","5","0","9966","bash","12","2018-06-28 17:24:10","316234"
"A3CI8WWVFXEW74","cs_wg_full_v2_real1","3E47SOBEYQX2YML92G17KHSVDJVCIY","15","0","BANQUET","12","5","0","15258","banquet","12","2018-06-28 17:24:10","316235"
"A3N7NW3VUMDL4X","cs_wg_full_v2_real1","3ZV9H2YQQD8WMH9VY4ULS5X9MHGW3R","3","0","SUNBURN","10","5","1","3401","sunburn","9","2018-06-28 17:24:10","316236"
"A2TNJ41V0E1WK4","cs_wg_full_v2_real1","3EA3QWIZ4IWJK3NKO2WX9RSZ15VITN","13","0","CHICKEN","12","5","0","2851","Chicken","12","2018-06-28 17:24:12","316237"
"AZ57C58RDAMJF","cs_wg_full_v2_real1","3S96KQ6I9M52CS7YWOVMIUCM90NTDW","8","0","CELERY","6","5","0","3696","celery","6","2018-06-28 17:24:12","316238"
"A3TODSYUYQ1V65","cs_wg_full_v2_real1","39GXDJN2OTF58PFWKBKLXKM6VU6V88","7","0","BABOON","4","5","1","5123","BABOON","5","2018-06-28 17:24:13","316239"
"A1WBTDNCJBXPLX","cs_wg_full_v2_real1","3QEMNNSB2X0FEUARJLSLDYK4K3X7DZ","3","0","FIREMAN","10","5","0","3469","fireman","10","2018-06-28 17:24:13","316240"
"A34SVP7NQ7MH17","cs_wg_full_v2_real1","37Z929RLG998EHQGTEQBDTYMA3XTSQ","8","0","BALCONY","9","5","0","2539","balcony","9","2018-06-28 17:24:13","316241"
"A3DG1J21ISJC9O","cs_wg_full_v2_real1","3JW0YLFXRTHTDFBJ8O5NX286KABWWY","13","0","DEMON","7","5","0","1978","Demon","7","2018-06-28 17:24:13","316242"
"A62S68DZEDAKA","cs_wg_full_v2_real1","3B2X28YI3WG3VXY2MFWNCUW8M716BS","7","0","DOLLAR","5","5","0","1688","dollar","5","2018-06-28 17:24:13","316243"
"AHV4U78TUUDKI","cs_wg_full_v2_real1","3NG53N1RLVKS35I0YZBMRSXO9668P1","10","0","ADDICT","6","5","0","2093","addict","6","2018-06-28 17:24:14","316244"
"A30M5EFYJ9R84T","cs_wg_full_v2_real1","3QAVNHZ3EM5GV8WH352T62UZUK4AL8","12","0","EARDRUM","4","5","0","2006","EARDRUM","EARDRUM","2018-06-28 17:24:14","316245"
"A1N85HSLCY9OK1","cs_wg_full_v2_real1","3Y4W8Q93LZLHPKBN1JV1JC076L4DVX","8","0","MUFFIN","8","5","0","8827","muffin","8","2018-06-28 17:24:14","316246"
"A2F79GFUWU5O96","cs_wg_full_v2_real1","3PW9OPU9PQLE0YX9XGRVG52NKQ812N","0","0","ANIMAL","11","5","0","5340","animal","11","2018-06-28 17:24:14","316247"
"A3OTBMKOEQ410P","cs_wg_full_v2_real1","3NLZY2D53PQ8IO3YS1ZFW294Y2QQLV","11","0","SUNBURN","11","5","0","1889","sunburn","11","2018-06-28 17:24:14","316248"
"ADMPIBL7UKJUS","cs_wg_full_v2_real1","3UN61F00HWQUS0FDDT88K3NC8YSR59","9","0","SCIENCE","12","5","0","2076","science ","11","2018-06-28 17:24:15","316249"
"A3ZRJ5ATKTDSW","cs_wg_full_v2_real1","3TMFV4NEP8FINEF1ALPHJM5K238W8J","13","0","CHURCH","4","5","0","1712","church","4","2018-06-28 17:24:15","316250"
"ANUMWP3PGWQBJ","cs_wg_full_v2_real1","3TOK3KHVJTJ6IR1G9U61OSW3OH3O7C","5","0","CANNON","1","5","0","4565","CANNON","1","2018-06-28 17:24:15","316252"
"A36X8EUS26449Y","cs_wg_full_v2_real1","3QILPRALQ5WS0K6NIKYUN3ST9R4N8J","2","0","CAMERA","8","5","0","3181","camera","8","2018-06-28 17:24:15","316251"
"A3H2Z8DCHVGTO6","cs_wg_full_v2_real1","3VAR3R6G1P2AI56ZJZY72SSYZ19O8Z","11","0","FORGERY","12","5","0","1775","forgery","12","2018-06-28 17:24:15","316253"
"A29OCOF4PPVQJC","cs_wg_full_v2_real1","3VE8AYVF8MYGCST6KWFHFYJK70IF84","20","0","BAGPIPE","6","5","0","2014","bagpipe","6","2018-06-28 17:24:15","316254"
"A1EQN91S6T820I","cs_wg_full_v2_real1","3NLZY2D53PQ8IO3YS1ZFW294Y2QLQQ","12","0","CANVAS","5","5","1","2942","canvas","5","2018-06-28 17:24:15","316255"
"A38ZSUV2A2HCB9","cs_wg_full_v2_real1","3R0T90IZ1SDO2VFECS14Z5FFY63GCA","10","0","CANNON","2","5","0","1825","cannon","2","2018-06-28 17:24:15","316256"
"A30BFU2MOXOS","cs_wg_full_v2_real1","3018Q3ZVOIRRY6RU8PZPSE3Y0CTRAF","3","0","WAFFLE","11","5","0","4509","waffle","11","2018-06-28 17:24:15","316257"
"A1NNHRXAIIHH9D","cs_wg_full_v2_real1","3SB5N7Y3O35483KY0C8K44DEPH6G0H","7","0","BLANKET","2","5","1","2439","blanket","2","2018-06-28 17:24:16","316258"
"A15X0MSBZ74TFT","cs_wg_full_v2_real1","3Y9N9SS8LYCXDB94H9PV0H8OF1AD3Z","8","0","PRIEST","5","5","0","3483","priest","5","2018-06-28 17:24:16","316259"
"ASLGHXA4453BQ","cs_wg_full_v2_real1","3JV9LGBJWTFPBKCH2XAVU59WNKMOGF","20","0","PARENT","1","5","1","1804","parent","1","2018-06-28 17:24:16","316260"
"A2DL00FVCOBYHJ","cs_wg_full_v2_real1","3COPXFW7XBDCY6K17O8PHX6F46ZKPV","14","0","BLANKET","8","5","0","1935","blanket","5","2018-06-28 17:24:16","316261"
"A1VP5RK4OTU2TW","cs_wg_full_v2_real1","3B2X28YI3WG3VXY2MFWNCUW8M71B6X","1","0","CANNON","2","5","0","13869","CANNON","2","2018-06-28 17:24:16","316262"
"ABPM2716DVK3F","cs_wg_full_v2_real1","3OE22WJIGIPB1EQS1FRGNP5NBTJUQT","20","0","FORGERY","2","5","1","2189","Forgery","2","2018-06-28 17:24:17","316263"
"A2DOIZHRZR5HHU","cs_wg_full_v2_real1","3OVR4I9USPKCKGWDM90YAL7TCGVQ42","31","0","JUNGLE","6","5","1","1254","Jungle","6","2018-06-28 17:24:17","316264"
"A1S68DTVE9GU76","cs_wg_full_v2_real1","33OOO72IVHMS701KWS0BYOU4O0BCTF","20","0","BANQUET","2","5","0","2040","banquet","2","2018-06-28 17:24:17","316265"
"A1UKZRDH1T231M","cs_wg_full_v2_real1","3VZLGYJEYLBCWALETGLGYPGVAELZXK","19","0","CANVAS","11","5","0","1200","CANVAS","11","2018-06-28 17:24:17","316266"
"ABWE3PBZSLECW","cs_wg_full_v2_real1","324G5B4FB39LFA9X794QYR0LQEO706","4","0","DEMON","5","5","1","2474","demon","5","2018-06-28 17:24:17","316267"
"A34LAJH3Q4GEPC","cs_wg_full_v2_real1","3D4CH1LGEAUM4X8B08RDXFE7SL0G9T","4","0","BIKINI","8","5","1","7733","bikini","8","2018-06-28 17:24:18","316268"
"AG430TVZD4313","cs_wg_full_v2_real1","3OF2M9AATGP6CAM7UX6R8V8TE56KZG","17","0","SPATULA","7","5","1","7071","spatula","7","2018-06-28 17:24:18","316269"
"A140OPI45PUCN1","cs_wg_full_v2_real1","3YW4XOSQKQMNKA6BG011MOXF3HRU1Y","14","0","BAPTISM","11","5","0","2199","baptism","11","2018-06-28 17:24:18","316270"
"A3PE20PVSRKCLA","cs_wg_full_v2_real1","3R2UR8A0IAH0X677R7AZIR9RQAIXOG","9","0","SPATULA","11","5","0","1467","SPATULA","11","2018-06-28 17:24:18","316271"
"A3BH1OZZ0VRLXI","cs_wg_full_v2_real1","38F71OA9GTXVXHVAEXP0KGKFR57FMS","5","0","CARROT","9","5","1","9031","carrot ","9","2018-06-28 17:24:18","316272"
"A2LW8B2A7KGWST","cs_wg_full_v2_real1","39N5ACM9HEOSHA1A3RH0ROSZTCO9PR","4","0","BUDGET","1","5","0","2962","budget","1","2018-06-28 17:24:18","316273"
"A2ZUC3INRC7TP3","cs_wg_full_v2_real1","3OXV7EAXLERYS2UP7MHHUBYWYFO631","2","0","DRAGON","11","5","0","4964","dragon","11","2018-06-28 17:24:18","316274"
"A1T0ND039EWAVV","cs_wg_full_v2_real1","3M0NZ3JDP1Z3UR14NA2L66PBHFC5ZH","12","0","BAKERY","10","5","0","1816","bakery","10","2018-06-28 17:24:18","316275"
"A1AMP9RUXAAV9K","cs_wg_full_v2_real1","3AQF3RZ558JT8EAIRHIJVKNT15TF6J","0","0","ANIMAL","1","5","1","6718","ANIMAL","1","2018-06-28 17:24:19","316276"
"A3CI8WWVFXEW74","cs_wg_full_v2_real1","3E47SOBEYQX2YML92G17KHSVDJVCIY","16","0","CANNON","9","5","0","1257","cannon","9","2018-06-28 17:24:19","316277"
"A3W2TEQC53S3WW","cs_wg_full_v2_real1","3OCHAWUVGOLH7FMSTFI6BASI658KXJ","6","0","SUNBURN","7","5","0","4287","sunburn","7","2018-06-28 17:24:19","316278"
"A3G4HX36KVNQC0","cs_wg_full_v2_real1","3WETL7AQWT929YUB237C25KW2KD35I","11","0","CANVAS","12","5","0","1033","Canvas","12","2018-06-28 17:24:19","316279"
"A139T58A6VX1ZJ","cs_wg_full_v2_real1","3K772S5NP8CHZPU3SPPHATRJYIUEH1","4","0","BATTERY","3","5","0","3370","battery","3","2018-06-28 17:24:20","316280"
"A37BTYD4D4Q8U5","cs_wg_full_v2_real1","3M0BCWMB8VX1PCD8DX9RAOVLA9UBWY","3","0","SUMMER","10","5","0","2485","summer","10","2018-06-28 17:24:20","316281"
"A3N6I6F2CUQUN","cs_wg_full_v2_real1","3HRMW88U16R40DGKBF6FH9XBL3IM0V","4","0","MONKEY","3","5","0","3879","MONKEY","3","2018-06-28 17:24:20","316282"
"A32TE6EV146OW","cs_wg_full_v2_real1","3JV9LGBJWTFPBKCH2XAVU59WNKNGO8","9","0","CHICKEN","3","5","0","1277","chicken","3","2018-06-28 17:24:21","316283"
"AYGJUG9FNEJVI","cs_wg_full_v2_real1","3ND9UOO81K3D2LZK4AYLORRQM37WL5","7","0","GIRAFFE","5","5","1","5605","Giraffe","5","2018-06-28 17:24:21","316284"
"A3SNR937FTFKFP","cs_wg_full_v2_real1","3LS2AMNW5FRGO96V5TF7OJDYT7VQOC","7","0","JACKET","8","5","0","3293","jacket","8","2018-06-28 17:24:21","316285"
"AGSTNWHT8ECY1","cs_wg_full_v2_real1","3MX2NQ3YC9VEPW1PMSE09L909FDX5B","2","0","FLIGHT","11","5","1","13918","FLIGHT","11","2018-06-28 17:24:22","316286"
"A36HLORY5EEG4X","cs_wg_full_v2_real1","3NOKK93PR195FF312OHBPQU6622EEL","3","0","LIQUID","7","5","0","2011","liquid","7","2018-06-28 17:24:22","316287"
"A25NI7DEN0IDCI","cs_wg_full_v2_real1","324G5B4FB39LFA9X794QYR0LQEO07Z","0","0","CARROT","4","5","0","8175","CARROT","5","2018-06-28 17:24:22","316288"
"A38Z10YT1VO5T6","cs_wg_full_v2_real1","3W8CV64QJ2004T3MKE9VIFQ87LEH9U","0","0","ABDOMEN","11","5","0","4325","abdomen","11","2018-06-28 17:24:22","316289"
"AJTKU0XJ7QTME","cs_wg_full_v2_real1","3QECW5O0KH278FS5HID3KIOUWJPT5O","2","0","PARENT","12","5","1","1807","parent","12","2018-06-28 17:24:22","316290"
"AV8SKBUQ7KOU5","cs_wg_full_v2_real1","3ZAZR5XV01JOTCAJ2KPTKCVL9WXCZV","5","0","SHIVER","5","5","1","6326","shiver","5","2018-06-28 17:24:23","316291"
"A2GOX7W5IA7LHE","cs_wg_full_v2_real1","3Z7ISHFUH0WMH9K6L89OIQZ2J5CZ8C","2","0","DOMINO","6","5","0","4780","domino","6","2018-06-28 17:24:23","316292"
"A2G8DTHDX0XO4I","cs_wg_full_v2_real1","3NQL1CS15R9KNV6EXFIFWXA8O99VYM","11","0","ROYALTY","10","5","0","3246","ROYALTY","10","2018-06-28 17:24:23","316293"
"A13GUTDMGGZZDL","cs_wg_full_v2_real1","3L2IS5HSFAJQYHD0LNZZJVAI6IWNUZ","9","0","TENNIS","3","5","0","3342","tennis","3","2018-06-28 17:24:23","316294"
"ABPM2716DVK3F","cs_wg_full_v2_real1","3OE22WJIGIPB1EQS1FRGNP5NBTJUQT","21","0","FORGERY","2","5","1","1053","forgery","2","2018-06-28 17:24:24","316295"
"A29OCOF4PPVQJC","cs_wg_full_v2_real1","3VE8AYVF8MYGCST6KWFHFYJK70IF84","21","0","DRAGON","9","5","0","1743","dragon","9","2018-06-28 17:24:24","316296"
"A30M5EFYJ9R84T","cs_wg_full_v2_real1","3QAVNHZ3EM5GV8WH352T62UZUK4AL8","13","0","HEAVEN","8","5","0","1473","HEAVAN","HEAVAN","2018-06-28 17:24:24","316297"
"A2DOIZHRZR5HHU","cs_wg_full_v2_real1","3OVR4I9USPKCKGWDM90YAL7TCGVQ42","32","0","TURKEY","4","5","0","929","Turkey","4","2018-06-28 17:24:24","316298"
"ASLGHXA4453BQ","cs_wg_full_v2_real1","3JV9LGBJWTFPBKCH2XAVU59WNKMOGF","21","0","SPIRAL","6","5","1","1656","spiral","6","2018-06-28 17:24:24","316299"
"A3DG1J21ISJC9O","cs_wg_full_v2_real1","3JW0YLFXRTHTDFBJ8O5NX286KABWWY","14","0","THRONE","12","5","0","1652","Throne","12","2018-06-28 17:24:25","316300"
"A3ZRJ5ATKTDSW","cs_wg_full_v2_real1","3TMFV4NEP8FINEF1ALPHJM5K238W8J","14","0","PILLAR","7","5","1","1634","pillar","7","2018-06-28 17:24:25","316301"
"AX00W57XAZBWO","cs_wg_full_v2_real1","3GFK2QRXX9IZ0WWZCNIE72VT0D85WR","9","0","JAVELIN","2","5","1","3269","javelin","2","2018-06-28 17:24:25","316302"
"A1UKZRDH1T231M","cs_wg_full_v2_real1","3VZLGYJEYLBCWALETGLGYPGVAELZXK","20","0","HERMIT","12","5","0","1315","HERMIT","12","2018-06-28 17:24:25","316303"
"AHV4U78TUUDKI","cs_wg_full_v2_real1","3NG53N1RLVKS35I0YZBMRSXO9668P1","11","0","CHIMNEY","12","5","0","1639","chimney","12","2018-06-28 17:24:25","316304"
"A2T4QDRDP5HAID","cs_wg_full_v2_real1","3VZLGYJEYLBCWALETGLGYPGVAELXZI","3","0","BEGGAR","3","5","0","9191","BEGGAR","3","2018-06-28 17:24:25","316305"
"AMI4OR8CUAIED","cs_wg_full_v2_real1","3FFJ6VRIL1PI4UQTQ08NPGQU4UYI0B","4","0","ADDICT","12","5","1","2755","addict","12","2018-06-28 17:24:26","316306"
"A2F79GFUWU5O96","cs_wg_full_v2_real1","3PW9OPU9PQLE0YX9XGRVG52NKQ812N","1","0","EARDRUM","7","5","0","2170","eardrum","7","2018-06-28 17:24:26","316307"
"A3ROCURKQZE1K7","cs_wg_full_v2_real1","3IRIK4HM3ALM52Q80FSINE2Q4S1C65","1","0","SPIRAL","7","5","0","3480","Spiral","7","2018-06-28 17:24:26","316308"
"A2M20C31SK6KCJ","cs_wg_full_v2_real1","3TVSS0C0E111LY7PDJ0CAI17GGTWT8","4","0","GOGGLES","12","5","0","2396","GOGGLES ","12","2018-06-28 17:24:26","316309"
"A1T0ND039EWAVV","cs_wg_full_v2_real1","3M0NZ3JDP1Z3UR14NA2L66PBHFC5ZH","13","0","BIKINI","8","5","0","1777","bikini","8","2018-06-28 17:24:26","316310"
"A1N85HSLCY9OK1","cs_wg_full_v2_real1","3Y4W8Q93LZLHPKBN1JV1JC076L4DVX","9","0","MUFFIN","8","5","0","2801","muffin","8","2018-06-28 17:24:26","316311"
"A1WBTDNCJBXPLX","cs_wg_full_v2_real1","3QEMNNSB2X0FEUARJLSLDYK4K3X7DZ","4","0","CHICKEN","11","5","1","2190","chicken","11","2018-06-28 17:24:26","316312"
"A140OPI45PUCN1","cs_wg_full_v2_real1","3YW4XOSQKQMNKA6BG011MOXF3HRU1Y","15","0","CANVAS","5","5","0","1039","canvas","5","2018-06-28 17:24:27","316313"
"A34SVP7NQ7MH17","cs_wg_full_v2_real1","37Z929RLG998EHQGTEQBDTYMA3XTSQ","9","0","SUMMER","5","5","1","2547","summer","5","2018-06-28 17:24:27","316314"
"A3TODSYUYQ1V65","cs_wg_full_v2_real1","39GXDJN2OTF58PFWKBKLXKM6VU6V88","8","0","BABOON","4","5","1","2866","BABOON","4","2018-06-28 17:24:27","316315"
"ADMPIBL7UKJUS","cs_wg_full_v2_real1","3UN61F00HWQUS0FDDT88K3NC8YSR59","10","0","BASKET","6","5","0","2553","basket","6","2018-06-28 17:24:28","316316"
"AZ57C58RDAMJF","cs_wg_full_v2_real1","3S96KQ6I9M52CS7YWOVMIUCM90NTDW","9","0","PICTURE","8","5","0","4557","picture","8","2018-06-28 17:24:28","316317"
"A38ZSUV2A2HCB9","cs_wg_full_v2_real1","3R0T90IZ1SDO2VFECS14Z5FFY63GCA","11","0","HERMIT","5","5","0","3398","hermit","5","2018-06-28 17:24:28","316318"
"A2KDYSLV030FVX","cs_wg_full_v2_real1","3YMTUJH0DSHPCWO53DUTFQIGWNUT4J","7","0","SPATULA","7","5","0","4726","spatula","7","2018-06-28 17:24:28","316319"
"A2ZM4LN2OUFME0","cs_wg_full_v2_real1","3K3R2QNK8B459F96KDGU1UFY1TFU97","1","0","FRIEND","9","5","1","6086","friend","9","2018-06-28 17:24:28","316320"
"AABTCZKHGB7AR","cs_wg_full_v2_real1","32N49TQG3GJJRD8BH94ZTBS1LI6VAC","11","0","HERMIT","12","5","0","14661","HERMIT","12","2018-06-28 17:24:28","316321"
"A3N7NW3VUMDL4X","cs_wg_full_v2_real1","3ZV9H2YQQD8WMH9VY4ULS5X9MHGW3R","4","0","CASINO","5","5","1","3863","casino","5","2018-06-28 17:24:28","316322"
"A62S68DZEDAKA","cs_wg_full_v2_real1","3B2X28YI3WG3VXY2MFWNCUW8M716BS","8","0","PLANET","11","5","0","2892","planet","11","2018-06-28 17:24:29","316323"
"AG430TVZD4313","cs_wg_full_v2_real1","3OF2M9AATGP6CAM7UX6R8V8TE56KZG","18","0","SPATULA","7","5","0","1724","spatula","7","2018-06-28 17:24:29","316324"
"A1S68DTVE9GU76","cs_wg_full_v2_real1","33OOO72IVHMS701KWS0BYOU4O0BCTF","21","0","ADDICT","11","5","0","2158","addict","11","2018-06-28 17:24:29","316325"
"A32TE6EV146OW","cs_wg_full_v2_real1","3JV9LGBJWTFPBKCH2XAVU59WNKNGO8","10","0","JAVELIN","12","5","0","1070","javelin","12","2018-06-28 17:24:29","316326"
"ABWE3PBZSLECW","cs_wg_full_v2_real1","324G5B4FB39LFA9X794QYR0LQEO706","5","0","TONGUE","7","5","0","2746","tongue","7","2018-06-28 17:24:29","316327"
"A15X0MSBZ74TFT","cs_wg_full_v2_real1","3Y9N9SS8LYCXDB94H9PV0H8OF1AD3Z","9","0","EARDRUM","10","5","0","2318","eardrum","10","2018-06-28 17:24:30","316328"
"A3CI8WWVFXEW74","cs_wg_full_v2_real1","3E47SOBEYQX2YML92G17KHSVDJVCIY","17","0","SHIVER","4","5","1","1953","shiver ","4","2018-06-28 17:24:30","316329"
"A2DL00FVCOBYHJ","cs_wg_full_v2_real1","3COPXFW7XBDCY6K17O8PHX6F46ZKPV","15","0","BATTERY","1","5","0","3826","battery","5","2018-06-28 17:24:31","316330"
"A36X8EUS26449Y","cs_wg_full_v2_real1","3QILPRALQ5WS0K6NIKYUN3ST9R4N8J","3","0","BEGGAR","2","5","0","6644","beggar","2","2018-06-28 17:24:31","316331"
