"subject","version","assignmentId","trial","trial_type","word","value","alt","choice","rt","resp","resp2","stamp","id"
"A1YJTYLITTPI6B","cs_wg_v3_pilot3","3TK8OJTYM1MQEHED6SMWJ6HT1VOPVX","0","0","KEYBOARD","10","5","0","6419","keyboard","10","2017-03-23 19:48:44","2194"
"A1YJTYLITTPI6B","cs_wg_v3_pilot3","3TK8OJTYM1MQEHED6SMWJ6HT1VOPVX","1","0","COMMUNITY","2","5","0","1940","community","2","2017-03-23 19:48:58","2195"
"A1YJTYLITTPI6B","cs_wg_v3_pilot3","3TK8OJTYM1MQEHED6SMWJ6HT1VOPVX","2","0","WEDDING","10","5","0","1859","wedding","10","2017-03-23 19:49:09","2196"
"A1YJTYLITTPI6B","cs_wg_v3_pilot3","3TK8OJTYM1MQEHED6SMWJ6HT1VOPVX","3","0","BASKET","9","5","1","2586","basket","9","2017-03-23 19:49:25","2197"
"A1YJTYLITTPI6B","cs_wg_v3_pilot3","3TK8OJTYM1MQEHED6SMWJ6HT1VOPVX","4","0","STRUCTURE","8","5","0","5392","structure","8","2017-03-23 19:49:39","2198"
"A20HITED8LB7O5","cs_wg_v3_pilot3","3TVRFO09GKGSRL4AEFU7QA5UCWVLXY","0","0","BOOKSHELF","10","5","0","4682","bookshelf","10","2017-03-23 19:49:46","2199"
"A1YJTYLITTPI6B","cs_wg_v3_pilot3","3TK8OJTYM1MQEHED6SMWJ6HT1VOPVX","5","0","TRAFFIC","0","5","0","925","traffic","0","2017-03-23 19:49:47","2200"
"A2O5OJXCUFQ3FV","cs_wg_v3_pilot3","3TYCR1GOTCKHWG4PFXISNVL5KWTLZV","0","0","DOORWAY","0","5","0","5284","doorway","0","2017-03-23 19:49:55","2201"
"A1YJTYLITTPI6B","cs_wg_v3_pilot3","3TK8OJTYM1MQEHED6SMWJ6HT1VOPVX","6","0","MACHINE","10","5","0","1014","machine","10","2017-03-23 19:49:56","2202"
"A20HITED8LB7O5","cs_wg_v3_pilot3","3TVRFO09GKGSRL4AEFU7QA5UCWVLXY","1","0","HELICOPTER","2","5","0","3253","helicopter","2","2017-03-23 19:50:01","2203"
"A1YJTYLITTPI6B","cs_wg_v3_pilot3","3TK8OJTYM1MQEHED6SMWJ6HT1VOPVX","7","0","MACHINE","10","5","0","1326","machine","10","2017-03-23 19:50:06","2204"
"A20HITED8LB7O5","cs_wg_v3_pilot3","3TVRFO09GKGSRL4AEFU7QA5UCWVLXY","2","0","HELICOPTER","2","5","0","3153","helicopter","2","2017-03-23 19:50:13","2205"
"A2O5OJXCUFQ3FV","cs_wg_v3_pilot3","3TYCR1GOTCKHWG4PFXISNVL5KWTLZV","1","0","MACHINE","9","5","0","3565","machine","9","2017-03-23 19:50:17","2206"
"A1YJTYLITTPI6B","cs_wg_v3_pilot3","3TK8OJTYM1MQEHED6SMWJ6HT1VOPVX","8","0","TRAFFIC","0","5","1","3252","traffic","0","2017-03-23 19:50:22","2207"
"A1FDPHX8S6G1WM","cs_wg_v3_pilot3","3VNXK88KKCJ5MUY6P3QZXGHEWR6V98","0","0","DOORWAY","2","5","0","4049","doorway","2","2017-03-23 19:50:25","2208"
"A20HITED8LB7O5","cs_wg_v3_pilot3","3TVRFO09GKGSRL4AEFU7QA5UCWVLXY","3","0","FOOTBALL","9","5","0","2015","football","9","2017-03-23 19:50:25","2209"
"A2O5OJXCUFQ3FV","cs_wg_v3_pilot3","3TYCR1GOTCKHWG4PFXISNVL5KWTLZV","2","0","KEYBOARD","10","5","0","2101","keyboard","10","2017-03-23 19:50:29","2210"
"A1YJTYLITTPI6B","cs_wg_v3_pilot3","3TK8OJTYM1MQEHED6SMWJ6HT1VOPVX","9","0","MACHINE","10","5","0","1023","machine","10","2017-03-23 19:50:31","2211"
"A20HITED8LB7O5","cs_wg_v3_pilot3","3TVRFO09GKGSRL4AEFU7QA5UCWVLXY","4","0","STRUCTURE","10","5","0","2826","structure","10","2017-03-23 19:50:39","2212"
"A2O5OJXCUFQ3FV","cs_wg_v3_pilot3","3TYCR1GOTCKHWG4PFXISNVL5KWTLZV","3","0","BASKET","1","5","0","2182","basket","1","2017-03-23 19:50:40","2213"
"A1YJTYLITTPI6B","cs_wg_v3_pilot3","3TK8OJTYM1MQEHED6SMWJ6HT1VOPVX","10","0","TRAFFIC","0","5","1","1841","traffic","0","2017-03-23 19:50:40","2214"
"A1FDPHX8S6G1WM","cs_wg_v3_pilot3","3VNXK88KKCJ5MUY6P3QZXGHEWR6V98","1","0","DOORWAY","2","5","1","3881","doorway","2
","2017-03-23 19:50:46","2215"
"A1YJTYLITTPI6B","cs_wg_v3_pilot3","3TK8OJTYM1MQEHED6SMWJ6HT1VOPVX","11","0","STOMACH","2","5","0","1222","stomach","2","2017-03-23 19:50:49","2216"
"A20HITED8LB7O5","cs_wg_v3_pilot3","3TVRFO09GKGSRL4AEFU7QA5UCWVLXY","5","0","TRAFFIC","2","5","0","1436","traffic","2","2017-03-23 19:50:49","2217"
"A2O5OJXCUFQ3FV","cs_wg_v3_pilot3","3TYCR1GOTCKHWG4PFXISNVL5KWTLZV","4","0","BASKET","1","5","1","4588","basket","1","2017-03-23 19:50:55","2218"
"A2OFN0A5CPLH57","cs_wg_v3_pilot3","3WOKGM4L71HS0G1WOVLS9DMDXUFO0N","0","0","LADDER","1","5","0","4356","ladder","1","2017-03-23 19:50:55","2219"
"A20HITED8LB7O5","cs_wg_v3_pilot3","3TVRFO09GKGSRL4AEFU7QA5UCWVLXY","6","0","WEDDING","8","5","0","1520","wedding","8","2017-03-23 19:51:00","2220"
"A1FDPHX8S6G1WM","cs_wg_v3_pilot3","3VNXK88KKCJ5MUY6P3QZXGHEWR6V98","2","0","BOOKSHELF","1","5","0","6041","bookshelf","1","2017-03-23 19:51:04","2221"
"A1YJTYLITTPI6B","cs_wg_v3_pilot3","3TK8OJTYM1MQEHED6SMWJ6HT1VOPVX","12","0","HELICOPTER","8","5","0","4061","helicopter","8","2017-03-23 19:51:05","2222"
"A2O5OJXCUFQ3FV","cs_wg_v3_pilot3","3TYCR1GOTCKHWG4PFXISNVL5KWTLZV","5","0","MACHINE","9","5","0","4410","machine","9","2017-03-23 19:51:07","2223"
"A2OFN0A5CPLH57","cs_wg_v3_pilot3","3WOKGM4L71HS0G1WOVLS9DMDXUFO0N","1","0","BASKET","9","5","0","1623","basket","9","2017-03-23 19:51:10","2224"
"A20HITED8LB7O5","cs_wg_v3_pilot3","3TVRFO09GKGSRL4AEFU7QA5UCWVLXY","7","0","STOMACH","1","5","0","1391","stomach","1","2017-03-23 19:51:10","2225"
"A1YJTYLITTPI6B","cs_wg_v3_pilot3","3TK8OJTYM1MQEHED6SMWJ6HT1VOPVX","13","0","KEYBOARD","10","5","0","3548","keyboard","10","2017-03-23 19:51:18","2226"
"A2O5OJXCUFQ3FV","cs_wg_v3_pilot3","3TYCR1GOTCKHWG4PFXISNVL5KWTLZV","6","0","STRUCTURE","0","5","0","2404","structure","0","2017-03-23 19:51:18","2227"
"A2OFN0A5CPLH57","cs_wg_v3_pilot3","3WOKGM4L71HS0G1WOVLS9DMDXUFO0N","2","0","MACHINE","1","5","0","1234","machine","1","2017-03-23 19:51:22","2228"
"A20HITED8LB7O5","cs_wg_v3_pilot3","3TVRFO09GKGSRL4AEFU7QA5UCWVLXY","8","0","BOOKSHELF","10","5","0","1175","bookshelf","10","2017-03-23 19:51:23","2229"
"A1FDPHX8S6G1WM","cs_wg_v3_pilot3","3VNXK88KKCJ5MUY6P3QZXGHEWR6V98","3","0","KEYBOARD","0","5","1","4331","keyboard","1","2017-03-23 19:51:32","2230"
"A1YJTYLITTPI6B","cs_wg_v3_pilot3","3TK8OJTYM1MQEHED6SMWJ6HT1VOPVX","14","0","STRUCTURE","8","5","0","2212","keyboard","8","2017-03-23 19:51:33","2231"
"A2O5OJXCUFQ3FV","cs_wg_v3_pilot3","3TYCR1GOTCKHWG4PFXISNVL5KWTLZV","7","0","KEYBOARD","10","5","1","5124","keyboard","10","2017-03-23 19:51:35","2232"
"A20HITED8LB7O5","cs_wg_v3_pilot3","3TVRFO09GKGSRL4AEFU7QA5UCWVLXY","9","0","STRUCTURE","10","5","0","2517","structure","10","2017-03-23 19:51:35","2233"
"A2OFN0A5CPLH57","cs_wg_v3_pilot3","3WOKGM4L71HS0G1WOVLS9DMDXUFO0N","3","0","UMBRELLA","8","5","0","1486","umbrella","8","2017-03-23 19:51:35","2234"
"A1YJTYLITTPI6B","cs_wg_v3_pilot3","3TK8OJTYM1MQEHED6SMWJ6HT1VOPVX","15","0","MACHINE","10","5","0","844","machine","10","2017-03-23 19:51:41","2235"
"A1Z3NTRGIUZ240","cs_wg_v3_pilot3","31QTRG6Q2TE7IB9IB39GQ5LNJCQPY6","0","0","TRAFFIC","10","5","0","4363","Traffic","10","2017-03-23 19:51:41","2236"
"A20HITED8LB7O5","cs_wg_v3_pilot3","3TVRFO09GKGSRL4AEFU7QA5UCWVLXY","10","0","FOOTBALL","9","5","1","2627","football","9","2017-03-23 19:51:48","2237"
"A1FDPHX8S6G1WM","cs_wg_v3_pilot3","3VNXK88KKCJ5MUY6P3QZXGHEWR6V98","4","0","MACHINE","2","5","1","3207","machine","2","2017-03-23 19:51:49","2238"
"A2OFN0A5CPLH57","cs_wg_v3_pilot3","3WOKGM4L71HS0G1WOVLS9DMDXUFO0N","4","0","LADDER","1","5","1","2859","ladder","1","2017-03-23 19:51:50","2239"
"A1YJTYLITTPI6B","cs_wg_v3_pilot3","3TK8OJTYM1MQEHED6SMWJ6HT1VOPVX","16","0","FOOTBALL","0","5","0","846","football","0","2017-03-23 19:51:54","2240"
"A2O5OJXCUFQ3FV","cs_wg_v3_pilot3","3TYCR1GOTCKHWG4PFXISNVL5KWTLZV","8","0","FOOTBALL","8","5","0","5692","football","10","2017-03-23 19:51:56","2241"
"A1Z3NTRGIUZ240","cs_wg_v3_pilot3","31QTRG6Q2TE7IB9IB39GQ5LNJCQPY6","1","0","WEDDING","8","5","0","2664","Wedding","8","2017-03-23 19:51:57","2242"
"A20HITED8LB7O5","cs_wg_v3_pilot3","3TVRFO09GKGSRL4AEFU7QA5UCWVLXY","11","0","TRAFFIC","2","5","1","1916","traffic","2","2017-03-23 19:52:00","2243"
"A2OFN0A5CPLH57","cs_wg_v3_pilot3","3WOKGM4L71HS0G1WOVLS9DMDXUFO0N","5","0","DOORWAY","10","5","0","1595","doorway","10","2017-03-23 19:52:01","2244"
"A1FDPHX8S6G1WM","cs_wg_v3_pilot3","3VNXK88KKCJ5MUY6P3QZXGHEWR6V98","5","0","KEYBOARD","0","5","1","5621","keyboard","0","2017-03-23 19:52:05","2245"
"A1YJTYLITTPI6B","cs_wg_v3_pilot3","3TK8OJTYM1MQEHED6SMWJ6HT1VOPVX","17","0","STRUCTURE","8","5","0","1234","structure","8","2017-03-23 19:52:05","2246"
"A2O5OJXCUFQ3FV","cs_wg_v3_pilot3","3TYCR1GOTCKHWG4PFXISNVL5KWTLZV","9","0","WEDDING","1","5","1","2286","WEDDING ","1","2017-03-23 19:52:06","2247"
"A20HITED8LB7O5","cs_wg_v3_pilot3","3TVRFO09GKGSRL4AEFU7QA5UCWVLXY","12","0","BOOKSHELF","10","5","0","2050","bookshelf","10","2017-03-23 19:52:11","2248"
"A2OFN0A5CPLH57","cs_wg_v3_pilot3","3WOKGM4L71HS0G1WOVLS9DMDXUFO0N","6","0","MACHINE","1","5","1","2753","machine","1","2017-03-23 19:52:14","2249"
"A1YJTYLITTPI6B","cs_wg_v3_pilot3","3TK8OJTYM1MQEHED6SMWJ6HT1VOPVX","18","0","DOORWAY","1","5","0","706","doorway","1","2017-03-23 19:52:15","2250"
"A2O5OJXCUFQ3FV","cs_wg_v3_pilot3","3TYCR1GOTCKHWG4PFXISNVL5KWTLZV","10","0","HELICOPTER","8","5","0","1661","helicopter","8","2017-03-23 19:52:15","2251"
"A1FDPHX8S6G1WM","cs_wg_v3_pilot3","3VNXK88KKCJ5MUY6P3QZXGHEWR6V98","6","0","LADDER","9","5","0","1985","ladder","9","2017-03-23 19:52:16","2252"
"A20HITED8LB7O5","cs_wg_v3_pilot3","3TVRFO09GKGSRL4AEFU7QA5UCWVLXY","13","0","COMMUNITY","0","5","0","2405","community","0","2017-03-23 19:52:23","2253"
"A1YJTYLITTPI6B","cs_wg_v3_pilot3","3TK8OJTYM1MQEHED6SMWJ6HT1VOPVX","19","0","HELICOPTER","8","5","0","1003","helicopter","8","2017-03-23 19:52:24","2254"
"A2OFN0A5CPLH57","cs_wg_v3_pilot3","3WOKGM4L71HS0G1WOVLS9DMDXUFO0N","7","0","BOOKSHELF","10","5","0","1365","bookshelf","10","2017-03-23 19:52:27","2255"
"A1FDPHX8S6G1WM","cs_wg_v3_pilot3","3VNXK88KKCJ5MUY6P3QZXGHEWR6V98","7","0","KEYBOARD","0","5","1","2284","keyboard","0","2017-03-23 19:52:28","2256"
"A2O5OJXCUFQ3FV","cs_wg_v3_pilot3","3TYCR1GOTCKHWG4PFXISNVL5KWTLZV","11","0","LADDER","2","5","0","7996","ladder","2","2017-03-23 19:52:32","2257"
"A1YJTYLITTPI6B","cs_wg_v3_pilot3","3TK8OJTYM1MQEHED6SMWJ6HT1VOPVX","20","0","BOOKSHELF","9","5","0","794","bookshelf","9","2017-03-23 19:52:32","2258"
"A20HITED8LB7O5","cs_wg_v3_pilot3","3TVRFO09GKGSRL4AEFU7QA5UCWVLXY","14","0","KEYBOARD","9","5","0","2651","keyboard","9","2017-03-23 19:52:36","2259"
"A2OFN0A5CPLH57","cs_wg_v3_pilot3","3WOKGM4L71HS0G1WOVLS9DMDXUFO0N","8","0","DOORWAY","10","5","0","2176","doorway","10","2017-03-23 19:52:38","2260"
"A1YJTYLITTPI6B","cs_wg_v3_pilot3","3TK8OJTYM1MQEHED6SMWJ6HT1VOPVX","21","0","HELICOPTER","8","5","0","718","helicopter","8","2017-03-23 19:52:41","2261"
"A2O5OJXCUFQ3FV","cs_wg_v3_pilot3","3TYCR1GOTCKHWG4PFXISNVL5KWTLZV","12","0","STRUCTURE","0","5","1","4579","structure","0","2017-03-23 19:52:44","2262"
"AO0CQ0WT4FT7T","cs_wg_v3_pilot3","36WLNQG78ZB78CRHSXFLOIOIKW6EBV","0","0","HELICOPTER","2","5","0","3253","HELICOPTER","2","2017-03-23 19:52:47","2263"
"A20HITED8LB7O5","cs_wg_v3_pilot3","3TVRFO09GKGSRL4AEFU7QA5UCWVLXY","15","0","DOORWAY","0","5","0","1654","doorway","0","2017-03-23 19:52:47","2264"
"A1FDPHX8S6G1WM","cs_wg_v3_pilot3","3VNXK88KKCJ5MUY6P3QZXGHEWR6V98","8","0","MACHINE","2","5","1","6096","machine","2","2017-03-23 19:52:48","2265"
"A1YJTYLITTPI6B","cs_wg_v3_pilot3","3TK8OJTYM1MQEHED6SMWJ6HT1VOPVX","22","0","LADDER","1","5","0","856","ladder","1","2017-03-23 19:52:51","2266"
"A2OFN0A5CPLH57","cs_wg_v3_pilot3","3WOKGM4L71HS0G1WOVLS9DMDXUFO0N","9","0","TRAFFIC","0","5","1","3144","traffic","0","2017-03-23 19:52:52","2267"
"A2O5OJXCUFQ3FV","cs_wg_v3_pilot3","3TYCR1GOTCKHWG4PFXISNVL5KWTLZV","13","0","STRUCTURE","0","5","1","1578","structure","0","2017-03-23 19:52:53","2268"
"AO0CQ0WT4FT7T","cs_wg_v3_pilot3","36WLNQG78ZB78CRHSXFLOIOIKW6EBV","1","0","KEYBOARD","1","5","0","1469","KEYBOARD","1","2017-03-23 19:52:56","2269"
"A1Z3NTRGIUZ240","cs_wg_v3_pilot3","31QTRG6Q2TE7IB9IB39GQ5LNJCQPY6","2","0","TRAFFIC","10","5","0","1304","Traffic","10","2017-03-23 19:52:59","2270"
"A20HITED8LB7O5","cs_wg_v3_pilot3","3TVRFO09GKGSRL4AEFU7QA5UCWVLXY","16","0","COMMUNITY","0","5","1","2528","community","0","2017-03-23 19:52:59","2271"
"A1FDPHX8S6G1WM","cs_wg_v3_pilot3","3VNXK88KKCJ5MUY6P3QZXGHEWR6V98","9","0","STOMACH","8","5","1","2560","stomach","8","2017-03-23 19:53:00","2272"
"A2OFN0A5CPLH57","cs_wg_v3_pilot3","3WOKGM4L71HS0G1WOVLS9DMDXUFO0N","10","0","WEDDING","0","5","0","2458","wedding","0","2017-03-23 19:53:03","2273"
"A1YJTYLITTPI6B","cs_wg_v3_pilot3","3TK8OJTYM1MQEHED6SMWJ6HT1VOPVX","23","0","DOORWAY","1","5","1","3572","doorway","1","2017-03-23 19:53:03","2274"
"AO0CQ0WT4FT7T","cs_wg_v3_pilot3","36WLNQG78ZB78CRHSXFLOIOIKW6EBV","2","0","TRAFFIC","8","5","0","1155","TRAFFIC","8","2017-03-23 19:53:04","2275"
"A2O5OJXCUFQ3FV","cs_wg_v3_pilot3","3TYCR1GOTCKHWG4PFXISNVL5KWTLZV","14","0","FOOTBALL","8","5","0","3423","Football","8","2017-03-23 19:53:04","2276"
"A20HITED8LB7O5","cs_wg_v3_pilot3","3TVRFO09GKGSRL4AEFU7QA5UCWVLXY","17","0","COMMUNITY","0","5","1","2002","community","0","2017-03-23 19:53:11","2277"
"A1YJTYLITTPI6B","cs_wg_v3_pilot3","3TK8OJTYM1MQEHED6SMWJ6HT1VOPVX","24","0","UMBRELLA","0","5","0","941","umbrella","0","2017-03-23 19:53:12","2278"
"A2OFN0A5CPLH57","cs_wg_v3_pilot3","3WOKGM4L71HS0G1WOVLS9DMDXUFO0N","11","0","TRAFFIC","0","5","1","1533","traffic","0","2017-03-23 19:53:12","2279"
"A2O5OJXCUFQ3FV","cs_wg_v3_pilot3","3TYCR1GOTCKHWG4PFXISNVL5KWTLZV","15","0","STRUCTURE","0","5","1","1624","structure","0","2017-03-23 19:53:13","2280"
"AO0CQ0WT4FT7T","cs_wg_v3_pilot3","36WLNQG78ZB78CRHSXFLOIOIKW6EBV","3","0","UMBRELLA","0","5","0","2365","UMBRELLA","0","2017-03-23 19:53:15","2281"
"A1Z3NTRGIUZ240","cs_wg_v3_pilot3","31QTRG6Q2TE7IB9IB39GQ5LNJCQPY6","3","0","STOMACH","8","5","0","1970","Stomach","8","2017-03-23 19:53:16","2282"
"A1FDPHX8S6G1WM","cs_wg_v3_pilot3","3VNXK88KKCJ5MUY6P3QZXGHEWR6V98","10","0","STRUCTURE","10","5","0","5747","structure","10","2017-03-23 19:53:17","2283"
"A22BQTBZLQETW4","cs_wg_v3_pilot3","3GLB5JMZFXWY7NLSCOWFJBXU0XXGDL","0","0","KEYBOARD","9","5","1","9295","keyboard","9","2017-03-23 19:53:18","2284"
"A1YJTYLITTPI6B","cs_wg_v3_pilot3","3TK8OJTYM1MQEHED6SMWJ6HT1VOPVX","25","0","STOMACH","2","5","1","1593","stomach","2","2017-03-23 19:53:21","2285"
"A20HITED8LB7O5","cs_wg_v3_pilot3","3TVRFO09GKGSRL4AEFU7QA5UCWVLXY","18","0","COMMUNITY","0","5","1","1571","community","0","2017-03-23 19:53:21","2286"
"A2O5OJXCUFQ3FV","cs_wg_v3_pilot3","3TYCR1GOTCKHWG4PFXISNVL5KWTLZV","16","0","MACHINE","9","5","0","2532","maachine","9","2017-03-23 19:53:22","2287"
"AO0CQ0WT4FT7T","cs_wg_v3_pilot3","36WLNQG78ZB78CRHSXFLOIOIKW6EBV","4","0","LADDER","9","5","0","819","LADDER","9","2017-03-23 19:53:22","2288"
"A2OFN0A5CPLH57","cs_wg_v3_pilot3","3WOKGM4L71HS0G1WOVLS9DMDXUFO0N","12","0","TRAFFIC","0","5","1","1559","traffic","0","2017-03-23 19:53:22","2289"
"A1YJTYLITTPI6B","cs_wg_v3_pilot3","3TK8OJTYM1MQEHED6SMWJ6HT1VOPVX","26","0","STOMACH","2","5","1","1309","stomach","2","2017-03-23 19:53:30","2290"
"AO0CQ0WT4FT7T","cs_wg_v3_pilot3","36WLNQG78ZB78CRHSXFLOIOIKW6EBV","5","0","DOORWAY","0","5","0","700","DOORWAY","0","2017-03-23 19:53:30","2291"
"A2O5OJXCUFQ3FV","cs_wg_v3_pilot3","3TYCR1GOTCKHWG4PFXISNVL5KWTLZV","17","0","HELICOPTER","8","5","0","2793","helicopter","8","2017-03-23 19:53:32","2292"
"A20HITED8LB7O5","cs_wg_v3_pilot3","3TVRFO09GKGSRL4AEFU7QA5UCWVLXY","19","0","STOMACH","1","5","1","1921","stomach","1","2017-03-23 19:53:32","2293"
"A1Z3NTRGIUZ240","cs_wg_v3_pilot3","31QTRG6Q2TE7IB9IB39GQ5LNJCQPY6","4","0","HELICOPTER","0","5","0","1612","Helicopter","0","2017-03-23 19:53:33","2294"
"A2OFN0A5CPLH57","cs_wg_v3_pilot3","3WOKGM4L71HS0G1WOVLS9DMDXUFO0N","13","0","DOORWAY","10","5","0","1963","doorway","10","2017-03-23 19:53:34","2295"
"A1FDPHX8S6G1WM","cs_wg_v3_pilot3","3VNXK88KKCJ5MUY6P3QZXGHEWR6V98","11","0","LADDER","9","5","0","3907","ladder","9","2017-03-23 19:53:35","2296"
"A22BQTBZLQETW4","cs_wg_v3_pilot3","3GLB5JMZFXWY7NLSCOWFJBXU0XXGDL","1","0","DOORWAY","0","5","0","4641","doorway","0","2017-03-23 19:53:39","2297"
"A1YJTYLITTPI6B","cs_wg_v3_pilot3","3TK8OJTYM1MQEHED6SMWJ6HT1VOPVX","27","0","KEYBOARD","10","5","0","851","keyboard","10","2017-03-23 19:53:39","2298"
"AO0CQ0WT4FT7T","cs_wg_v3_pilot3","36WLNQG78ZB78CRHSXFLOIOIKW6EBV","6","0","LADDER","9","5","0","3419","LADDER","9","2017-03-23 19:53:40","2299"
"A2O5OJXCUFQ3FV","cs_wg_v3_pilot3","3TYCR1GOTCKHWG4PFXISNVL5KWTLZV","18","0","DOORWAY","0","5","1","3192","doorway","0","2017-03-23 19:53:43","2300"
"A2OFN0A5CPLH57","cs_wg_v3_pilot3","3WOKGM4L71HS0G1WOVLS9DMDXUFO0N","14","0","HELICOPTER","9","5","1","2054","helicopter","9","2017-03-23 19:53:44","2301"
"A20HITED8LB7O5","cs_wg_v3_pilot3","3TVRFO09GKGSRL4AEFU7QA5UCWVLXY","20","0","WEDDING","8","5","0","4055","wedding","8","2017-03-23 19:53:45","2302"
"A1YJTYLITTPI6B","cs_wg_v3_pilot3","3TK8OJTYM1MQEHED6SMWJ6HT1VOPVX","28","0","KEYBOARD","10","5","0","658","keyboard","10","2017-03-23 19:53:47","2303"
"AO0CQ0WT4FT7T","cs_wg_v3_pilot3","36WLNQG78ZB78CRHSXFLOIOIKW6EBV","7","0","KEYBOARD","1","5","1","1793","KEYBOARD","1","2017-03-23 19:53:50","2304"
"A1FDPHX8S6G1WM","cs_wg_v3_pilot3","3VNXK88KKCJ5MUY6P3QZXGHEWR6V98","12","0","MACHINE","2","5","1","3683","machine","2","2017-03-23 19:53:50","2305"
"A2OFN0A5CPLH57","cs_wg_v3_pilot3","3WOKGM4L71HS0G1WOVLS9DMDXUFO0N","15","0","STOMACH","8","5","0","1214","stomach","8","2017-03-23 19:53:53","2306"
"A1YJTYLITTPI6B","cs_wg_v3_pilot3","3TK8OJTYM1MQEHED6SMWJ6HT1VOPVX","29","0","STOMACH","2","5","1","1103","stomach","2","2017-03-23 19:53:55","2307"
"A20HITED8LB7O5","cs_wg_v3_pilot3","3TVRFO09GKGSRL4AEFU7QA5UCWVLXY","21","0","LADDER","1","5","0","2307","ladder","1","2017-03-23 19:53:56","2308"
"A1Z3NTRGIUZ240","cs_wg_v3_pilot3","31QTRG6Q2TE7IB9IB39GQ5LNJCQPY6","5","0","UMBRELLA","2","5","0","5529","Umbrella","2","2017-03-23 19:53:56","2309"
"A2O5OJXCUFQ3FV","cs_wg_v3_pilot3","3TYCR1GOTCKHWG4PFXISNVL5KWTLZV","19","0","MACHINE","9","5","0","3266","machine","9","2017-03-23 19:53:56","2310"
"A22BQTBZLQETW4","cs_wg_v3_pilot3","3GLB5JMZFXWY7NLSCOWFJBXU0XXGDL","2","0","STRUCTURE","2","5","1","5675","structure","2","2017-03-23 19:53:58","2311"
"AO0CQ0WT4FT7T","cs_wg_v3_pilot3","36WLNQG78ZB78CRHSXFLOIOIKW6EBV","8","0","TRAFFIC","8","5","0","1923","TRAFFIC","8","2017-03-23 19:53:58","2312"
"A2OFN0A5CPLH57","cs_wg_v3_pilot3","3WOKGM4L71HS0G1WOVLS9DMDXUFO0N","16","0","FOOTBALL","0","5","0","1211","football","0","2017-03-23 19:54:03","2313"
"A1FDPHX8S6G1WM","cs_wg_v3_pilot3","3VNXK88KKCJ5MUY6P3QZXGHEWR6V98","13","0","LADDER","9","5","0","2037","ladder","9","2017-03-23 19:54:03","2314"
"A1YJTYLITTPI6B","cs_wg_v3_pilot3","3TK8OJTYM1MQEHED6SMWJ6HT1VOPVX","30","0","TRAFFIC","0","5","1","1391","traffic","0","2017-03-23 19:54:04","2315"
"A2O5OJXCUFQ3FV","cs_wg_v3_pilot3","3TYCR1GOTCKHWG4PFXISNVL5KWTLZV","20","0","TRAFFIC","10","5","1","2190","traffic","10","2017-03-23 19:54:05","2316"
"AO0CQ0WT4FT7T","cs_wg_v3_pilot3","36WLNQG78ZB78CRHSXFLOIOIKW6EBV","9","0","UMBRELLA","0","5","1","933","UMBRELLA","0","2017-03-23 19:54:06","2317"
"A20HITED8LB7O5","cs_wg_v3_pilot3","3TVRFO09GKGSRL4AEFU7QA5UCWVLXY","22","0","TRAFFIC","2","5","1","3629","traffic","2","2017-03-23 19:54:07","2318"
"A1Z3NTRGIUZ240","cs_wg_v3_pilot3","31QTRG6Q2TE7IB9IB39GQ5LNJCQPY6","6","0","COMMUNITY","9","5","0","1223","Community","9","2017-03-23 19:54:10","2319"
"A1YJTYLITTPI6B","cs_wg_v3_pilot3","3TK8OJTYM1MQEHED6SMWJ6HT1VOPVX","31","0","MACHINE","10","5","0","844","machine","10","2017-03-23 19:54:12","2320"
"A2OFN0A5CPLH57","cs_wg_v3_pilot3","3WOKGM4L71HS0G1WOVLS9DMDXUFO0N","17","0","BOOKSHELF","10","5","0","1363","bookshelf","10","2017-03-23 19:54:14","2321"
"AO0CQ0WT4FT7T","cs_wg_v3_pilot3","36WLNQG78ZB78CRHSXFLOIOIKW6EBV","10","0","COMMUNITY","0","5","1","1262","COMMUNITY","0","2017-03-23 19:54:14","2322"
"A1FDPHX8S6G1WM","cs_wg_v3_pilot3","3VNXK88KKCJ5MUY6P3QZXGHEWR6V98","14","0","UMBRELLA","0","5","1","4513","umbrella","0","2017-03-23 19:54:19","2323"
"A20HITED8LB7O5","cs_wg_v3_pilot3","3TVRFO09GKGSRL4AEFU7QA5UCWVLXY","23","0","STOMACH","1","5","1","1928","stomach","1","2017-03-23 19:54:20","2324"
"AAXYYH9MI3PJM","cs_wg_v3_pilot3","3ATTHHXXWAPQ1KW4TCXUYUD2VS1IXH","0","0","TRAFFIC","10","5","0","7266","traffic","10","2017-03-23 19:54:20","2325"
"A1YJTYLITTPI6B","cs_wg_v3_pilot3","3TK8OJTYM1MQEHED6SMWJ6HT1VOPVX","32","0","STRUCTURE","8","5","0","759","structure","8","2017-03-23 19:54:21","2326"
"AO0CQ0WT4FT7T","cs_wg_v3_pilot3","36WLNQG78ZB78CRHSXFLOIOIKW6EBV","11","0","UMBRELLA","0","5","1","1038","UMBRELLA","0","2017-03-23 19:54:22","2327"
"A2O5OJXCUFQ3FV","cs_wg_v3_pilot3","3TYCR1GOTCKHWG4PFXISNVL5KWTLZV","21","0","UMBRELLA","2","5","1","6150","umbrella","4","2017-03-23 19:54:23","2328"
"A2OFN0A5CPLH57","cs_wg_v3_pilot3","3WOKGM4L71HS0G1WOVLS9DMDXUFO0N","18","0","FOOTBALL","0","5","1","1978","football","0","2017-03-23 19:54:24","2329"
"A1Z3NTRGIUZ240","cs_wg_v3_pilot3","31QTRG6Q2TE7IB9IB39GQ5LNJCQPY6","7","0","BASKET","10","5","0","3223","Basket","10","2017-03-23 19:54:29","2330"
"AO0CQ0WT4FT7T","cs_wg_v3_pilot3","36WLNQG78ZB78CRHSXFLOIOIKW6EBV","12","0","DOORWAY","0","5","1","1098","DOORWAY","0","2017-03-23 19:54:29","2331"
"A1YJTYLITTPI6B","cs_wg_v3_pilot3","3TK8OJTYM1MQEHED6SMWJ6HT1VOPVX","33","0","WEDDING","10","5","0","1785","wedding","10","2017-03-23 19:54:30","2332"
"A20HITED8LB7O5","cs_wg_v3_pilot3","3TVRFO09GKGSRL4AEFU7QA5UCWVLXY","24","0","BASKET","10","5","0","2374","basket","10","2017-03-23 19:54:31","2333"
"A2O5OJXCUFQ3FV","cs_wg_v3_pilot3","3TYCR1GOTCKHWG4PFXISNVL5KWTLZV","22","0","LADDER","2","5","1","3895","ladder","2","2017-03-23 19:54:33","2334"
"A2OFN0A5CPLH57","cs_wg_v3_pilot3","3WOKGM4L71HS0G1WOVLS9DMDXUFO0N","19","0","STRUCTURE","2","5","1","1679","structure","2","2017-03-23 19:54:34","2335"
"A1FDPHX8S6G1WM","cs_wg_v3_pilot3","3VNXK88KKCJ5MUY6P3QZXGHEWR6V98","15","0","COMMUNITY","8","5","0","5149","community","8","2017-03-23 19:54:34","2336"
"AO0CQ0WT4FT7T","cs_wg_v3_pilot3","36WLNQG78ZB78CRHSXFLOIOIKW6EBV","13","0","MACHINE","1","5","1","872","MACHINE","2","2017-03-23 19:54:36","2337"
"AAXYYH9MI3PJM","cs_wg_v3_pilot3","3ATTHHXXWAPQ1KW4TCXUYUD2VS1IXH","1","0","COMMUNITY","0","5","0","3288","community","0","2017-03-23 19:54:37","2338"
"A1YJTYLITTPI6B","cs_wg_v3_pilot3","3TK8OJTYM1MQEHED6SMWJ6HT1VOPVX","34","0","FOOTBALL","0","5","1","1136","football","0","2017-03-23 19:54:38","2339"
"A20HITED8LB7O5","cs_wg_v3_pilot3","3TVRFO09GKGSRL4AEFU7QA5UCWVLXY","25","0","STRUCTURE","10","5","0","2925","structure","10","2017-03-23 19:54:43","2340"
"AO0CQ0WT4FT7T","cs_wg_v3_pilot3","36WLNQG78ZB78CRHSXFLOIOIKW6EBV","14","0","FOOTBALL","10","5","0","1267","FOOTBALL","10","2017-03-23 19:54:43","2341"
"A2OFN0A5CPLH57","cs_wg_v3_pilot3","3WOKGM4L71HS0G1WOVLS9DMDXUFO0N","20","0","COMMUNITY","10","5","0","1380","community","10","2017-03-23 19:54:44","2342"
"A1YJTYLITTPI6B","cs_wg_v3_pilot3","3TK8OJTYM1MQEHED6SMWJ6HT1VOPVX","35","0","WEDDING","10","5","0","584","wedding","10","2017-03-23 19:54:45","2343"
"A2O5OJXCUFQ3FV","cs_wg_v3_pilot3","3TYCR1GOTCKHWG4PFXISNVL5KWTLZV","23","0","BOOKSHELF","0","5","1","1803","bookshelf","0","2017-03-23 19:54:47","2344"
"A1Z3NTRGIUZ240","cs_wg_v3_pilot3","31QTRG6Q2TE7IB9IB39GQ5LNJCQPY6","8","0","KEYBOARD","9","5","0","1706","Keyboard","9","2017-03-23 19:54:47","2345"
"A1FDPHX8S6G1WM","cs_wg_v3_pilot3","3VNXK88KKCJ5MUY6P3QZXGHEWR6V98","16","0","WEDDING","10","5","1","4619","wedding","10","2017-03-23 19:54:49","2346"
"AAXYYH9MI3PJM","cs_wg_v3_pilot3","3ATTHHXXWAPQ1KW4TCXUYUD2VS1IXH","2","0","LADDER","2","5","1","3164","ladder","2","2017-03-23 19:54:53","2347"
"A2OFN0A5CPLH57","cs_wg_v3_pilot3","3WOKGM4L71HS0G1WOVLS9DMDXUFO0N","21","0","BASKET","9","5","1","1584","basket","9","2017-03-23 19:54:54","2348"
"A1YJTYLITTPI6B","cs_wg_v3_pilot3","3TK8OJTYM1MQEHED6SMWJ6HT1VOPVX","36","0","HELICOPTER","8","5","0","592","helicopter","8","2017-03-23 19:54:55","2349"
"A20HITED8LB7O5","cs_wg_v3_pilot3","3TVRFO09GKGSRL4AEFU7QA5UCWVLXY","26","0","STRUCTURE","10","5","0","2018","structure","10","2017-03-23 19:54:55","2350"
"A2O5OJXCUFQ3FV","cs_wg_v3_pilot3","3TYCR1GOTCKHWG4PFXISNVL5KWTLZV","24","0","TRAFFIC","10","5","0","2721","traffic","10","2017-03-23 19:54:57","2351"
"A1YJTYLITTPI6B","cs_wg_v3_pilot3","3TK8OJTYM1MQEHED6SMWJ6HT1VOPVX","37","0","WEDDING","10","5","0","545","wedding","10","2017-03-23 19:55:02","2352"
"A1FDPHX8S6G1WM","cs_wg_v3_pilot3","3VNXK88KKCJ5MUY6P3QZXGHEWR6V98","17","0","STRUCTURE","10","5","1","3104","structure","10","2017-03-23 19:55:03","2353"
"AAXYYH9MI3PJM","cs_wg_v3_pilot3","3ATTHHXXWAPQ1KW4TCXUYUD2VS1IXH","3","0","STRUCTURE","10","5","1","1669","structure","10","2017-03-23 19:55:05","2354"
"A2OFN0A5CPLH57","cs_wg_v3_pilot3","3WOKGM4L71HS0G1WOVLS9DMDXUFO0N","22","0","WEDDING","0","5","1","3550","wedding","0","2017-03-23 19:55:06","2355"
"A2O5OJXCUFQ3FV","cs_wg_v3_pilot3","3TYCR1GOTCKHWG4PFXISNVL5KWTLZV","25","0","BASKET","1","5","1","2295","basket","1","2017-03-23 19:55:07","2356"
"A1Z3NTRGIUZ240","cs_wg_v3_pilot3","31QTRG6Q2TE7IB9IB39GQ5LNJCQPY6","9","0","STRUCTURE","0","5","0","1324","Structure","0","2017-03-23 19:55:07","2357"
"A20HITED8LB7O5","cs_wg_v3_pilot3","3TVRFO09GKGSRL4AEFU7QA5UCWVLXY","27","0","MACHINE","8","5","0","1517","machine","8","2017-03-23 19:55:07","2358"
"A1YJTYLITTPI6B","cs_wg_v3_pilot3","3TK8OJTYM1MQEHED6SMWJ6HT1VOPVX","38","0","MACHINE","10","5","0","1084","machine","10","2017-03-23 19:55:10","2359"
"A2O5OJXCUFQ3FV","cs_wg_v3_pilot3","3TYCR1GOTCKHWG4PFXISNVL5KWTLZV","26","0","MACHINE","9","5","0","3106","machine","9","2017-03-23 19:55:16","2360"
"A20HITED8LB7O5","cs_wg_v3_pilot3","3TVRFO09GKGSRL4AEFU7QA5UCWVLXY","28","0","TRAFFIC","2","5","1","1472","traffic","2","2017-03-23 19:55:17","2361"
"A1FDPHX8S6G1WM","cs_wg_v3_pilot3","3VNXK88KKCJ5MUY6P3QZXGHEWR6V98","18","0","LADDER","9","5","0","2131","ladder","9","2017-03-23 19:55:17","2362"
"A2OFN0A5CPLH57","cs_wg_v3_pilot3","3WOKGM4L71HS0G1WOVLS9DMDXUFO0N","23","0","STOMACH","8","5","0","2528","stomach","8","2017-03-23 19:55:18","2363"
"A1YJTYLITTPI6B","cs_wg_v3_pilot3","3TK8OJTYM1MQEHED6SMWJ6HT1VOPVX","39","0","COMMUNITY","2","5","1","2228","community","2","2017-03-23 19:55:21","2364"
"AAXYYH9MI3PJM","cs_wg_v3_pilot3","3ATTHHXXWAPQ1KW4TCXUYUD2VS1IXH","4","0","FOOTBALL","0","5","1","5370","football","0","2017-03-23 19:55:21","2365"
"A1Z3NTRGIUZ240","cs_wg_v3_pilot3","31QTRG6Q2TE7IB9IB39GQ5LNJCQPY6","10","0","STRUCTURE","0","5","1","2630","Structure","0","2017-03-23 19:55:22","2366"
"A2O5OJXCUFQ3FV","cs_wg_v3_pilot3","3TYCR1GOTCKHWG4PFXISNVL5KWTLZV","27","0","LADDER","2","5","1","3459","ladder","2","2017-03-23 19:55:27","2367"
"A20HITED8LB7O5","cs_wg_v3_pilot3","3TVRFO09GKGSRL4AEFU7QA5UCWVLXY","29","0","LADDER","1","5","1","2730","ladder","1","2017-03-23 19:55:28","2368"
"A1FDPHX8S6G1WM","cs_wg_v3_pilot3","3VNXK88KKCJ5MUY6P3QZXGHEWR6V98","19","0","WEDDING","10","5","0","4848","wedding","10","2017-03-23 19:55:30","2369"
"A1YJTYLITTPI6B","cs_wg_v3_pilot3","3TK8OJTYM1MQEHED6SMWJ6HT1VOPVX","40","0","LADDER","1","5","1","3488","ladder","1","2017-03-23 19:55:31","2370"
"AAXYYH9MI3PJM","cs_wg_v3_pilot3","3ATTHHXXWAPQ1KW4TCXUYUD2VS1IXH","5","0","HELICOPTER","2","5","1","1837","helicopter","2","2017-03-23 19:55:32","2371"
"A2OFN0A5CPLH57","cs_wg_v3_pilot3","3WOKGM4L71HS0G1WOVLS9DMDXUFO0N","24","0","COMMUNITY","10","5","0","1511","community","10","2017-03-23 19:55:32","2372"
"A2O5OJXCUFQ3FV","cs_wg_v3_pilot3","3TYCR1GOTCKHWG4PFXISNVL5KWTLZV","28","0","DOORWAY","0","5","1","1470","doorway","0","2017-03-23 19:55:36","2373"
"AO0CQ0WT4FT7T","cs_wg_v3_pilot3","36WLNQG78ZB78CRHSXFLOIOIKW6EBV","15","0","HELICOPTER","2","5","1","715","HELICOPTER","2","2017-03-23 19:55:37","2374"
"A20HITED8LB7O5","cs_wg_v3_pilot3","3TVRFO09GKGSRL4AEFU7QA5UCWVLXY","30","0","UMBRELLA","0","5","0","1556","umbrella","0","2017-03-23 19:55:38","2375"
"A1YJTYLITTPI6B","cs_wg_v3_pilot3","3TK8OJTYM1MQEHED6SMWJ6HT1VOPVX","41","0","DOORWAY","1","5","0","2178","doorway","1","2017-03-23 19:55:40","2376"
"A1Z3NTRGIUZ240","cs_wg_v3_pilot3","31QTRG6Q2TE7IB9IB39GQ5LNJCQPY6","11","0","STRUCTURE","0","5","1","1667","Structure","0","2017-03-23 19:55:45","2377"
"AO0CQ0WT4FT7T","cs_wg_v3_pilot3","36WLNQG78ZB78CRHSXFLOIOIKW6EBV","16","0","BASKET","2","5","1","1443","BASKET","2","2017-03-23 19:55:46","2378"
"A1FDPHX8S6G1WM","cs_wg_v3_pilot3","3VNXK88KKCJ5MUY6P3QZXGHEWR6V98","20","0","BASKET","9","5","1","3924","basket","9","2017-03-23 19:55:46","2379"
"A2OFN0A5CPLH57","cs_wg_v3_pilot3","3WOKGM4L71HS0G1WOVLS9DMDXUFO0N","25","0","KEYBOARD","2","5","0","2439","keyboard","2","2017-03-23 19:55:48","2380"
"A1YJTYLITTPI6B","cs_wg_v3_pilot3","3TK8OJTYM1MQEHED6SMWJ6HT1VOPVX","42","0","TRAFFIC","0","5","1","1665","traffic","0","2017-03-23 19:55:50","2381"
"A2O5OJXCUFQ3FV","cs_wg_v3_pilot3","3TYCR1GOTCKHWG4PFXISNVL5KWTLZV","29","0","KEYBOARD","10","5","0","2840","keyboard","10","2017-03-23 19:55:50","2382"
"A20HITED8LB7O5","cs_wg_v3_pilot3","3TVRFO09GKGSRL4AEFU7QA5UCWVLXY","31","0","MACHINE","8","5","0","3330","machine","8","2017-03-23 19:55:50","2383"
"AO0CQ0WT4FT7T","cs_wg_v3_pilot3","36WLNQG78ZB78CRHSXFLOIOIKW6EBV","17","0","FOOTBALL","10","5","0","576","FOOTBALL","10","2017-03-23 19:55:53","2384"
"A1Z3NTRGIUZ240","cs_wg_v3_pilot3","31QTRG6Q2TE7IB9IB39GQ5LNJCQPY6","12","0","STRUCTURE","0","5","1","1703","Structure","0","2017-03-23 19:55:55","2385"
"A2O5OJXCUFQ3FV","cs_wg_v3_pilot3","3TYCR1GOTCKHWG4PFXISNVL5KWTLZV","30","0","DOORWAY","0","5","1","1605","doorway","0","2017-03-23 19:55:58","2386"
"A20HITED8LB7O5","cs_wg_v3_pilot3","3TVRFO09GKGSRL4AEFU7QA5UCWVLXY","32","0","BASKET","10","5","0","2357","basket","10","2017-03-23 19:56:00","2387"
"A1YJTYLITTPI6B","cs_wg_v3_pilot3","3TK8OJTYM1MQEHED6SMWJ6HT1VOPVX","43","0","BASKET","9","5","0","2017","basket","9","2017-03-23 19:56:00","2388"
"AO0CQ0WT4FT7T","cs_wg_v3_pilot3","36WLNQG78ZB78CRHSXFLOIOIKW6EBV","18","0","BOOKSHELF","9","5","1","816","BOOKSHELF","9","2017-03-23 19:56:00","2389"
"A2OFN0A5CPLH57","cs_wg_v3_pilot3","3WOKGM4L71HS0G1WOVLS9DMDXUFO0N","26","0","STOMACH","8","5","0","4660","stomach","8","2017-03-23 19:56:02","2390"
"A1FDPHX8S6G1WM","cs_wg_v3_pilot3","3VNXK88KKCJ5MUY6P3QZXGHEWR6V98","21","0","STRUCTURE","10","5","0","4089","structure","10","2017-03-23 19:56:05","2391"
"A1Z3NTRGIUZ240","cs_wg_v3_pilot3","31QTRG6Q2TE7IB9IB39GQ5LNJCQPY6","13","0","WEDDING","8","5","0","2358","Wedding","8","2017-03-23 19:56:06","2392"
"AO0CQ0WT4FT7T","cs_wg_v3_pilot3","36WLNQG78ZB78CRHSXFLOIOIKW6EBV","19","0","STOMACH","8","5","1","1493","STOMACH","8","2017-03-23 19:56:07","2393"
"A1YJTYLITTPI6B","cs_wg_v3_pilot3","3TK8OJTYM1MQEHED6SMWJ6HT1VOPVX","44","0","FOOTBALL","0","5","1","1209","football","0","2017-03-23 19:56:09","2394"
"A20HITED8LB7O5","cs_wg_v3_pilot3","3TVRFO09GKGSRL4AEFU7QA5UCWVLXY","33","0","KEYBOARD","9","5","0","3260","keyboard","9","2017-03-23 19:56:13","2395"
"AO0CQ0WT4FT7T","cs_wg_v3_pilot3","36WLNQG78ZB78CRHSXFLOIOIKW6EBV","20","0","HELICOPTER","2","5","1","693","HELICOPTER","2","2017-03-23 19:56:14","2396"
"A1Z3NTRGIUZ240","cs_wg_v3_pilot3","31QTRG6Q2TE7IB9IB39GQ5LNJCQPY6","14","0","WEDDING","8","5","0","969","Wedding","8","2017-03-23 19:56:15","2397"
"A2OFN0A5CPLH57","cs_wg_v3_pilot3","3WOKGM4L71HS0G1WOVLS9DMDXUFO0N","27","0","LADDER","1","5","1","1937","ladder","1","2017-03-23 19:56:16","2398"
"A1YJTYLITTPI6B","cs_wg_v3_pilot3","3TK8OJTYM1MQEHED6SMWJ6HT1VOPVX","45","0","BASKET","9","5","0","766","basket","9","2017-03-23 19:56:17","2399"
"A2O5OJXCUFQ3FV","cs_wg_v3_pilot3","3TYCR1GOTCKHWG4PFXISNVL5KWTLZV","31","0","COMMUNITY","9","5","1","1530","community","10","2017-03-23 19:56:18","2400"
"A1FDPHX8S6G1WM","cs_wg_v3_pilot3","3VNXK88KKCJ5MUY6P3QZXGHEWR6V98","22","0","UMBRELLA","0","5","1","5108","umbrella","0","2017-03-23 19:56:20","2401"
"AO0CQ0WT4FT7T","cs_wg_v3_pilot3","36WLNQG78ZB78CRHSXFLOIOIKW6EBV","21","0","MACHINE","1","5","1","790","MACHINE","1","2017-03-23 19:56:20","2402"
"A20HITED8LB7O5","cs_wg_v3_pilot3","3TVRFO09GKGSRL4AEFU7QA5UCWVLXY","34","0","UMBRELLA","0","5","1","2518","umbrella","0","2017-03-23 19:56:24","2403"
"A2OFN0A5CPLH57","cs_wg_v3_pilot3","3WOKGM4L71HS0G1WOVLS9DMDXUFO0N","28","0","FOOTBALL","0","5","1","2075","football","0","2017-03-23 19:56:26","2404"
"AO0CQ0WT4FT7T","cs_wg_v3_pilot3","36WLNQG78ZB78CRHSXFLOIOIKW6EBV","22","0","BASKET","2","5","1","656","BASKET","2","2017-03-23 19:56:26","2405"
"A1YJTYLITTPI6B","cs_wg_v3_pilot3","3TK8OJTYM1MQEHED6SMWJ6HT1VOPVX","46","0","HELICOPTER","8","5","0","588","helicopter","8","2017-03-23 19:56:27","2406"
"A1Z3NTRGIUZ240","cs_wg_v3_pilot3","31QTRG6Q2TE7IB9IB39GQ5LNJCQPY6","15","0","MACHINE","0","5","0","2076","Machine","0","2017-03-23 19:56:30","2407"
"A2O5OJXCUFQ3FV","cs_wg_v3_pilot3","3TYCR1GOTCKHWG4PFXISNVL5KWTLZV","32","0","TRAFFIC","10","5","0","2682","traffic","10","2017-03-23 19:56:33","2408"
"A20HITED8LB7O5","cs_wg_v3_pilot3","3TVRFO09GKGSRL4AEFU7QA5UCWVLXY","35","0","UMBRELLA","0","5","1","1438","umbrella","0","2017-03-23 19:56:36","2409"
"A1YJTYLITTPI6B","cs_wg_v3_pilot3","3TK8OJTYM1MQEHED6SMWJ6HT1VOPVX","47","0","BOOKSHELF","9","5","0","3282","bookshelf","9","2017-03-23 19:56:38","2410"
"A2OFN0A5CPLH57","cs_wg_v3_pilot3","3WOKGM4L71HS0G1WOVLS9DMDXUFO0N","29","0","DOORWAY","10","5","0","1851","doorway","10","2017-03-23 19:56:41","2411"
"A2O5OJXCUFQ3FV","cs_wg_v3_pilot3","3TYCR1GOTCKHWG4PFXISNVL5KWTLZV","33","0","KEYBOARD","10","5","0","2676","keyboard","10","2017-03-23 19:56:44","2412"
"A1Z3NTRGIUZ240","cs_wg_v3_pilot3","31QTRG6Q2TE7IB9IB39GQ5LNJCQPY6","16","0","UMBRELLA","2","5","1","3684","Umbrella","2","2017-03-23 19:56:44","2413"
"A1YJTYLITTPI6B","cs_wg_v3_pilot3","3TK8OJTYM1MQEHED6SMWJ6HT1VOPVX","48","0","DOORWAY","1","5","1","1022","doorway","1","2017-03-23 19:56:46","2414"
"A20HITED8LB7O5","cs_wg_v3_pilot3","3TVRFO09GKGSRL4AEFU7QA5UCWVLXY","36","0","MACHINE","8","5","0","1908","machine","8","2017-03-23 19:56:46","2415"
"A1FDPHX8S6G1WM","cs_wg_v3_pilot3","3VNXK88KKCJ5MUY6P3QZXGHEWR6V98","23","0","STRUCTURE","10","5","0","17177","structure","10","2017-03-23 19:56:48","2416"
"A2OFN0A5CPLH57","cs_wg_v3_pilot3","3WOKGM4L71HS0G1WOVLS9DMDXUFO0N","30","0","HELICOPTER","9","5","0","3308","helicopter","9","2017-03-23 19:56:52","2417"
"A1Z3NTRGIUZ240","cs_wg_v3_pilot3","31QTRG6Q2TE7IB9IB39GQ5LNJCQPY6","17","0","MACHINE","0","5","1","1589","Machine","0","2017-03-23 19:56:53","2418"
"A1YJTYLITTPI6B","cs_wg_v3_pilot3","3TK8OJTYM1MQEHED6SMWJ6HT1VOPVX","49","0","UMBRELLA","0","5","1","2390","umbrella","0","2017-03-23 19:56:56","2419"
"A20HITED8LB7O5","cs_wg_v3_pilot3","3TVRFO09GKGSRL4AEFU7QA5UCWVLXY","37","0","LADDER","1","5","1","1662","ladder","1","2017-03-23 19:56:57","2420"
"A2O5OJXCUFQ3FV","cs_wg_v3_pilot3","3TYCR1GOTCKHWG4PFXISNVL5KWTLZV","34","0","STOMACH","10","5","1","1969","stomach","10","2017-03-23 19:57:01","2421"
"A1FDPHX8S6G1WM","cs_wg_v3_pilot3","3VNXK88KKCJ5MUY6P3QZXGHEWR6V98","24","0","STOMACH","8","5","0","3432","stomach","8","2017-03-23 19:57:02","2422"
"A2OFN0A5CPLH57","cs_wg_v3_pilot3","3WOKGM4L71HS0G1WOVLS9DMDXUFO0N","31","0","LADDER","1","5","1","1523","ladder","1","2017-03-23 19:57:03","2423"
"A1YJTYLITTPI6B","cs_wg_v3_pilot3","3TK8OJTYM1MQEHED6SMWJ6HT1VOPVX","50","0","LADDER","1","5","1","1096","ladder","1","2017-03-23 19:57:05","2424"
"A20HITED8LB7O5","cs_wg_v3_pilot3","3TVRFO09GKGSRL4AEFU7QA5UCWVLXY","38","0","BASKET","10","5","0","1369","basket","10","2017-03-23 19:57:07","2425"
"A1Z3NTRGIUZ240","cs_wg_v3_pilot3","31QTRG6Q2TE7IB9IB39GQ5LNJCQPY6","18","0","UMBRELLA","2","5","1","1979","Umbrella","2","2017-03-23 19:57:08","2426"
"A2O5OJXCUFQ3FV","cs_wg_v3_pilot3","3TYCR1GOTCKHWG4PFXISNVL5KWTLZV","35","0","KEYBOARD","10","5","0","1804","keyboard","10","2017-03-23 19:57:10","2427"
"A1YJTYLITTPI6B","cs_wg_v3_pilot3","3TK8OJTYM1MQEHED6SMWJ6HT1VOPVX","51","0","FOOTBALL","0","5","1","1138","football","0","2017-03-23 19:57:13","2428"
"A2OFN0A5CPLH57","cs_wg_v3_pilot3","3WOKGM4L71HS0G1WOVLS9DMDXUFO0N","32","0","DOORWAY","10","5","0","1973","doorway","10","2017-03-23 19:57:16","2429"
"A20HITED8LB7O5","cs_wg_v3_pilot3","3TVRFO09GKGSRL4AEFU7QA5UCWVLXY","39","0","KEYBOARD","9","5","0","2894","keyboard","9","2017-03-23 19:57:19","2430"
"A2O5OJXCUFQ3FV","cs_wg_v3_pilot3","3TYCR1GOTCKHWG4PFXISNVL5KWTLZV","36","0","BASKET","1","5","1","2289","basket","1","2017-03-23 19:57:19","2431"
"A1Z3NTRGIUZ240","cs_wg_v3_pilot3","31QTRG6Q2TE7IB9IB39GQ5LNJCQPY6","19","0","BASKET","10","5","0","2935","Basket","10","2017-03-23 19:57:21","2432"
"A1YJTYLITTPI6B","cs_wg_v3_pilot3","3TK8OJTYM1MQEHED6SMWJ6HT1VOPVX","52","0","LADDER","1","5","1","1022","ladder","1","2017-03-23 19:57:21","2433"
"A2OFN0A5CPLH57","cs_wg_v3_pilot3","3WOKGM4L71HS0G1WOVLS9DMDXUFO0N","33","0","DOORWAY","10","5","0","1412","doorway","10","2017-03-23 19:57:26","2434"
"A1YJTYLITTPI6B","cs_wg_v3_pilot3","3TK8OJTYM1MQEHED6SMWJ6HT1VOPVX","53","0","WEDDING","10","5","0","557","wedding","10","2017-03-23 19:57:28","2435"
"A2O5OJXCUFQ3FV","cs_wg_v3_pilot3","3TYCR1GOTCKHWG4PFXISNVL5KWTLZV","37","0","FOOTBALL","8","5","0","2730","football","8","2017-03-23 19:57:29","2436"
"A1Z3NTRGIUZ240","cs_wg_v3_pilot3","31QTRG6Q2TE7IB9IB39GQ5LNJCQPY6","20","0","BASKET","10","5","0","1362","Basket","10","2017-03-23 19:57:29","2437"
"A20HITED8LB7O5","cs_wg_v3_pilot3","3TVRFO09GKGSRL4AEFU7QA5UCWVLXY","40","0","WEDDING","8","5","0","3212","wedding","8","2017-03-23 19:57:30","2438"
"A1YJTYLITTPI6B","cs_wg_v3_pilot3","3TK8OJTYM1MQEHED6SMWJ6HT1VOPVX","54","0","LADDER","1","5","1","1170","ladder","1","2017-03-23 19:57:35","2439"
"A2OFN0A5CPLH57","cs_wg_v3_pilot3","3WOKGM4L71HS0G1WOVLS9DMDXUFO0N","34","0","HELICOPTER","9","5","0","1619","helicopter","9","2017-03-23 19:57:38","2440"
"A1Z3NTRGIUZ240","cs_wg_v3_pilot3","31QTRG6Q2TE7IB9IB39GQ5LNJCQPY6","21","0","STOMACH","8","5","0","2210","Stomach","8","2017-03-23 19:57:40","2441"
"A20HITED8LB7O5","cs_wg_v3_pilot3","3TVRFO09GKGSRL4AEFU7QA5UCWVLXY","41","0","HELICOPTER","2","5","0","1807","helicopter","2","2017-03-23 19:57:41","2442"
"A2O5OJXCUFQ3FV","cs_wg_v3_pilot3","3TYCR1GOTCKHWG4PFXISNVL5KWTLZV","38","0","UMBRELLA","2","5","0","3757","umbrella ","2","2017-03-23 19:57:42","2443"
"A1YJTYLITTPI6B","cs_wg_v3_pilot3","3TK8OJTYM1MQEHED6SMWJ6HT1VOPVX","55","0","BASKET","9","5","0","566","basket","9","2017-03-23 19:57:43","2444"
"A1Z3NTRGIUZ240","cs_wg_v3_pilot3","31QTRG6Q2TE7IB9IB39GQ5LNJCQPY6","22","0","MACHINE","0","5","1","1517","Machine","0","2017-03-23 19:57:49","2445"
"A2OFN0A5CPLH57","cs_wg_v3_pilot3","3WOKGM4L71HS0G1WOVLS9DMDXUFO0N","35","0","KEYBOARD","2","5","1","2361","keyboard","2","2017-03-23 19:57:50","2446"
"A20HITED8LB7O5","cs_wg_v3_pilot3","3TVRFO09GKGSRL4AEFU7QA5UCWVLXY","42","0","COMMUNITY","0","5","1","1366","community","0","2017-03-23 19:57:51","2447"
"A1YJTYLITTPI6B","cs_wg_v3_pilot3","3TK8OJTYM1MQEHED6SMWJ6HT1VOPVX","56","0","UMBRELLA","0","5","1","1873","umbrella","0","2017-03-23 19:57:52","2448"
"A2O5OJXCUFQ3FV","cs_wg_v3_pilot3","3TYCR1GOTCKHWG4PFXISNVL5KWTLZV","39","0","DOORWAY","0","5","1","4438","doorway","0","2017-03-23 19:57:58","2449"
"A1Z3NTRGIUZ240","cs_wg_v3_pilot3","31QTRG6Q2TE7IB9IB39GQ5LNJCQPY6","23","0","BASKET","10","5","0","2514","Basket","10","2017-03-23 19:57:59","2450"
"A1YJTYLITTPI6B","cs_wg_v3_pilot3","3TK8OJTYM1MQEHED6SMWJ6HT1VOPVX","57","0","MACHINE","10","5","0","583","machine","10","2017-03-23 19:58:00","2451"
"A2OFN0A5CPLH57","cs_wg_v3_pilot3","3WOKGM4L71HS0G1WOVLS9DMDXUFO0N","36","0","BOOKSHELF","10","5","0","1194","bookshelf","10","2017-03-23 19:58:00","2452"
"A20HITED8LB7O5","cs_wg_v3_pilot3","3TVRFO09GKGSRL4AEFU7QA5UCWVLXY","43","0","FOOTBALL","9","5","0","1576","football","9","2017-03-23 19:58:01","2453"
"A1Z3NTRGIUZ240","cs_wg_v3_pilot3","31QTRG6Q2TE7IB9IB39GQ5LNJCQPY6","24","0","BASKET","10","5","0","1256","Basket","10","2017-03-23 19:58:07","2454"
"A1YJTYLITTPI6B","cs_wg_v3_pilot3","3TK8OJTYM1MQEHED6SMWJ6HT1VOPVX","58","0","BASKET","9","5","0","3139","basket","9","2017-03-23 19:58:10","2455"
"A20HITED8LB7O5","cs_wg_v3_pilot3","3TVRFO09GKGSRL4AEFU7QA5UCWVLXY","44","0","WEDDING","8","5","0","1648","wedding","8","2017-03-23 19:58:11","2456"
"A2O5OJXCUFQ3FV","cs_wg_v3_pilot3","3TYCR1GOTCKHWG4PFXISNVL5KWTLZV","40","0","UMBRELLA","2","5","1","2245","umbrella","2","2017-03-23 19:58:11","2457"
"A2OFN0A5CPLH57","cs_wg_v3_pilot3","3WOKGM4L71HS0G1WOVLS9DMDXUFO0N","37","0","STOMACH","8","5","0","1097","stomach","8","2017-03-23 19:58:11","2458"
"A1YJTYLITTPI6B","cs_wg_v3_pilot3","3TK8OJTYM1MQEHED6SMWJ6HT1VOPVX","59","0","DOORWAY","1","5","1","1151","doorway","1","2017-03-23 19:58:18","2459"
"A20HITED8LB7O5","cs_wg_v3_pilot3","3TVRFO09GKGSRL4AEFU7QA5UCWVLXY","45","0","WEDDING","8","5","0","1340","wedding","8","2017-03-23 19:58:20","2460"
"A2O5OJXCUFQ3FV","cs_wg_v3_pilot3","3TYCR1GOTCKHWG4PFXISNVL5KWTLZV","41","0","MACHINE","9","5","0","2706","machine","9","2017-03-23 19:58:20","2461"
"A1FDPHX8S6G1WM","cs_wg_v3_pilot3","3VNXK88KKCJ5MUY6P3QZXGHEWR6V98","25","0","STOMACH","8","5","0","68481","stomach","8","2017-03-23 19:58:21","2462"
"A1Z3NTRGIUZ240","cs_wg_v3_pilot3","31QTRG6Q2TE7IB9IB39GQ5LNJCQPY6","25","0","FOOTBALL","10","5","0","1516","Football","10","2017-03-23 19:58:23","2463"
"A2OFN0A5CPLH57","cs_wg_v3_pilot3","3WOKGM4L71HS0G1WOVLS9DMDXUFO0N","38","0","MACHINE","1","5","1","3241","machine","1","2017-03-23 19:58:23","2464"
"A1YJTYLITTPI6B","cs_wg_v3_pilot3","3TK8OJTYM1MQEHED6SMWJ6HT1VOPVX","60","0","UMBRELLA","0","5","1","1840","umbrella","0","2017-03-23 19:58:28","2465"
"A20HITED8LB7O5","cs_wg_v3_pilot3","3TVRFO09GKGSRL4AEFU7QA5UCWVLXY","46","0","STRUCTURE","10","5","0","1543","structure","10","2017-03-23 19:58:30","2466"
"A2O5OJXCUFQ3FV","cs_wg_v3_pilot3","3TYCR1GOTCKHWG4PFXISNVL5KWTLZV","42","0","BASKET","1","5","1","4089","basket","1","2017-03-23 19:58:31","2467"
"A2OFN0A5CPLH57","cs_wg_v3_pilot3","3WOKGM4L71HS0G1WOVLS9DMDXUFO0N","39","0","KEYBOARD","2","5","0","1470","keyboard","2","2017-03-23 19:58:33","2468"
"A1Z3NTRGIUZ240","cs_wg_v3_pilot3","31QTRG6Q2TE7IB9IB39GQ5LNJCQPY6","26","0","LADDER","1","5","0","960","Ladder","1","2017-03-23 19:58:35","2469"
"A1YJTYLITTPI6B","cs_wg_v3_pilot3","3TK8OJTYM1MQEHED6SMWJ6HT1VOPVX","61","0","HELICOPTER","8","5","0","554","helicopter","8","2017-03-23 19:58:37","2470"
"A1FDPHX8S6G1WM","cs_wg_v3_pilot3","3VNXK88KKCJ5MUY6P3QZXGHEWR6V98","26","0","UMBRELLA","0","5","1","2110","umbrella","0","2017-03-23 19:58:37","2471"
"A64JDJKE9DYCT","cs_wg_v3_pilot3","3GLB5JMZFXWY7NLSCOWFJBXU0XXGDL","0","0","MACHINE","0","5","1","4465","MACHINE","0","2017-03-23 19:58:37","2472"
"A20HITED8LB7O5","cs_wg_v3_pilot3","3TVRFO09GKGSRL4AEFU7QA5UCWVLXY","47","0","COMMUNITY","0","5","1","1952","community","0","2017-03-23 19:58:41","2473"
"A2OFN0A5CPLH57","cs_wg_v3_pilot3","3WOKGM4L71HS0G1WOVLS9DMDXUFO0N","40","0","COMMUNITY","10","5","0","1459","community","10","2017-03-23 19:58:44","2474"
"A1YJTYLITTPI6B","cs_wg_v3_pilot3","3TK8OJTYM1MQEHED6SMWJ6HT1VOPVX","62","0","LADDER","1","5","1","996","ladder","1","2017-03-23 19:58:45","2475"
"A1Z3NTRGIUZ240","cs_wg_v3_pilot3","31QTRG6Q2TE7IB9IB39GQ5LNJCQPY6","27","0","COMMUNITY","9","5","0","5998","Community","9","2017-03-23 19:58:49","2476"
"A20HITED8LB7O5","cs_wg_v3_pilot3","3TVRFO09GKGSRL4AEFU7QA5UCWVLXY","48","0","BASKET","10","5","0","1606","basket","10","2017-03-23 19:58:50","2477"
"A1FDPHX8S6G1WM","cs_wg_v3_pilot3","3VNXK88KKCJ5MUY6P3QZXGHEWR6V98","27","0","HELICOPTER","10","5","0","2996","helicopter","10","2017-03-23 19:58:51","2478"
"A1YJTYLITTPI6B","cs_wg_v3_pilot3","3TK8OJTYM1MQEHED6SMWJ6HT1VOPVX","63","0","TRAFFIC","0","5","1","1311","traffic","0","2017-03-23 19:58:53","2479"
"A2OFN0A5CPLH57","cs_wg_v3_pilot3","3WOKGM4L71HS0G1WOVLS9DMDXUFO0N","41","0","BOOKSHELF","10","5","0","1930","bookshelf","10","2017-03-23 19:58:55","2480"
"A64JDJKE9DYCT","cs_wg_v3_pilot3","3GLB5JMZFXWY7NLSCOWFJBXU0XXGDL","1","0","STRUCTURE","10","5","1","2440","STRUCTURE","10","2017-03-23 19:58:59","2481"
"A1YJTYLITTPI6B","cs_wg_v3_pilot3","3TK8OJTYM1MQEHED6SMWJ6HT1VOPVX","64","0","WEDDING","10","5","0","552","wedding","10","2017-03-23 19:59:00","2482"
"A20HITED8LB7O5","cs_wg_v3_pilot3","3TVRFO09GKGSRL4AEFU7QA5UCWVLXY","49","0","DOORWAY","0","5","0","2085","doorway","0","2017-03-23 19:59:01","2483"
"A1FDPHX8S6G1WM","cs_wg_v3_pilot3","3VNXK88KKCJ5MUY6P3QZXGHEWR6V98","28","0","WEDDING","10","5","0","2373","wedding","10","2017-03-23 19:59:04","2484"
"A1Z3NTRGIUZ240","cs_wg_v3_pilot3","31QTRG6Q2TE7IB9IB39GQ5LNJCQPY6","28","0","DOORWAY","1","5","0","1094","Doorway","1","2017-03-23 19:59:05","2485"
"A2OFN0A5CPLH57","cs_wg_v3_pilot3","3WOKGM4L71HS0G1WOVLS9DMDXUFO0N","42","0","LADDER","1","5","1","1724","ladder","1","2017-03-23 19:59:06","2486"
"A1YJTYLITTPI6B","cs_wg_v3_pilot3","3TK8OJTYM1MQEHED6SMWJ6HT1VOPVX","65","0","WEDDING","10","5","0","650","wedding","10","2017-03-23 19:59:07","2487"
"A20HITED8LB7O5","cs_wg_v3_pilot3","3TVRFO09GKGSRL4AEFU7QA5UCWVLXY","50","0","BASKET","10","5","0","1347","basket","10","2017-03-23 19:59:09","2488"
"A1YJTYLITTPI6B","cs_wg_v3_pilot3","3TK8OJTYM1MQEHED6SMWJ6HT1VOPVX","66","0","KEYBOARD","10","5","0","581","keyboard","10","2017-03-23 19:59:14","2489"
"A2OFN0A5CPLH57","cs_wg_v3_pilot3","3WOKGM4L71HS0G1WOVLS9DMDXUFO0N","43","0","UMBRELLA","8","5","1","1364","umbrella","8","2017-03-23 19:59:16","2490"
"A1Z3NTRGIUZ240","cs_wg_v3_pilot3","31QTRG6Q2TE7IB9IB39GQ5LNJCQPY6","29","0","WEDDING","8","5","0","2281","Wedding","8","2017-03-23 19:59:16","2491"
"A1FDPHX8S6G1WM","cs_wg_v3_pilot3","3VNXK88KKCJ5MUY6P3QZXGHEWR6V98","29","0","HELICOPTER","10","5","0","1924","helicopter","10","2017-03-23 19:59:17","2492"
"A20HITED8LB7O5","cs_wg_v3_pilot3","3TVRFO09GKGSRL4AEFU7QA5UCWVLXY","51","0","HELICOPTER","2","5","1","1406","helicopter","2","2017-03-23 19:59:19","2493"
"A64JDJKE9DYCT","cs_wg_v3_pilot3","3GLB5JMZFXWY7NLSCOWFJBXU0XXGDL","2","0","STRUCTURE","10","5","0","2133","STRUCTURE","10","2017-03-23 19:59:20","2494"
"A1YJTYLITTPI6B","cs_wg_v3_pilot3","3TK8OJTYM1MQEHED6SMWJ6HT1VOPVX","67","0","LADDER","1","5","1","977","ladder","1","2017-03-23 19:59:22","2495"
"A2O5OJXCUFQ3FV","cs_wg_v3_pilot3","3TYCR1GOTCKHWG4PFXISNVL5KWTLZV","43","0","FOOTBALL","8","5","0","2487","football","8","2017-03-23 19:59:23","2496"
"A2OFN0A5CPLH57","cs_wg_v3_pilot3","3WOKGM4L71HS0G1WOVLS9DMDXUFO0N","44","0","COMMUNITY","10","5","0","1059","community","10","2017-03-23 19:59:27","2497"
"A20HITED8LB7O5","cs_wg_v3_pilot3","3TVRFO09GKGSRL4AEFU7QA5UCWVLXY","52","0","DOORWAY","0","5","1","1394","doorway","0","2017-03-23 19:59:29","2498"
"A1YJTYLITTPI6B","cs_wg_v3_pilot3","3TK8OJTYM1MQEHED6SMWJ6HT1VOPVX","68","0","STOMACH","2","5","1","1063","stomach","2","2017-03-23 19:59:29","2499"
"A1FDPHX8S6G1WM","cs_wg_v3_pilot3","3VNXK88KKCJ5MUY6P3QZXGHEWR6V98","30","0","LADDER","9","5","0","1817","ladder","9","2017-03-23 19:59:31","2500"
"A2O5OJXCUFQ3FV","cs_wg_v3_pilot3","3TYCR1GOTCKHWG4PFXISNVL5KWTLZV","44","0","COMMUNITY","9","5","0","2382","community","9","2017-03-23 19:59:32","2501"
"A1Z3NTRGIUZ240","cs_wg_v3_pilot3","31QTRG6Q2TE7IB9IB39GQ5LNJCQPY6","30","0","HELICOPTER","0","5","1","5945","Helicopter","0","2017-03-23 19:59:33","2502"
"A2OFN0A5CPLH57","cs_wg_v3_pilot3","3WOKGM4L71HS0G1WOVLS9DMDXUFO0N","45","0","HELICOPTER","9","5","0","1300","helicopter","9","2017-03-23 19:59:37","2503"
"A1YJTYLITTPI6B","cs_wg_v3_pilot3","3TK8OJTYM1MQEHED6SMWJ6HT1VOPVX","69","0","DOORWAY","1","5","1","1058","doorway","1","2017-03-23 19:59:38","2504"
"A2O5OJXCUFQ3FV","cs_wg_v3_pilot3","3TYCR1GOTCKHWG4PFXISNVL5KWTLZV","45","0","HELICOPTER","8","5","0","2347","helicopter","8","2017-03-23 19:59:41","2505"
"A1Z3NTRGIUZ240","cs_wg_v3_pilot3","31QTRG6Q2TE7IB9IB39GQ5LNJCQPY6","31","0","MACHINE","0","5","1","1756","Machine","0","2017-03-23 19:59:41","2506"
"A64JDJKE9DYCT","cs_wg_v3_pilot3","3GLB5JMZFXWY7NLSCOWFJBXU0XXGDL","3","0","LADDER","10","5","1","2305","LADDER","10","2017-03-23 19:59:41","2507"
"A20HITED8LB7O5","cs_wg_v3_pilot3","3TVRFO09GKGSRL4AEFU7QA5UCWVLXY","53","0","BOOKSHELF","10","5","0","2439","bookshelf","10","2017-03-23 19:59:44","2508"
"A1FDPHX8S6G1WM","cs_wg_v3_pilot3","3VNXK88KKCJ5MUY6P3QZXGHEWR6V98","31","0","COMMUNITY","8","5","1","3468","community","8","2017-03-23 19:59:44","2509"
"A2OFN0A5CPLH57","cs_wg_v3_pilot3","3WOKGM4L71HS0G1WOVLS9DMDXUFO0N","46","0","WEDDING","0","5","1","1531","wedding","0","2017-03-23 19:59:47","2510"
"A2O5OJXCUFQ3FV","cs_wg_v3_pilot3","3TYCR1GOTCKHWG4PFXISNVL5KWTLZV","46","0","TRAFFIC","10","5","0","2399","traffic","10","2017-03-23 19:59:51","2511"
"A1YJTYLITTPI6B","cs_wg_v3_pilot3","3TK8OJTYM1MQEHED6SMWJ6HT1VOPVX","70","0","BOOKSHELF","9","5","0","4675","bookshelf","9","2017-03-23 19:59:51","2512"
"A1Z3NTRGIUZ240","cs_wg_v3_pilot3","31QTRG6Q2TE7IB9IB39GQ5LNJCQPY6","32","0","LADDER","1","5","1","3191","Ladder","1","2017-03-23 19:59:52","2513"
"A20HITED8LB7O5","cs_wg_v3_pilot3","3TVRFO09GKGSRL4AEFU7QA5UCWVLXY","54","0","TRAFFIC","2","5","1","3880","traffic","2","2017-03-23 19:59:55","2514"
"A1FDPHX8S6G1WM","cs_wg_v3_pilot3","3VNXK88KKCJ5MUY6P3QZXGHEWR6V98","32","0","WEDDING","10","5","0","1567","wedding","10","2017-03-23 19:59:55","2515"
"A2OFN0A5CPLH57","cs_wg_v3_pilot3","3WOKGM4L71HS0G1WOVLS9DMDXUFO0N","47","0","UMBRELLA","8","5","0","1112","umbrella","8","2017-03-23 19:59:56","2516"
"A64JDJKE9DYCT","cs_wg_v3_pilot3","3GLB5JMZFXWY7NLSCOWFJBXU0XXGDL","4","0","FOOTBALL","0","5","1","2686","FOOTBALL","0","2017-03-23 19:59:58","2517"
"A1YJTYLITTPI6B","cs_wg_v3_pilot3","3TK8OJTYM1MQEHED6SMWJ6HT1VOPVX","71","0","UMBRELLA","0","5","1","1041","umbrella","0","2017-03-23 20:00:00","2518"
"A2O5OJXCUFQ3FV","cs_wg_v3_pilot3","3TYCR1GOTCKHWG4PFXISNVL5KWTLZV","47","0","WEDDING","1","5","1","2511","wedding","1","2017-03-23 20:00:00","2519"
"A1Z3NTRGIUZ240","cs_wg_v3_pilot3","31QTRG6Q2TE7IB9IB39GQ5LNJCQPY6","33","0","FOOTBALL","10","5","0","3143","Football","10","2017-03-23 20:00:03","2520"
"A20HITED8LB7O5","cs_wg_v3_pilot3","3TVRFO09GKGSRL4AEFU7QA5UCWVLXY","55","0","MACHINE","8","5","0","1832","machine","8","2017-03-23 20:00:04","2521"
"A2OFN0A5CPLH57","cs_wg_v3_pilot3","3WOKGM4L71HS0G1WOVLS9DMDXUFO0N","48","0","BOOKSHELF","10","5","0","876","bookshelf","10","2017-03-23 20:00:07","2522"
"A1FDPHX8S6G1WM","cs_wg_v3_pilot3","3VNXK88KKCJ5MUY6P3QZXGHEWR6V98","33","0","STOMACH","8","5","0","1513","stomach","8","2017-03-23 20:00:08","2523"
"A2O5OJXCUFQ3FV","cs_wg_v3_pilot3","3TYCR1GOTCKHWG4PFXISNVL5KWTLZV","48","0","UMBRELLA","2","5","1","1520","umbrella","2","2017-03-23 20:00:09","2524"
"A1YJTYLITTPI6B","cs_wg_v3_pilot3","3TK8OJTYM1MQEHED6SMWJ6HT1VOPVX","72","0","BOOKSHELF","9","5","0","895","bookshelf","9","2017-03-23 20:00:10","2525"
"A1Z3NTRGIUZ240","cs_wg_v3_pilot3","31QTRG6Q2TE7IB9IB39GQ5LNJCQPY6","34","0","LADDER","1","5","1","1757","Ladder","1","2017-03-23 20:00:12","2526"
"A20HITED8LB7O5","cs_wg_v3_pilot3","3TVRFO09GKGSRL4AEFU7QA5UCWVLXY","56","0","MACHINE","8","5","0","1374","machine","8","2017-03-23 20:00:14","2527"
"A2OFN0A5CPLH57","cs_wg_v3_pilot3","3WOKGM4L71HS0G1WOVLS9DMDXUFO0N","49","0","LADDER","1","5","1","1685","ladder","1","2017-03-23 20:00:16","2528"
"A64JDJKE9DYCT","cs_wg_v3_pilot3","3GLB5JMZFXWY7NLSCOWFJBXU0XXGDL","5","0","DOORWAY","1","5","1","2425","DOORWAY","1","2017-03-23 20:00:19","2529"
"A2O5OJXCUFQ3FV","cs_wg_v3_pilot3","3TYCR1GOTCKHWG4PFXISNVL5KWTLZV","49","0","DOORWAY","0","5","1","1782","doorway","0","2017-03-23 20:00:19","2530"
"A1Z3NTRGIUZ240","cs_wg_v3_pilot3","31QTRG6Q2TE7IB9IB39GQ5LNJCQPY6","35","0","TRAFFIC","10","5","0","1860","Traffic","10","2017-03-23 20:00:22","2531"
"A1YJTYLITTPI6B","cs_wg_v3_pilot3","3TK8OJTYM1MQEHED6SMWJ6HT1VOPVX","73","0","STRUCTURE","8","5","1","3805","structure","8","2017-03-23 20:00:23","2532"
"A1FDPHX8S6G1WM","cs_wg_v3_pilot3","3VNXK88KKCJ5MUY6P3QZXGHEWR6V98","34","0","WEDDING","10","5","0","1469","wedding","10","2017-03-23 20:00:25","2533"
"A20HITED8LB7O5","cs_wg_v3_pilot3","3TVRFO09GKGSRL4AEFU7QA5UCWVLXY","57","0","UMBRELLA","0","5","1","2737","umbrella","0","2017-03-23 20:00:25","2534"
"A2OFN0A5CPLH57","cs_wg_v3_pilot3","3WOKGM4L71HS0G1WOVLS9DMDXUFO0N","50","0","TRAFFIC","0","5","1","1541","traffic","0","2017-03-23 20:00:26","2535"
"A2O5OJXCUFQ3FV","cs_wg_v3_pilot3","3TYCR1GOTCKHWG4PFXISNVL5KWTLZV","50","0","TRAFFIC","10","5","0","1771","traffic","10","2017-03-23 20:00:30","2536"
"A1YJTYLITTPI6B","cs_wg_v3_pilot3","3TK8OJTYM1MQEHED6SMWJ6HT1VOPVX","74","0","TRAFFIC","0","5","1","1100","traffic","0","2017-03-23 20:00:31","2537"
"A64JDJKE9DYCT","cs_wg_v3_pilot3","3GLB5JMZFXWY7NLSCOWFJBXU0XXGDL","6","0","HELICOPTER","0","5","1","1946","HELICOPTER","0","2017-03-23 20:00:34","2538"
"A20HITED8LB7O5","cs_wg_v3_pilot3","3TVRFO09GKGSRL4AEFU7QA5UCWVLXY","58","0","UMBRELLA","0","5","1","1831","umbrella","0","2017-03-23 20:00:35","2539"
"A1Z3NTRGIUZ240","cs_wg_v3_pilot3","31QTRG6Q2TE7IB9IB39GQ5LNJCQPY6","36","0","STRUCTURE","0","5","1","4555","Structure","0","2017-03-23 20:00:35","2540"
"A2OFN0A5CPLH57","cs_wg_v3_pilot3","3WOKGM4L71HS0G1WOVLS9DMDXUFO0N","51","0","BASKET","9","5","0","3410","basket","9","2017-03-23 20:00:37","2541"
"A1FDPHX8S6G1WM","cs_wg_v3_pilot3","3VNXK88KKCJ5MUY6P3QZXGHEWR6V98","35","0","KEYBOARD","0","5","0","1551","keyboard","0","2017-03-23 20:00:38","2542"
"A1YJTYLITTPI6B","cs_wg_v3_pilot3","3TK8OJTYM1MQEHED6SMWJ6HT1VOPVX","75","0","COMMUNITY","2","5","1","1083","community","2","2017-03-23 20:00:39","2543"
"A2O5OJXCUFQ3FV","cs_wg_v3_pilot3","3TYCR1GOTCKHWG4PFXISNVL5KWTLZV","51","0","STOMACH","10","5","0","2045","stomach","10","2017-03-23 20:00:39","2544"
"A2OFN0A5CPLH57","cs_wg_v3_pilot3","3WOKGM4L71HS0G1WOVLS9DMDXUFO0N","52","0","COMMUNITY","10","5","0","1103","community","10","2017-03-23 20:00:46","2545"
"A1YJTYLITTPI6B","cs_wg_v3_pilot3","3TK8OJTYM1MQEHED6SMWJ6HT1VOPVX","76","0","BOOKSHELF","9","5","0","987","bookshelf","9","2017-03-23 20:00:47","2546"
"A2O5OJXCUFQ3FV","cs_wg_v3_pilot3","3TYCR1GOTCKHWG4PFXISNVL5KWTLZV","52","0","STOMACH","10","5","0","1426","stomach","10","2017-03-23 20:00:47","2547"
"A20HITED8LB7O5","cs_wg_v3_pilot3","3TVRFO09GKGSRL4AEFU7QA5UCWVLXY","59","0","UMBRELLA","0","5","1","2012","umbrella","0","2017-03-23 20:00:49","2548"
"A1Z3NTRGIUZ240","cs_wg_v3_pilot3","31QTRG6Q2TE7IB9IB39GQ5LNJCQPY6","37","0","HELICOPTER","0","5","1","3593","Helicopter","0","2017-03-23 20:00:50","2549"
"A64JDJKE9DYCT","cs_wg_v3_pilot3","3GLB5JMZFXWY7NLSCOWFJBXU0XXGDL","7","0","FOOTBALL","0","5","1","3547","FOOTBALL","0","2017-03-23 20:00:50","2550"
"A1FDPHX8S6G1WM","cs_wg_v3_pilot3","3VNXK88KKCJ5MUY6P3QZXGHEWR6V98","36","0","TRAFFIC","0","5","0","3405","traffic","0","2017-03-23 20:00:55","2551"
"A2OFN0A5CPLH57","cs_wg_v3_pilot3","3WOKGM4L71HS0G1WOVLS9DMDXUFO0N","53","0","FOOTBALL","0","5","1","1186","football","0","2017-03-23 20:00:55","2552"
"A1YJTYLITTPI6B","cs_wg_v3_pilot3","3TK8OJTYM1MQEHED6SMWJ6HT1VOPVX","77","0","DOORWAY","1","5","1","1048","doorway","1","2017-03-23 20:00:55","2553"
"A2O5OJXCUFQ3FV","cs_wg_v3_pilot3","3TYCR1GOTCKHWG4PFXISNVL5KWTLZV","53","0","DOORWAY","0","5","1","2634","doorway","0","2017-03-23 20:00:56","2554"
"A1Z3NTRGIUZ240","cs_wg_v3_pilot3","31QTRG6Q2TE7IB9IB39GQ5LNJCQPY6","38","0","LADDER","1","5","1","2353","Ladder","1","2017-03-23 20:01:00","2555"
"A1YJTYLITTPI6B","cs_wg_v3_pilot3","3TK8OJTYM1MQEHED6SMWJ6HT1VOPVX","78","0","MACHINE","10","5","0","646","machine","10","2017-03-23 20:01:02","2556"
"A20HITED8LB7O5","cs_wg_v3_pilot3","3TVRFO09GKGSRL4AEFU7QA5UCWVLXY","60","0","LADDER","1","5","1","5420","ladder","1","2017-03-23 20:01:03","2557"
"A2OFN0A5CPLH57","cs_wg_v3_pilot3","3WOKGM4L71HS0G1WOVLS9DMDXUFO0N","54","0","DOORWAY","10","5","0","2286","doorway","10","2017-03-23 20:01:06","2558"
"A2O5OJXCUFQ3FV","cs_wg_v3_pilot3","3TYCR1GOTCKHWG4PFXISNVL5KWTLZV","54","0","HELICOPTER","8","5","0","2850","helicopter","8","2017-03-23 20:01:07","2559"
"A1FDPHX8S6G1WM","cs_wg_v3_pilot3","3VNXK88KKCJ5MUY6P3QZXGHEWR6V98","37","0","FOOTBALL","1","5","0","4480","football","1","2017-03-23 20:01:09","2560"
"A1YJTYLITTPI6B","cs_wg_v3_pilot3","3TK8OJTYM1MQEHED6SMWJ6HT1VOPVX","79","0","FOOTBALL","0","5","1","1016","football","0","2017-03-23 20:01:10","2561"
"A64JDJKE9DYCT","cs_wg_v3_pilot3","3GLB5JMZFXWY7NLSCOWFJBXU0XXGDL","8","0","STRUCTURE","10","5","0","3171","STRUCTURE","10","2017-03-23 20:01:11","2562"
"A1Z3NTRGIUZ240","cs_wg_v3_pilot3","31QTRG6Q2TE7IB9IB39GQ5LNJCQPY6","39","0","COMMUNITY","9","5","0","3227","Community","9","2017-03-23 20:01:11","2563"
"A20HITED8LB7O5","cs_wg_v3_pilot3","3TVRFO09GKGSRL4AEFU7QA5UCWVLXY","61","0","STOMACH","1","5","0","3322","stomach","1","2017-03-23 20:01:13","2564"
"A2OFN0A5CPLH57","cs_wg_v3_pilot3","3WOKGM4L71HS0G1WOVLS9DMDXUFO0N","55","0","MACHINE","1","5","1","1210","machine","1","2017-03-23 20:01:14","2565"
"A2O5OJXCUFQ3FV","cs_wg_v3_pilot3","3TYCR1GOTCKHWG4PFXISNVL5KWTLZV","55","0","UMBRELLA","2","5","1","2411","umbrela","2","2017-03-23 20:01:17","2566"
"A1YJTYLITTPI6B","cs_wg_v3_pilot3","3TK8OJTYM1MQEHED6SMWJ6HT1VOPVX","80","0","STRUCTURE","8","5","0","616","structure","8","2017-03-23 20:01:17","2567"
"A1Z3NTRGIUZ240","cs_wg_v3_pilot3","31QTRG6Q2TE7IB9IB39GQ5LNJCQPY6","40","0","TRAFFIC","10","5","0","1729","Traffic","10","2017-03-23 20:01:21","2568"
"A1FDPHX8S6G1WM","cs_wg_v3_pilot3","3VNXK88KKCJ5MUY6P3QZXGHEWR6V98","38","0","MACHINE","2","5","0","2002","machine","2","2017-03-23 20:01:21","2569"
"A20HITED8LB7O5","cs_wg_v3_pilot3","3TVRFO09GKGSRL4AEFU7QA5UCWVLXY","62","0","HELICOPTER","2","5","1","1417","helicopter","2","2017-03-23 20:01:24","2570"
"A2OFN0A5CPLH57","cs_wg_v3_pilot3","3WOKGM4L71HS0G1WOVLS9DMDXUFO0N","56","0","MACHINE","1","5","1","1774","machine","1","2017-03-23 20:01:26","2571"
"A1YJTYLITTPI6B","cs_wg_v3_pilot3","3TK8OJTYM1MQEHED6SMWJ6HT1VOPVX","81","0","BOOKSHELF","9","5","0","2355","bookshelf","9","2017-03-23 20:01:28","2573"
"A2O5OJXCUFQ3FV","cs_wg_v3_pilot3","3TYCR1GOTCKHWG4PFXISNVL5KWTLZV","56","0","MACHINE","9","5","0","3913","machine","9","2017-03-23 20:01:28","2572"
"A1Z3NTRGIUZ240","cs_wg_v3_pilot3","31QTRG6Q2TE7IB9IB39GQ5LNJCQPY6","41","0","FOOTBALL","10","5","0","1809","Football","10","2017-03-23 20:01:28","2574"
"A64JDJKE9DYCT","cs_wg_v3_pilot3","3GLB5JMZFXWY7NLSCOWFJBXU0XXGDL","9","0","BASKET","1","5","1","3863","BASKET","1","2017-03-23 20:01:30","2575"
"A1FDPHX8S6G1WM","cs_wg_v3_pilot3","3VNXK88KKCJ5MUY6P3QZXGHEWR6V98","39","0","STOMACH","8","5","0","2281","stomach","8","2017-03-23 20:01:33","2576"
"A1YJTYLITTPI6B","cs_wg_v3_pilot3","3TK8OJTYM1MQEHED6SMWJ6HT1VOPVX","82","0","COMMUNITY","2","5","1","878","community","2","2017-03-23 20:01:35","2577"
"A2O5OJXCUFQ3FV","cs_wg_v3_pilot3","3TYCR1GOTCKHWG4PFXISNVL5KWTLZV","57","0","FOOTBALL","8","5","0","1152","football","8","2017-03-23 20:01:35","2578"
"A2OFN0A5CPLH57","cs_wg_v3_pilot3","3WOKGM4L71HS0G1WOVLS9DMDXUFO0N","57","0","TRAFFIC","0","5","1","846","traffic","0","2017-03-23 20:01:37","2579"
"A1Z3NTRGIUZ240","cs_wg_v3_pilot3","31QTRG6Q2TE7IB9IB39GQ5LNJCQPY6","42","0","MACHINE","0","5","1","2839","Machine","0","2017-03-23 20:01:37","2580"
"A20HITED8LB7O5","cs_wg_v3_pilot3","3TVRFO09GKGSRL4AEFU7QA5UCWVLXY","63","0","COMMUNITY","0","5","1","4454","community ","0","2017-03-23 20:01:39","2581"
"A14CPQKP46VJQK","cs_wg_v3_pilot3","3ATTHHXXWAPQ1KW4TCXUYUD2VS1IXH","0","0","STRUCTURE","0","5","0","11018","structure","5","2017-03-23 20:01:39","2582"
"A1YJTYLITTPI6B","cs_wg_v3_pilot3","3TK8OJTYM1MQEHED6SMWJ6HT1VOPVX","83","0","STOMACH","2","5","1","1031","stomach","2","2017-03-23 20:01:43","2583"
"A2O5OJXCUFQ3FV","cs_wg_v3_pilot3","3TYCR1GOTCKHWG4PFXISNVL5KWTLZV","58","0","COMMUNITY","9","5","0","1495","community","9","2017-03-23 20:01:43","2584"
"A2OFN0A5CPLH57","cs_wg_v3_pilot3","3WOKGM4L71HS0G1WOVLS9DMDXUFO0N","58","0","STRUCTURE","2","5","0","1290","structure","2","2017-03-23 20:01:46","2585"
"A64JDJKE9DYCT","cs_wg_v3_pilot3","3GLB5JMZFXWY7NLSCOWFJBXU0XXGDL","10","0","HELICOPTER","0","5","1","3460","HELICOPTER","0","2017-03-23 20:01:47","2586"
"A20HITED8LB7O5","cs_wg_v3_pilot3","3TVRFO09GKGSRL4AEFU7QA5UCWVLXY","64","0","FOOTBALL","9","5","0","1198","football","9","2017-03-23 20:01:47","2587"
"A1Z3NTRGIUZ240","cs_wg_v3_pilot3","31QTRG6Q2TE7IB9IB39GQ5LNJCQPY6","43","0","HELICOPTER","0","5","1","2948","Helicopter","0","2017-03-23 20:01:49","2588"
"A1FDPHX8S6G1WM","cs_wg_v3_pilot3","3VNXK88KKCJ5MUY6P3QZXGHEWR6V98","40","0","HELICOPTER","10","5","0","5191","helicopter","10","2017-03-23 20:01:50","2589"
"A1YJTYLITTPI6B","cs_wg_v3_pilot3","3TK8OJTYM1MQEHED6SMWJ6HT1VOPVX","84","0","BASKET","9","5","0","575","basket","9","2017-03-23 20:01:50","2590"
"A2O5OJXCUFQ3FV","cs_wg_v3_pilot3","3TYCR1GOTCKHWG4PFXISNVL5KWTLZV","59","0","BOOKSHELF","0","5","1","2982","bookshelf","0","2017-03-23 20:01:55","2591"
"AO0CQ0WT4FT7T","cs_wg_v3_pilot3","36WLNQG78ZB78CRHSXFLOIOIKW6EBV","23","0","MACHINE","1","5","0","1062","MACHINE","1","2017-03-23 20:01:56","2592"
"A2OFN0A5CPLH57","cs_wg_v3_pilot3","3WOKGM4L71HS0G1WOVLS9DMDXUFO0N","59","0","STRUCTURE","2","5","1","861","structure","2","2017-03-23 20:01:56","2593"
"A20HITED8LB7O5","cs_wg_v3_pilot3","3TVRFO09GKGSRL4AEFU7QA5UCWVLXY","65","0","STOMACH","1","5","1","1450","stomach","1","2017-03-23 20:01:57","2594"
"A1YJTYLITTPI6B","cs_wg_v3_pilot3","3TK8OJTYM1MQEHED6SMWJ6HT1VOPVX","85","0","STOMACH","2","5","1","973","stomach","2","2017-03-23 20:01:58","2595"
"A1Z3NTRGIUZ240","cs_wg_v3_pilot3","31QTRG6Q2TE7IB9IB39GQ5LNJCQPY6","44","0","TRAFFIC","10","5","0","2129","Traffic","10","2017-03-23 20:01:59","2596"
"AO0CQ0WT4FT7T","cs_wg_v3_pilot3","36WLNQG78ZB78CRHSXFLOIOIKW6EBV","24","0","STRUCTURE","10","5","0","1141","STRUCTURE","10","2017-03-23 20:02:04","2597"
"A2O5OJXCUFQ3FV","cs_wg_v3_pilot3","3TYCR1GOTCKHWG4PFXISNVL5KWTLZV","60","0","HELICOPTER","8","5","0","1500","helicopter","8","2017-03-23 20:02:04","2598"
"A1FDPHX8S6G1WM","cs_wg_v3_pilot3","3VNXK88KKCJ5MUY6P3QZXGHEWR6V98","41","0","KEYBOARD","0","5","0","4056","keyboard","0","2017-03-23 20:02:05","2599"
"A64JDJKE9DYCT","cs_wg_v3_pilot3","3GLB5JMZFXWY7NLSCOWFJBXU0XXGDL","11","0","KEYBOARD","10","5","1","3838","KEYBOARD","10","2017-03-23 20:02:06","2600"
"A1YJTYLITTPI6B","cs_wg_v3_pilot3","3TK8OJTYM1MQEHED6SMWJ6HT1VOPVX","86","0","UMBRELLA","0","5","1","934","umbrella","0","2017-03-23 20:02:06","2601"
"A1Z3NTRGIUZ240","cs_wg_v3_pilot3","31QTRG6Q2TE7IB9IB39GQ5LNJCQPY6","45","0","TRAFFIC","10","5","0","947","Traffic","10","2017-03-23 20:02:08","2602"
"A2OFN0A5CPLH57","cs_wg_v3_pilot3","3WOKGM4L71HS0G1WOVLS9DMDXUFO0N","60","0","COMMUNITY","10","5","0","1433","community","10","2017-03-23 20:02:09","2603"
"AO0CQ0WT4FT7T","cs_wg_v3_pilot3","36WLNQG78ZB78CRHSXFLOIOIKW6EBV","25","0","BASKET","2","5","0","909","BASKET","2","2017-03-23 20:02:10","2604"
"A2O5OJXCUFQ3FV","cs_wg_v3_pilot3","3TYCR1GOTCKHWG4PFXISNVL5KWTLZV","61","0","MACHINE","9","5","0","1455","machine","9","2017-03-23 20:02:12","2605"
"A20HITED8LB7O5","cs_wg_v3_pilot3","3TVRFO09GKGSRL4AEFU7QA5UCWVLXY","66","0","KEYBOARD","9","5","0","7642","keyboard","9","2017-03-23 20:02:13","2606"
"A1YJTYLITTPI6B","cs_wg_v3_pilot3","3TK8OJTYM1MQEHED6SMWJ6HT1VOPVX","87","0","COMMUNITY","2","5","1","984","community","2","2017-03-23 20:02:14","2607"
"A14CPQKP46VJQK","cs_wg_v3_pilot3","3ATTHHXXWAPQ1KW4TCXUYUD2VS1IXH","1","0","COMMUNITY","10","5","0","4650","community","10","2017-03-23 20:02:17","2608"
"A1Z3NTRGIUZ240","cs_wg_v3_pilot3","31QTRG6Q2TE7IB9IB39GQ5LNJCQPY6","46","0","LADDER","1","5","1","1483","Ladder","1","2017-03-23 20:02:17","2609"
"AO0CQ0WT4FT7T","cs_wg_v3_pilot3","36WLNQG78ZB78CRHSXFLOIOIKW6EBV","26","0","KEYBOARD","1","5","1","1321","KEYBOARD","1","2017-03-23 20:02:18","2610"
"A1FDPHX8S6G1WM","cs_wg_v3_pilot3","3VNXK88KKCJ5MUY6P3QZXGHEWR6V98","42","0","BOOKSHELF","1","5","0","1900","bookshelf","1","2017-03-23 20:02:18","2611"
"A2OFN0A5CPLH57","cs_wg_v3_pilot3","3WOKGM4L71HS0G1WOVLS9DMDXUFO0N","61","0","KEYBOARD","2","5","0","1738","keyboard","2","2017-03-23 20:02:20","2612"
"A2O5OJXCUFQ3FV","cs_wg_v3_pilot3","3TYCR1GOTCKHWG4PFXISNVL5KWTLZV","62","0","UMBRELLA","2","5","1","1861","umbrella","2","2017-03-23 20:02:21","2613"
"A1YJTYLITTPI6B","cs_wg_v3_pilot3","3TK8OJTYM1MQEHED6SMWJ6HT1VOPVX","88","0","WEDDING","10","5","0","566","wedding","10","2017-03-23 20:02:21","2614"
"A64JDJKE9DYCT","cs_wg_v3_pilot3","3GLB5JMZFXWY7NLSCOWFJBXU0XXGDL","12","0","FOOTBALL","0","5","1","3612","FOOTBALL","0","2017-03-23 20:02:23","2615"
"AO0CQ0WT4FT7T","cs_wg_v3_pilot3","36WLNQG78ZB78CRHSXFLOIOIKW6EBV","27","0","DOORWAY","0","5","1","707","DOORWAY","0","2017-03-23 20:02:24","2616"
"A2OFN0A5CPLH57","cs_wg_v3_pilot3","3WOKGM4L71HS0G1WOVLS9DMDXUFO0N","62","0","HELICOPTER","9","5","0","911","helicopter","9","2017-03-23 20:02:29","2617"
"A1YJTYLITTPI6B","cs_wg_v3_pilot3","3TK8OJTYM1MQEHED6SMWJ6HT1VOPVX","89","0","KEYBOARD","10","5","0","572","keyboard","10","2017-03-23 20:02:29","2618"
"A1Z3NTRGIUZ240","cs_wg_v3_pilot3","31QTRG6Q2TE7IB9IB39GQ5LNJCQPY6","47","0","STRUCTURE","0","5","1","1203","Structure","0","2017-03-23 20:02:30","2619"
"AO0CQ0WT4FT7T","cs_wg_v3_pilot3","36WLNQG78ZB78CRHSXFLOIOIKW6EBV","28","0","FOOTBALL","10","5","0","963","FOOTBALL","10","2017-03-23 20:02:31","2620"
"A2O5OJXCUFQ3FV","cs_wg_v3_pilot3","3TYCR1GOTCKHWG4PFXISNVL5KWTLZV","63","0","KEYBOARD","10","5","0","2325","keyboard","10","2017-03-23 20:02:33","2621"
"A1FDPHX8S6G1WM","cs_wg_v3_pilot3","3VNXK88KKCJ5MUY6P3QZXGHEWR6V98","43","0","FOOTBALL","1","5","1","1931","football","1","2017-03-23 20:02:35","2622"
"A1Z3NTRGIUZ240","cs_wg_v3_pilot3","31QTRG6Q2TE7IB9IB39GQ5LNJCQPY6","48","0","TRAFFIC","10","5","0","990","Traffic","10","2017-03-23 20:02:37","2623"
"A2OFN0A5CPLH57","cs_wg_v3_pilot3","3WOKGM4L71HS0G1WOVLS9DMDXUFO0N","63","0","WEDDING","0","5","1","1184","wedding","0","2017-03-23 20:02:38","2624"
"AO0CQ0WT4FT7T","cs_wg_v3_pilot3","36WLNQG78ZB78CRHSXFLOIOIKW6EBV","29","0","TRAFFIC","8","5","0","1344","TRAFFIC","8","2017-03-23 20:02:39","2625"
"A1YJTYLITTPI6B","cs_wg_v3_pilot3","3TK8OJTYM1MQEHED6SMWJ6HT1VOPVX","90","0","COMMUNITY","2","5","1","1658","community","2","2017-03-23 20:02:40","2626"
"A2O5OJXCUFQ3FV","cs_wg_v3_pilot3","3TYCR1GOTCKHWG4PFXISNVL5KWTLZV","64","0","FOOTBALL","8","5","0","1220","football","8","2017-03-23 20:02:41","2627"
"A64JDJKE9DYCT","cs_wg_v3_pilot3","3GLB5JMZFXWY7NLSCOWFJBXU0XXGDL","13","0","COMMUNITY","2","5","1","2735","COMMUNITY","2","2017-03-23 20:02:44","2628"
"A2OFN0A5CPLH57","cs_wg_v3_pilot3","3WOKGM4L71HS0G1WOVLS9DMDXUFO0N","64","0","FOOTBALL","0","5","1","829","football","0","2017-03-23 20:02:47","2629"
"AO0CQ0WT4FT7T","cs_wg_v3_pilot3","36WLNQG78ZB78CRHSXFLOIOIKW6EBV","30","0","WEDDING","10","5","1","610","WEDDING","10","2017-03-23 20:02:47","2630"
"A14CPQKP46VJQK","cs_wg_v3_pilot3","3ATTHHXXWAPQ1KW4TCXUYUD2VS1IXH","2","0","STRUCTURE","0","5","1","11053","structure","5","2017-03-23 20:02:48","2631"
"A1FDPHX8S6G1WM","cs_wg_v3_pilot3","3VNXK88KKCJ5MUY6P3QZXGHEWR6V98","44","0","STRUCTURE","10","5","0","1755","structure","10","2017-03-23 20:02:48","2632"
"A1YJTYLITTPI6B","cs_wg_v3_pilot3","3TK8OJTYM1MQEHED6SMWJ6HT1VOPVX","91","0","LADDER","1","5","1","1061","ladder","1","2017-03-23 20:02:49","2633"
"A1Z3NTRGIUZ240","cs_wg_v3_pilot3","31QTRG6Q2TE7IB9IB39GQ5LNJCQPY6","49","0","COMMUNITY","9","5","1","1260","Community","9","2017-03-23 20:02:49","2634"
"A2O5OJXCUFQ3FV","cs_wg_v3_pilot3","3TYCR1GOTCKHWG4PFXISNVL5KWTLZV","65","0","BASKET","1","5","1","2386","basket","1","2017-03-23 20:02:49","2635"
"AO0CQ0WT4FT7T","cs_wg_v3_pilot3","36WLNQG78ZB78CRHSXFLOIOIKW6EBV","31","0","HELICOPTER","2","5","1","826","HELICOPTER","2","2017-03-23 20:02:53","2636"
"A2OFN0A5CPLH57","cs_wg_v3_pilot3","3WOKGM4L71HS0G1WOVLS9DMDXUFO0N","65","0","MACHINE","1","5","1","1116","machine","1","2017-03-23 20:02:55","2637"
"A2O5OJXCUFQ3FV","cs_wg_v3_pilot3","3TYCR1GOTCKHWG4PFXISNVL5KWTLZV","66","0","STRUCTURE","0","5","0","1839","structure","0","2017-03-23 20:02:59","2638"
"A1YJTYLITTPI6B","cs_wg_v3_pilot3","3TK8OJTYM1MQEHED6SMWJ6HT1VOPVX","92","0","BOOKSHELF","9","5","0","1736","bookshelf","9","2017-03-23 20:02:59","2639"
"AO0CQ0WT4FT7T","cs_wg_v3_pilot3","36WLNQG78ZB78CRHSXFLOIOIKW6EBV","32","0","STRUCTURE","10","5","0","609","STRUCTURE","10","2017-03-23 20:03:00","2640"
"A1Z3NTRGIUZ240","cs_wg_v3_pilot3","31QTRG6Q2TE7IB9IB39GQ5LNJCQPY6","50","0","HELICOPTER","0","5","1","2376","Helicopter","0","2017-03-23 20:03:00","2641"
"A1FDPHX8S6G1WM","cs_wg_v3_pilot3","3VNXK88KKCJ5MUY6P3QZXGHEWR6V98","45","0","UMBRELLA","0","5","1","2056","umbrella","0","2017-03-23 20:03:00","2642"
"A64JDJKE9DYCT","cs_wg_v3_pilot3","3GLB5JMZFXWY7NLSCOWFJBXU0XXGDL","14","0","BOOKSHELF","8","5","1","2709","BOOKSHELF","8","2017-03-23 20:03:03","2643"
"A2OFN0A5CPLH57","cs_wg_v3_pilot3","3WOKGM4L71HS0G1WOVLS9DMDXUFO0N","66","0","STOMACH","8","5","0","2208","stomach","8","2017-03-23 20:03:05","2644"
"AO0CQ0WT4FT7T","cs_wg_v3_pilot3","36WLNQG78ZB78CRHSXFLOIOIKW6EBV","33","0","HELICOPTER","2","5","1","774","HELICOPTER","2","2017-03-23 20:03:06","2645"
"A1YJTYLITTPI6B","cs_wg_v3_pilot3","3TK8OJTYM1MQEHED6SMWJ6HT1VOPVX","93","0","BASKET","9","5","0","1043","basket","9","2017-03-23 20:03:08","2646"
"A2O5OJXCUFQ3FV","cs_wg_v3_pilot3","3TYCR1GOTCKHWG4PFXISNVL5KWTLZV","67","0","UMBRELLA","2","5","1","1306","umbrella","2","2017-03-23 20:03:11","2647"
"A1FDPHX8S6G1WM","cs_wg_v3_pilot3","3VNXK88KKCJ5MUY6P3QZXGHEWR6V98","46","0","WEDDING","10","5","0","1763","wedding","10","2017-03-23 20:03:12","2648"
"AO0CQ0WT4FT7T","cs_wg_v3_pilot3","36WLNQG78ZB78CRHSXFLOIOIKW6EBV","34","0","UMBRELLA","0","5","1","633","UMBRELLA","0","2017-03-23 20:03:12","2649"
"A2OFN0A5CPLH57","cs_wg_v3_pilot3","3WOKGM4L71HS0G1WOVLS9DMDXUFO0N","67","0","WEDDING","0","5","1","1078","wedding","0","2017-03-23 20:03:14","2650"
"A1Z3NTRGIUZ240","cs_wg_v3_pilot3","31QTRG6Q2TE7IB9IB39GQ5LNJCQPY6","51","0","STOMACH","8","5","0","4643","Stomach","8","2017-03-23 20:03:15","2651"
"A1YJTYLITTPI6B","cs_wg_v3_pilot3","3TK8OJTYM1MQEHED6SMWJ6HT1VOPVX","94","0","DOORWAY","1","5","1","1071","doorway","1","2017-03-23 20:03:16","2652"
"AO0CQ0WT4FT7T","cs_wg_v3_pilot3","36WLNQG78ZB78CRHSXFLOIOIKW6EBV","35","0","TRAFFIC","8","5","0","631","TRAFFIC","8","2017-03-23 20:03:18","2653"
"A64JDJKE9DYCT","cs_wg_v3_pilot3","3GLB5JMZFXWY7NLSCOWFJBXU0XXGDL","15","0","BOOKSHELF","8","5","0","1986","BOOKSHELF","8","2017-03-23 20:03:19","2654"
"A2O5OJXCUFQ3FV","cs_wg_v3_pilot3","3TYCR1GOTCKHWG4PFXISNVL5KWTLZV","68","0","STOMACH","10","5","1","1874","stomach","10","2017-03-23 20:03:20","2655"
"A2OFN0A5CPLH57","cs_wg_v3_pilot3","3WOKGM4L71HS0G1WOVLS9DMDXUFO0N","68","0","BOOKSHELF","10","5","0","868","bookshelf","10","2017-03-23 20:03:23","2656"
"AO0CQ0WT4FT7T","cs_wg_v3_pilot3","36WLNQG78ZB78CRHSXFLOIOIKW6EBV","36","0","WEDDING","10","5","0","661","WEDDING","10","2017-03-23 20:03:25","2657"
"A1YJTYLITTPI6B","cs_wg_v3_pilot3","3TK8OJTYM1MQEHED6SMWJ6HT1VOPVX","95","0","HELICOPTER","8","5","0","876","helicopter","8","2017-03-23 20:03:28","2658"
"A2OFN0A5CPLH57","cs_wg_v3_pilot3","3WOKGM4L71HS0G1WOVLS9DMDXUFO0N","69","0","LADDER","1","5","1","1073","ladder","1","2017-03-23 20:03:31","2659"
"A1YJTYLITTPI6B","cs_wg_v3_pilot3","3TK8OJTYM1MQEHED6SMWJ6HT1VOPVX","96","0","FOOTBALL","0","5","1","1087","football","0","2017-03-23 20:03:33","2660"
"A1Z3NTRGIUZ240","cs_wg_v3_pilot3","31QTRG6Q2TE7IB9IB39GQ5LNJCQPY6","52","0","BOOKSHELF","2","5","0","1831","Bookshelf","2","2017-03-23 20:03:33","2661"
"A14CPQKP46VJQK","cs_wg_v3_pilot3","3ATTHHXXWAPQ1KW4TCXUYUD2VS1IXH","3","0","LADDER","9","5","0","17620","LADDER","5","2017-03-23 20:03:34","2662"
"A2O5OJXCUFQ3FV","cs_wg_v3_pilot3","3TYCR1GOTCKHWG4PFXISNVL5KWTLZV","69","0","HELICOPTER","8","5","0","1895","helicopter","8","2017-03-23 20:03:36","2663"
"A1FDPHX8S6G1WM","cs_wg_v3_pilot3","3VNXK88KKCJ5MUY6P3QZXGHEWR6V98","47","0","KEYBOARD","0","5","1","3566","keyboard","0","2017-03-23 20:03:37","2664"
"A64JDJKE9DYCT","cs_wg_v3_pilot3","3GLB5JMZFXWY7NLSCOWFJBXU0XXGDL","16","0","BASKET","1","5","1","3654","BASKET","1","2017-03-23 20:03:37","2665"
"A2OFN0A5CPLH57","cs_wg_v3_pilot3","3WOKGM4L71HS0G1WOVLS9DMDXUFO0N","70","0","BASKET","9","5","0","1767","basket","9","2017-03-23 20:03:41","2666"
"A1YJTYLITTPI6B","cs_wg_v3_pilot3","3TK8OJTYM1MQEHED6SMWJ6HT1VOPVX","97","0","COMMUNITY","2","5","1","1069","community","2","2017-03-23 20:03:42","2667"
"A1Z3NTRGIUZ240","cs_wg_v3_pilot3","31QTRG6Q2TE7IB9IB39GQ5LNJCQPY6","53","0","COMMUNITY","9","5","0","1819","Community","9","2017-03-23 20:03:44","2668"
"A2O5OJXCUFQ3FV","cs_wg_v3_pilot3","3TYCR1GOTCKHWG4PFXISNVL5KWTLZV","70","0","COMMUNITY","9","5","0","1380","community","9","2017-03-23 20:03:45","2669"
"A2OFN0A5CPLH57","cs_wg_v3_pilot3","3WOKGM4L71HS0G1WOVLS9DMDXUFO0N","71","0","TRAFFIC","0","5","1","844","traffic","0","2017-03-23 20:03:50","2670"
"A1YJTYLITTPI6B","cs_wg_v3_pilot3","3TK8OJTYM1MQEHED6SMWJ6HT1VOPVX","98","0","UMBRELLA","0","5","1","1261","umbrella","0","2017-03-23 20:03:51","2671"
"A64JDJKE9DYCT","cs_wg_v3_pilot3","3GLB5JMZFXWY7NLSCOWFJBXU0XXGDL","17","0","HELICOPTER","0","5","1","3037","HELICOPTER","0","2017-03-23 20:03:51","2672"
"A1Z3NTRGIUZ240","cs_wg_v3_pilot3","31QTRG6Q2TE7IB9IB39GQ5LNJCQPY6","54","0","STOMACH","8","5","0","1930","Stomach","8","2017-03-23 20:03:53","2673"
"AO0CQ0WT4FT7T","cs_wg_v3_pilot3","36WLNQG78ZB78CRHSXFLOIOIKW6EBV","37","0","STRUCTURE","10","5","0","22319","STRUCTURE","10","2017-03-23 20:03:53","2674"
"A1FDPHX8S6G1WM","cs_wg_v3_pilot3","3VNXK88KKCJ5MUY6P3QZXGHEWR6V98","48","0","COMMUNITY","8","5","0","3936","community","8","2017-03-23 20:03:56","2675"
"A2O5OJXCUFQ3FV","cs_wg_v3_pilot3","3TYCR1GOTCKHWG4PFXISNVL5KWTLZV","71","0","HELICOPTER","8","5","0","3016","helicopter ","8","2017-03-23 20:03:56","2676"
"A2OFN0A5CPLH57","cs_wg_v3_pilot3","3WOKGM4L71HS0G1WOVLS9DMDXUFO0N","72","0","BASKET","9","5","0","799","basket","9","2017-03-23 20:03:59","2677"
"A1YJTYLITTPI6B","cs_wg_v3_pilot3","3TK8OJTYM1MQEHED6SMWJ6HT1VOPVX","99","0","COMMUNITY","2","5","1","1009","community","2","2017-03-23 20:03:59","2678"
"AO0CQ0WT4FT7T","cs_wg_v3_pilot3","36WLNQG78ZB78CRHSXFLOIOIKW6EBV","38","0","LADDER","9","5","0","1462","LADDER","9","2017-03-23 20:04:00","2679"
"A2XUADP5L61HQ5","cs_wg_v3_pilot3","3I3WADAZ9Q5RVNNXL1R4Q8I4E2QO58","0","0","STRUCTURE","10","5","0","3433","structure","10","2017-03-23 20:04:01","2680"
"A14CPQKP46VJQK","cs_wg_v3_pilot3","3ATTHHXXWAPQ1KW4TCXUYUD2VS1IXH","4","0","UMBRELLA","9","5","1","3638","UMBRELLA","5","2017-03-23 20:04:01","2681"
"A1Z3NTRGIUZ240","cs_wg_v3_pilot3","31QTRG6Q2TE7IB9IB39GQ5LNJCQPY6","55","0","DOORWAY","1","5","1","2270","Doorway","1","2017-03-23 20:04:02","2682"
"A2O5OJXCUFQ3FV","cs_wg_v3_pilot3","3TYCR1GOTCKHWG4PFXISNVL5KWTLZV","72","0","BOOKSHELF","0","5","1","1797","bookshelf","0","2017-03-23 20:04:05","2683"
"A1YJTYLITTPI6B","cs_wg_v3_pilot3","3TK8OJTYM1MQEHED6SMWJ6HT1VOPVX","100","0","STOMACH","2","5","1","1004","stomach","2","2017-03-23 20:04:06","2684"
"AO0CQ0WT4FT7T","cs_wg_v3_pilot3","36WLNQG78ZB78CRHSXFLOIOIKW6EBV","39","0","KEYBOARD","1","5","1","561","KEYBOARD","1","2017-03-23 20:04:07","2685"
"A2OFN0A5CPLH57","cs_wg_v3_pilot3","3WOKGM4L71HS0G1WOVLS9DMDXUFO0N","73","0","UMBRELLA","8","5","0","903","umbrella","8","2017-03-23 20:04:08","2686"
"A1FDPHX8S6G1WM","cs_wg_v3_pilot3","3VNXK88KKCJ5MUY6P3QZXGHEWR6V98","49","0","BASKET","9","5","1","3493","basket","9","2017-03-23 20:04:09","2687"
"A64JDJKE9DYCT","cs_wg_v3_pilot3","3GLB5JMZFXWY7NLSCOWFJBXU0XXGDL","18","0","STRUCTURE","10","5","0","2604","STRUCTURE","10","2017-03-23 20:04:11","2688"
"A1Z3NTRGIUZ240","cs_wg_v3_pilot3","31QTRG6Q2TE7IB9IB39GQ5LNJCQPY6","56","0","KEYBOARD","9","5","1","1597","Keyboard","9","2017-03-23 20:04:11","2689"
"AO0CQ0WT4FT7T","cs_wg_v3_pilot3","36WLNQG78ZB78CRHSXFLOIOIKW6EBV","40","0","STOMACH","8","5","1","602","STOMACH","8","2017-03-23 20:04:12","2690"
"A2O5OJXCUFQ3FV","cs_wg_v3_pilot3","3TYCR1GOTCKHWG4PFXISNVL5KWTLZV","73","0","COMMUNITY","9","5","0","1592","community","9","2017-03-23 20:04:14","2691"
"A1YJTYLITTPI6B","cs_wg_v3_pilot3","3TK8OJTYM1MQEHED6SMWJ6HT1VOPVX","101","0","UMBRELLA","0","5","1","1002","umbrella","0","2017-03-23 20:04:15","2692"
"A2OFN0A5CPLH57","cs_wg_v3_pilot3","3WOKGM4L71HS0G1WOVLS9DMDXUFO0N","74","0","KEYBOARD","2","5","1","1151","keyboard","2","2017-03-23 20:04:18","2693"
"AO0CQ0WT4FT7T","cs_wg_v3_pilot3","36WLNQG78ZB78CRHSXFLOIOIKW6EBV","41","0","BOOKSHELF","9","5","1","555","BOOKSHELF","9","2017-03-23 20:04:19","2694"
"A1Z3NTRGIUZ240","cs_wg_v3_pilot3","31QTRG6Q2TE7IB9IB39GQ5LNJCQPY6","57","0","MACHINE","0","5","1","1203","Machine","0","2017-03-23 20:04:21","2695"
"A1YJTYLITTPI6B","cs_wg_v3_pilot3","3TK8OJTYM1MQEHED6SMWJ6HT1VOPVX","102","0","FOOTBALL","0","5","1","898","football","0","2017-03-23 20:04:22","2696"
"A2XUADP5L61HQ5","cs_wg_v3_pilot3","3I3WADAZ9Q5RVNNXL1R4Q8I4E2QO58","1","0","STOMACH","0","5","1","2487","stomach","0","2017-03-23 20:04:23","2697"
"A1FDPHX8S6G1WM","cs_wg_v3_pilot3","3VNXK88KKCJ5MUY6P3QZXGHEWR6V98","50","0","STOMACH","8","5","1","4539","stomach","8","2017-03-23 20:04:24","2698"
"A2O5OJXCUFQ3FV","cs_wg_v3_pilot3","3TYCR1GOTCKHWG4PFXISNVL5KWTLZV","74","0","UMBRELLA","2","5","1","3462","umbrella","2","2017-03-23 20:04:25","2699"
"AO0CQ0WT4FT7T","cs_wg_v3_pilot3","36WLNQG78ZB78CRHSXFLOIOIKW6EBV","42","0","BOOKSHELF","9","5","0","476","BOOKSHELF","9","2017-03-23 20:04:26","2700"
"A2OFN0A5CPLH57","cs_wg_v3_pilot3","3WOKGM4L71HS0G1WOVLS9DMDXUFO0N","75","0","KEYBOARD","2","5","1","861","keyboard","2","2017-03-23 20:04:26","2701"
"A1Z3NTRGIUZ240","cs_wg_v3_pilot3","31QTRG6Q2TE7IB9IB39GQ5LNJCQPY6","58","0","KEYBOARD","9","5","0","1111","Keyboard","9","2017-03-23 20:04:29","2702"
"A64JDJKE9DYCT","cs_wg_v3_pilot3","3GLB5JMZFXWY7NLSCOWFJBXU0XXGDL","19","0","FOOTBALL","0","5","1","2980","FOOTBALL","0","2017-03-23 20:04:30","2703"
"A1YJTYLITTPI6B","cs_wg_v3_pilot3","3TK8OJTYM1MQEHED6SMWJ6HT1VOPVX","103","0","BASKET","9","5","0","540","basket","9","2017-03-23 20:04:30","2704"
"A14CPQKP46VJQK","cs_wg_v3_pilot3","3ATTHHXXWAPQ1KW4TCXUYUD2VS1IXH","5","0","BASKET","8","5","0","7646","BASKET","8","2017-03-23 20:04:32","2705"
"AO0CQ0WT4FT7T","cs_wg_v3_pilot3","36WLNQG78ZB78CRHSXFLOIOIKW6EBV","43","0","LADDER","9","5","0","506","LADDER","9","2017-03-23 20:04:33","2706"
"A2XUADP5L61HQ5","cs_wg_v3_pilot3","3I3WADAZ9Q5RVNNXL1R4Q8I4E2QO58","2","0","STOMACH","0","5","1","2705","stomach","0","2017-03-23 20:04:34","2707"
"A2OFN0A5CPLH57","cs_wg_v3_pilot3","3WOKGM4L71HS0G1WOVLS9DMDXUFO0N","76","0","STRUCTURE","2","5","1","960","structure","2","2017-03-23 20:04:35","2708"
"A2O5OJXCUFQ3FV","cs_wg_v3_pilot3","3TYCR1GOTCKHWG4PFXISNVL5KWTLZV","75","0","BOOKSHELF","0","5","1","1843","bookshelf","0","2017-03-23 20:04:36","2709"
"A1YJTYLITTPI6B","cs_wg_v3_pilot3","3TK8OJTYM1MQEHED6SMWJ6HT1VOPVX","104","0","STRUCTURE","8","5","0","664","structure","8","2017-03-23 20:04:38","2710"
"AO0CQ0WT4FT7T","cs_wg_v3_pilot3","36WLNQG78ZB78CRHSXFLOIOIKW6EBV","44","0","MACHINE","1","5","0","714","MACHINE","1","2017-03-23 20:04:39","2711"
"A1Z3NTRGIUZ240","cs_wg_v3_pilot3","31QTRG6Q2TE7IB9IB39GQ5LNJCQPY6","59","0","COMMUNITY","9","5","0","1458","Community","9","2017-03-23 20:04:40","2712"
"A2OFN0A5CPLH57","cs_wg_v3_pilot3","3WOKGM4L71HS0G1WOVLS9DMDXUFO0N","77","0","KEYBOARD","2","5","1","785","keyboard","2","2017-03-23 20:04:43","2713"
"A1YJTYLITTPI6B","cs_wg_v3_pilot3","3TK8OJTYM1MQEHED6SMWJ6HT1VOPVX","105","0","KEYBOARD","10","5","0","561","keyboard","10","2017-03-23 20:04:46","2714"
"A2O5OJXCUFQ3FV","cs_wg_v3_pilot3","3TYCR1GOTCKHWG4PFXISNVL5KWTLZV","76","0","FOOTBALL","8","5","0","2996","football","8","2017-03-23 20:04:46","2715"
"A1FDPHX8S6G1WM","cs_wg_v3_pilot3","3VNXK88KKCJ5MUY6P3QZXGHEWR6V98","51","0","FOOTBALL","1","5","1","10823","football","1","2017-03-23 20:04:46","2716"
"A64JDJKE9DYCT","cs_wg_v3_pilot3","3GLB5JMZFXWY7NLSCOWFJBXU0XXGDL","20","0","STOMACH","2","5","1","1694","STOMACH","2","2017-03-23 20:04:47","2717"
"AO0CQ0WT4FT7T","cs_wg_v3_pilot3","36WLNQG78ZB78CRHSXFLOIOIKW6EBV","45","0","HELICOPTER","2","5","1","770","HELICOPTER","2","2017-03-23 20:04:49","2718"
"A2OFN0A5CPLH57","cs_wg_v3_pilot3","3WOKGM4L71HS0G1WOVLS9DMDXUFO0N","78","0","MACHINE","1","5","1","1279","machine","1","2017-03-23 20:04:53","2719"
"A1Z3NTRGIUZ240","cs_wg_v3_pilot3","31QTRG6Q2TE7IB9IB39GQ5LNJCQPY6","60","0","BOOKSHELF","2","5","1","5067","Bookshelf","2","2017-03-23 20:04:54","2720"
"A2XUADP5L61HQ5","cs_wg_v3_pilot3","3I3WADAZ9Q5RVNNXL1R4Q8I4E2QO58","3","0","WEDDING","8","5","0","2494","wedding","8","2017-03-23 20:04:54","2721"
"A2O5OJXCUFQ3FV","cs_wg_v3_pilot3","3TYCR1GOTCKHWG4PFXISNVL5KWTLZV","77","0","BOOKSHELF","0","5","1","1458","bookshelf","0","2017-03-23 20:04:54","2722"
"AO0CQ0WT4FT7T","cs_wg_v3_pilot3","36WLNQG78ZB78CRHSXFLOIOIKW6EBV","46","0","UMBRELLA","0","5","1","505","UMBRELLA","0","2017-03-23 20:04:54","2723"
"A1YJTYLITTPI6B","cs_wg_v3_pilot3","3TK8OJTYM1MQEHED6SMWJ6HT1VOPVX","106","0","BOOKSHELF","9","5","0","616","bookshelf","9","2017-03-23 20:04:54","2724"
"A1Z3NTRGIUZ240","cs_wg_v3_pilot3","31QTRG6Q2TE7IB9IB39GQ5LNJCQPY6","61","0","DOORWAY","1","5","1","1248","Doorway","1","2017-03-23 20:05:02","2725"
"AO0CQ0WT4FT7T","cs_wg_v3_pilot3","36WLNQG78ZB78CRHSXFLOIOIKW6EBV","47","0","MACHINE","1","5","1","2607","MACHINE","1","2017-03-23 20:05:03","2726"
"A1YJTYLITTPI6B","cs_wg_v3_pilot3","3TK8OJTYM1MQEHED6SMWJ6HT1VOPVX","107","0","HELICOPTER","8","5","0","576","helicopter","8","2017-03-23 20:05:03","2727"
"A2XUADP5L61HQ5","cs_wg_v3_pilot3","3I3WADAZ9Q5RVNNXL1R4Q8I4E2QO58","4","0","WEDDING","8","5","0","1312","wedding","8","2017-03-23 20:05:03","2728"
"A2OFN0A5CPLH57","cs_wg_v3_pilot3","3WOKGM4L71HS0G1WOVLS9DMDXUFO0N","79","0","HELICOPTER","9","5","0","1398","helicopter","9","2017-03-23 20:05:03","2729"
"A2O5OJXCUFQ3FV","cs_wg_v3_pilot3","3TYCR1GOTCKHWG4PFXISNVL5KWTLZV","78","0","BASKET","1","5","1","1539","basket","1","2017-03-23 20:05:04","2730"
"A64JDJKE9DYCT","cs_wg_v3_pilot3","3GLB5JMZFXWY7NLSCOWFJBXU0XXGDL","21","0","DOORWAY","1","5","1","3800","DOORWAY","1","2017-03-23 20:05:04","2731"
"A1FDPHX8S6G1WM","cs_wg_v3_pilot3","3VNXK88KKCJ5MUY6P3QZXGHEWR6V98","52","0","DOORWAY","2","5","1","2959","doorway","2","2017-03-23 20:05:05","2732"
"A14CPQKP46VJQK","cs_wg_v3_pilot3","3ATTHHXXWAPQ1KW4TCXUYUD2VS1IXH","6","0","HELICOPTER","10","5","0","12100","HELICOPTER","10","2017-03-23 20:05:08","2733"
"AO0CQ0WT4FT7T","cs_wg_v3_pilot3","36WLNQG78ZB78CRHSXFLOIOIKW6EBV","48","0","TRAFFIC","8","5","0","811","TRAFFIC","8","2017-03-23 20:05:09","2734"
"A1YJTYLITTPI6B","cs_wg_v3_pilot3","3TK8OJTYM1MQEHED6SMWJ6HT1VOPVX","108","0","FOOTBALL","0","5","1","1016","football","0","2017-03-23 20:05:11","2735"
"A1Z3NTRGIUZ240","cs_wg_v3_pilot3","31QTRG6Q2TE7IB9IB39GQ5LNJCQPY6","62","0","LADDER","1","5","1","2068","Ladder","1","2017-03-23 20:05:12","2736"
"A2OFN0A5CPLH57","cs_wg_v3_pilot3","3WOKGM4L71HS0G1WOVLS9DMDXUFO0N","80","0","STRUCTURE","2","5","1","1022","structure","2","2017-03-23 20:05:13","2737"
"A2O5OJXCUFQ3FV","cs_wg_v3_pilot3","3TYCR1GOTCKHWG4PFXISNVL5KWTLZV","79","0","STOMACH","10","5","0","1713","stomach","10","2017-03-23 20:05:13","2738"
"A2XUADP5L61HQ5","cs_wg_v3_pilot3","3I3WADAZ9Q5RVNNXL1R4Q8I4E2QO58","5","0","UMBRELLA","9","5","0","1446","umbrella","9","2017-03-23 20:05:14","2739"
"AO0CQ0WT4FT7T","cs_wg_v3_pilot3","36WLNQG78ZB78CRHSXFLOIOIKW6EBV","49","0","BOOKSHELF","9","5","0","549","BOOKSHELF","9","2017-03-23 20:05:16","2740"
"A1FDPHX8S6G1WM","cs_wg_v3_pilot3","3VNXK88KKCJ5MUY6P3QZXGHEWR6V98","53","0","BASKET","9","5","0","2834","basket","9","2017-03-23 20:05:20","2741"
"A1YJTYLITTPI6B","cs_wg_v3_pilot3","3TK8OJTYM1MQEHED6SMWJ6HT1VOPVX","109","0","TRAFFIC","0","5","1","1135","traffic","0","2017-03-23 20:05:21","2742"
"A2OFN0A5CPLH57","cs_wg_v3_pilot3","3WOKGM4L71HS0G1WOVLS9DMDXUFO0N","81","0","WEDDING","0","5","1","825","wedding","0","2017-03-23 20:05:21","2743"
"A2O5OJXCUFQ3FV","cs_wg_v3_pilot3","3TYCR1GOTCKHWG4PFXISNVL5KWTLZV","80","0","FOOTBALL","8","5","0","1026","football","8","2017-03-23 20:05:22","2744"
"A64JDJKE9DYCT","cs_wg_v3_pilot3","3GLB5JMZFXWY7NLSCOWFJBXU0XXGDL","22","0","KEYBOARD","10","5","0","2943","KEYBOARD","10","2017-03-23 20:05:23","2745"
"AO0CQ0WT4FT7T","cs_wg_v3_pilot3","36WLNQG78ZB78CRHSXFLOIOIKW6EBV","50","0","DOORWAY","0","5","0","928","DOORWAY","0","2017-03-23 20:05:23","2746"
"A1Z3NTRGIUZ240","cs_wg_v3_pilot3","31QTRG6Q2TE7IB9IB39GQ5LNJCQPY6","63","0","UMBRELLA","2","5","1","4080","Umbrella","2","2017-03-23 20:05:23","2747"
"A2XUADP5L61HQ5","cs_wg_v3_pilot3","3I3WADAZ9Q5RVNNXL1R4Q8I4E2QO58","6","0","BOOKSHELF","0","5","0","2382","bookshelf","0","2017-03-23 20:05:25","2748"
"A1YJTYLITTPI6B","cs_wg_v3_pilot3","3TK8OJTYM1MQEHED6SMWJ6HT1VOPVX","110","0","KEYBOARD","10","5","0","469","keyboard","10","2017-03-23 20:05:27","2749"
"AO0CQ0WT4FT7T","cs_wg_v3_pilot3","36WLNQG78ZB78CRHSXFLOIOIKW6EBV","51","0","FOOTBALL","10","5","0","888","FOOTBALL","10","2017-03-23 20:05:29","2750"
"A2OFN0A5CPLH57","cs_wg_v3_pilot3","3WOKGM4L71HS0G1WOVLS9DMDXUFO0N","82","0","WEDDING","0","5","1","794","wedding","0","2017-03-23 20:05:30","2751"
"A1FDPHX8S6G1WM","cs_wg_v3_pilot3","3VNXK88KKCJ5MUY6P3QZXGHEWR6V98","54","0","BASKET","9","5","0","1558","basket","9","2017-03-23 20:05:31","2752"
"A14CPQKP46VJQK","cs_wg_v3_pilot3","3ATTHHXXWAPQ1KW4TCXUYUD2VS1IXH","7","0","BASKET","8","5","1","3373","BASKET","8","2017-03-23 20:05:32","2753"
"A1Z3NTRGIUZ240","cs_wg_v3_pilot3","31QTRG6Q2TE7IB9IB39GQ5LNJCQPY6","64","0","KEYBOARD","9","5","0","1124","Keyboard","9","2017-03-23 20:05:33","2754"
"A1YJTYLITTPI6B","cs_wg_v3_pilot3","3TK8OJTYM1MQEHED6SMWJ6HT1VOPVX","111","0","STRUCTURE","8","5","0","869","structure","8","2017-03-23 20:05:36","2755"
"AO0CQ0WT4FT7T","cs_wg_v3_pilot3","36WLNQG78ZB78CRHSXFLOIOIKW6EBV","52","0","KEYBOARD","1","5","1","1361","KEYBOARD","1","2017-03-23 20:05:36","2756"
"A2OFN0A5CPLH57","cs_wg_v3_pilot3","3WOKGM4L71HS0G1WOVLS9DMDXUFO0N","83","0","STOMACH","8","5","0","1083","stomach","8","2017-03-23 20:05:37","2757"
"A2O5OJXCUFQ3FV","cs_wg_v3_pilot3","3TYCR1GOTCKHWG4PFXISNVL5KWTLZV","81","0","STOMACH","10","5","0","4736","stomach","10","2017-03-23 20:05:37","2758"
"A2XUADP5L61HQ5","cs_wg_v3_pilot3","3I3WADAZ9Q5RVNNXL1R4Q8I4E2QO58","7","0","HELICOPTER","1","5","0","1310","helicopter","1","2017-03-23 20:05:38","2759"
"A64JDJKE9DYCT","cs_wg_v3_pilot3","3GLB5JMZFXWY7NLSCOWFJBXU0XXGDL","23","0","BASKET","1","5","1","2753","BASKET","1","2017-03-23 20:05:40","2760"
"A1Z3NTRGIUZ240","cs_wg_v3_pilot3","31QTRG6Q2TE7IB9IB39GQ5LNJCQPY6","65","0","KEYBOARD","9","5","0","819","Keyboard","9","2017-03-23 20:05:41","2761"
"AO0CQ0WT4FT7T","cs_wg_v3_pilot3","36WLNQG78ZB78CRHSXFLOIOIKW6EBV","53","0","TRAFFIC","8","5","0","679","TRAFFIC","8","2017-03-23 20:05:42","2762"
"A1FDPHX8S6G1WM","cs_wg_v3_pilot3","3VNXK88KKCJ5MUY6P3QZXGHEWR6V98","55","0","TRAFFIC","0","5","1","2565","traffic","0","2017-03-23 20:05:45","2763"
"A2OFN0A5CPLH57","cs_wg_v3_pilot3","3WOKGM4L71HS0G1WOVLS9DMDXUFO0N","84","0","BOOKSHELF","10","5","0","827","bookshelf","10","2017-03-23 20:05:45","2764"
"A2O5OJXCUFQ3FV","cs_wg_v3_pilot3","3TYCR1GOTCKHWG4PFXISNVL5KWTLZV","82","0","WEDDING","1","5","1","1625","wedding","2","2017-03-23 20:05:47","2765"
"A2XUADP5L61HQ5","cs_wg_v3_pilot3","3I3WADAZ9Q5RVNNXL1R4Q8I4E2QO58","8","0","FOOTBALL","2","5","0","1132","football","2","2017-03-23 20:05:48","2766"
"AO0CQ0WT4FT7T","cs_wg_v3_pilot3","36WLNQG78ZB78CRHSXFLOIOIKW6EBV","54","0","MACHINE","1","5","1","1169","MACHINE","1","2017-03-23 20:05:49","2767"
"A1Z3NTRGIUZ240","cs_wg_v3_pilot3","31QTRG6Q2TE7IB9IB39GQ5LNJCQPY6","66","0","WEDDING","8","5","0","1854","Wedding","8","2017-03-23 20:05:50","2768"
"A14CPQKP46VJQK","cs_wg_v3_pilot3","3ATTHHXXWAPQ1KW4TCXUYUD2VS1IXH","8","0","HELICOPTER","10","5","1","4980","HELICOPTER","10","2017-03-23 20:05:54","2769"
"A2OFN0A5CPLH57","cs_wg_v3_pilot3","3WOKGM4L71HS0G1WOVLS9DMDXUFO0N","85","0","STRUCTURE","2","5","1","1058","sturcture","2","2017-03-23 20:05:54","2770"
"AO0CQ0WT4FT7T","cs_wg_v3_pilot3","36WLNQG78ZB78CRHSXFLOIOIKW6EBV","55","0","DOORWAY","0","5","0","741","DOORWAY","0","2017-03-23 20:05:55","2771"
"A64JDJKE9DYCT","cs_wg_v3_pilot3","3GLB5JMZFXWY7NLSCOWFJBXU0XXGDL","24","0","STOMACH","2","5","1","2730","STOMACH","2","2017-03-23 20:05:56","2772"
"A1FDPHX8S6G1WM","cs_wg_v3_pilot3","3VNXK88KKCJ5MUY6P3QZXGHEWR6V98","56","0","COMMUNITY","8","5","0","2397","community","8","2017-03-23 20:05:58","2773"
"A2XUADP5L61HQ5","cs_wg_v3_pilot3","3I3WADAZ9Q5RVNNXL1R4Q8I4E2QO58","9","0","KEYBOARD","10","5","0","1268","keyboard","10","2017-03-23 20:05:58","2774"
"A1Z3NTRGIUZ240","cs_wg_v3_pilot3","31QTRG6Q2TE7IB9IB39GQ5LNJCQPY6","67","0","STOMACH","8","5","0","1716","Stomach","8","2017-03-23 20:06:00","2775"
"AO0CQ0WT4FT7T","cs_wg_v3_pilot3","36WLNQG78ZB78CRHSXFLOIOIKW6EBV","56","0","STRUCTURE","10","5","0","1240","STRUCTURE","10","2017-03-23 20:06:02","2776"
"A2O5OJXCUFQ3FV","cs_wg_v3_pilot3","3TYCR1GOTCKHWG4PFXISNVL5KWTLZV","83","0","STOMACH","10","5","0","3415","stomach","10","2017-03-23 20:06:04","2777"
"A2OFN0A5CPLH57","cs_wg_v3_pilot3","3WOKGM4L71HS0G1WOVLS9DMDXUFO0N","86","0","LADDER","1","5","1","1194","ladder","1","2017-03-23 20:06:05","2778"
"A2XUADP5L61HQ5","cs_wg_v3_pilot3","3I3WADAZ9Q5RVNNXL1R4Q8I4E2QO58","10","0","LADDER","10","5","0","1290","ladder","10","2017-03-23 20:06:07","2779"
"A1Z3NTRGIUZ240","cs_wg_v3_pilot3","31QTRG6Q2TE7IB9IB39GQ5LNJCQPY6","68","0","UMBRELLA","2","5","1","1302","Umbrella","2","2017-03-23 20:06:09","2780"
"AO0CQ0WT4FT7T","cs_wg_v3_pilot3","36WLNQG78ZB78CRHSXFLOIOIKW6EBV","57","0","STOMACH","8","5","0","2203","STOMACH","8","2017-03-23 20:06:10","2781"
"A2O5OJXCUFQ3FV","cs_wg_v3_pilot3","3TYCR1GOTCKHWG4PFXISNVL5KWTLZV","84","0","COMMUNITY","9","5","0","1530","community","9","2017-03-23 20:06:12","2782"
"A64JDJKE9DYCT","cs_wg_v3_pilot3","3GLB5JMZFXWY7NLSCOWFJBXU0XXGDL","25","0","BASKET","1","5","1","2516","BASKET","1","2017-03-23 20:06:13","2783"
"A1FDPHX8S6G1WM","cs_wg_v3_pilot3","3VNXK88KKCJ5MUY6P3QZXGHEWR6V98","57","0","KEYBOARD","0","5","1","2027","keyboard","0","2017-03-23 20:06:14","2784"
"A2OFN0A5CPLH57","cs_wg_v3_pilot3","3WOKGM4L71HS0G1WOVLS9DMDXUFO0N","87","0","BASKET","9","5","0","2873","basket","9","2017-03-23 20:06:15","2785"
"A1Z3NTRGIUZ240","cs_wg_v3_pilot3","31QTRG6Q2TE7IB9IB39GQ5LNJCQPY6","69","0","BASKET","10","5","0","978","Basket","10","2017-03-23 20:06:16","2786"
"AO0CQ0WT4FT7T","cs_wg_v3_pilot3","36WLNQG78ZB78CRHSXFLOIOIKW6EBV","58","0","LADDER","9","5","0","760","LADDER","9","2017-03-23 20:06:17","2787"
"A2O5OJXCUFQ3FV","cs_wg_v3_pilot3","3TYCR1GOTCKHWG4PFXISNVL5KWTLZV","85","0","STOMACH","10","5","0","1198","stomach","10","2017-03-23 20:06:20","2788"
"A2XUADP5L61HQ5","cs_wg_v3_pilot3","3I3WADAZ9Q5RVNNXL1R4Q8I4E2QO58","11","0","DOORWAY","2","5","0","1043","doorway","2","2017-03-23 20:06:21","2789"
"A14CPQKP46VJQK","cs_wg_v3_pilot3","3ATTHHXXWAPQ1KW4TCXUYUD2VS1IXH","9","0","STRUCTURE","0","5","0","7285","STRUCTURE","0","2017-03-23 20:06:22","2790"
"AO0CQ0WT4FT7T","cs_wg_v3_pilot3","36WLNQG78ZB78CRHSXFLOIOIKW6EBV","59","0","STRUCTURE","10","5","0","532","STRUCTURE","10","2017-03-23 20:06:23","2791"
"A2OFN0A5CPLH57","cs_wg_v3_pilot3","3WOKGM4L71HS0G1WOVLS9DMDXUFO0N","88","0","UMBRELLA","8","5","0","1118","umbrella","8","2017-03-23 20:06:25","2792"
"A1Z3NTRGIUZ240","cs_wg_v3_pilot3","31QTRG6Q2TE7IB9IB39GQ5LNJCQPY6","70","0","HELICOPTER","0","5","1","3097","Helicopter","0","2017-03-23 20:06:26","2793"
"A1FDPHX8S6G1WM","cs_wg_v3_pilot3","3VNXK88KKCJ5MUY6P3QZXGHEWR6V98","58","0","MACHINE","2","5","0","5219","machine","2","2017-03-23 20:06:29","2794"
"A2O5OJXCUFQ3FV","cs_wg_v3_pilot3","3TYCR1GOTCKHWG4PFXISNVL5KWTLZV","86","0","DOORWAY","0","5","1","2404","doorway","0","2017-03-23 20:06:29","2795"
"AO0CQ0WT4FT7T","cs_wg_v3_pilot3","36WLNQG78ZB78CRHSXFLOIOIKW6EBV","60","0","LADDER","9","5","0","813","LADDER","9","2017-03-23 20:06:29","2796"
"A1Z3NTRGIUZ240","cs_wg_v3_pilot3","31QTRG6Q2TE7IB9IB39GQ5LNJCQPY6","71","0","BASKET","10","5","0","852","Basket","10","2017-03-23 20:06:35","2797"
"A2OFN0A5CPLH57","cs_wg_v3_pilot3","3WOKGM4L71HS0G1WOVLS9DMDXUFO0N","89","0","UMBRELLA","8","5","0","917","umbrella","8","2017-03-23 20:06:36","2798"
"AO0CQ0WT4FT7T","cs_wg_v3_pilot3","36WLNQG78ZB78CRHSXFLOIOIKW6EBV","61","0","COMMUNITY","0","5","1","1103","COMMUNITY","0","2017-03-23 20:06:37","2799"
"A2O5OJXCUFQ3FV","cs_wg_v3_pilot3","3TYCR1GOTCKHWG4PFXISNVL5KWTLZV","87","0","LADDER","2","5","1","1858","ladder","2","2017-03-23 20:06:37","2800"
"A64JDJKE9DYCT","cs_wg_v3_pilot3","3GLB5JMZFXWY7NLSCOWFJBXU0XXGDL","26","0","COMMUNITY","2","5","1","3377","COMMUNITY","2","2017-03-23 20:06:37","2801"
"A1FDPHX8S6G1WM","cs_wg_v3_pilot3","3VNXK88KKCJ5MUY6P3QZXGHEWR6V98","59","0","BOOKSHELF","1","5","1","1867","bookshelf","1","2017-03-23 20:06:42","2802"
"A2XUADP5L61HQ5","cs_wg_v3_pilot3","3I3WADAZ9Q5RVNNXL1R4Q8I4E2QO58","12","0","BOOKSHELF","0","5","0","12172","bookshelf","0","2017-03-23 20:06:43","2803"
"A1Z3NTRGIUZ240","cs_wg_v3_pilot3","31QTRG6Q2TE7IB9IB39GQ5LNJCQPY6","72","0","MACHINE","0","5","1","1563","Machine","0","2017-03-23 20:06:43","2804"
"A2OFN0A5CPLH57","cs_wg_v3_pilot3","3WOKGM4L71HS0G1WOVLS9DMDXUFO0N","90","0","BOOKSHELF","10","5","0","702","bookshelf","10","2017-03-23 20:06:44","2805"
"A2O5OJXCUFQ3FV","cs_wg_v3_pilot3","3TYCR1GOTCKHWG4PFXISNVL5KWTLZV","88","0","LADDER","2","5","1","1316","ladder","2","2017-03-23 20:06:45","2806"
"AO0CQ0WT4FT7T","cs_wg_v3_pilot3","36WLNQG78ZB78CRHSXFLOIOIKW6EBV","62","0","DOORWAY","0","5","1","805","DOORWAY","0","2017-03-23 20:06:46","2807"
"A14CPQKP46VJQK","cs_wg_v3_pilot3","3ATTHHXXWAPQ1KW4TCXUYUD2VS1IXH","10","0","STRUCTURE","0","5","1","4555","STRUCTURE","0","2017-03-23 20:06:47","2808"
"A1Z3NTRGIUZ240","cs_wg_v3_pilot3","31QTRG6Q2TE7IB9IB39GQ5LNJCQPY6","73","0","KEYBOARD","9","5","0","966","Keyboard","9","2017-03-23 20:06:51","2809"
"A1FDPHX8S6G1WM","cs_wg_v3_pilot3","3VNXK88KKCJ5MUY6P3QZXGHEWR6V98","60","0","BASKET","9","5","0","1680","basket","9","2017-03-23 20:06:53","2810"
"A2O5OJXCUFQ3FV","cs_wg_v3_pilot3","3TYCR1GOTCKHWG4PFXISNVL5KWTLZV","89","0","BASKET","1","5","1","1081","basket","1","2017-03-23 20:06:53","2811"
"A2OFN0A5CPLH57","cs_wg_v3_pilot3","3WOKGM4L71HS0G1WOVLS9DMDXUFO0N","91","0","UMBRELLA","8","5","0","814","umbrella","8","2017-03-23 20:06:53","2812"
"AO0CQ0WT4FT7T","cs_wg_v3_pilot3","36WLNQG78ZB78CRHSXFLOIOIKW6EBV","63","0","STOMACH","8","5","0","2053","STOMACH","8","2017-03-23 20:06:53","2813"
"A2XUADP5L61HQ5","cs_wg_v3_pilot3","3I3WADAZ9Q5RVNNXL1R4Q8I4E2QO58","13","0","KEYBOARD","10","5","0","1287","keyboard","10","2017-03-23 20:06:58","2814"
"A64JDJKE9DYCT","cs_wg_v3_pilot3","3GLB5JMZFXWY7NLSCOWFJBXU0XXGDL","27","0","KEYBOARD","10","5","0","2619","KEYBOARD","10","2017-03-23 20:06:59","2815"
"ANQ0RLFEZ17W0","cs_wg_v3_pilot3","3X0H8UUIT1P06YUAOJVM0D5IVOXSWQ","0","0","BOOKSHELF","9","5","0","4775","bookshelf","9","2017-03-23 20:06:59","2816"
"AO0CQ0WT4FT7T","cs_wg_v3_pilot3","36WLNQG78ZB78CRHSXFLOIOIKW6EBV","64","0","KEYBOARD","1","5","1","1065","KEYBOARD","1","2017-03-23 20:07:00","2817"
"A2O5OJXCUFQ3FV","cs_wg_v3_pilot3","3TYCR1GOTCKHWG4PFXISNVL5KWTLZV","90","0","WEDDING","1","5","1","1170","wedding ","1","2017-03-23 20:07:02","2818"
"A1Z3NTRGIUZ240","cs_wg_v3_pilot3","31QTRG6Q2TE7IB9IB39GQ5LNJCQPY6","74","0","KEYBOARD","9","5","0","3955","Keyboard","9","2017-03-23 20:07:02","2819"
"A2OFN0A5CPLH57","cs_wg_v3_pilot3","3WOKGM4L71HS0G1WOVLS9DMDXUFO0N","92","0","BASKET","9","5","0","860","basket","9","2017-03-23 20:07:03","2820"
"A1FDPHX8S6G1WM","cs_wg_v3_pilot3","3VNXK88KKCJ5MUY6P3QZXGHEWR6V98","61","0","TRAFFIC","0","5","0","3248","traffic","0","2017-03-23 20:07:06","2821"
"AO0CQ0WT4FT7T","cs_wg_v3_pilot3","36WLNQG78ZB78CRHSXFLOIOIKW6EBV","65","0","WEDDING","10","5","0","2022","WEDDING","10","2017-03-23 20:07:08","2822"
"A14CPQKP46VJQK","cs_wg_v3_pilot3","3ATTHHXXWAPQ1KW4TCXUYUD2VS1IXH","11","0","HELICOPTER","10","5","1","5396","HELICOPTER","10","2017-03-23 20:07:10","2823"
"A2XUADP5L61HQ5","cs_wg_v3_pilot3","3I3WADAZ9Q5RVNNXL1R4Q8I4E2QO58","14","0","STRUCTURE","10","5","0","2024","structure","10","2017-03-23 20:07:10","2824"
"ANQ0RLFEZ17W0","cs_wg_v3_pilot3","3X0H8UUIT1P06YUAOJVM0D5IVOXSWQ","1","0","DOORWAY","0","5","0","2440","doorway","0","2017-03-23 20:07:11","2825"
"A2OFN0A5CPLH57","cs_wg_v3_pilot3","3WOKGM4L71HS0G1WOVLS9DMDXUFO0N","93","0","STRUCTURE","2","5","1","1088","structure","2","2017-03-23 20:07:11","2826"
"A1Z3NTRGIUZ240","cs_wg_v3_pilot3","31QTRG6Q2TE7IB9IB39GQ5LNJCQPY6","75","0","KEYBOARD","9","5","0","3538","Keyboard","9","2017-03-23 20:07:13","2827"
"A64JDJKE9DYCT","cs_wg_v3_pilot3","3GLB5JMZFXWY7NLSCOWFJBXU0XXGDL","28","0","COMMUNITY","2","5","1","2200","COMMUNITY","2","2017-03-23 20:07:15","2828"
"AO0CQ0WT4FT7T","cs_wg_v3_pilot3","36WLNQG78ZB78CRHSXFLOIOIKW6EBV","66","0","COMMUNITY","0","5","1","561","COMMUNITY","0","2017-03-23 20:07:15","2829"
"A20HITED8LB7O5","cs_wg_v3_pilot3","3TVRFO09GKGSRL4AEFU7QA5UCWVLXY","67","0","BOOKSHELF","10","5","0","291662","bookself","10","2017-03-23 20:07:15","2830"
"A2O5OJXCUFQ3FV","cs_wg_v3_pilot3","3TYCR1GOTCKHWG4PFXISNVL5KWTLZV","91","0","STRUCTURE","0","5","1","3618","structure","0","2017-03-23 20:07:15","2831"
"A2OFN0A5CPLH57","cs_wg_v3_pilot3","3WOKGM4L71HS0G1WOVLS9DMDXUFO0N","94","0","HELICOPTER","9","5","0","1584","helicopter","9","2017-03-23 20:07:21","2832"
"A2XUADP5L61HQ5","cs_wg_v3_pilot3","3I3WADAZ9Q5RVNNXL1R4Q8I4E2QO58","15","0","COMMUNITY","1","5","0","1628","community","1","2017-03-23 20:07:21","2833"
"AO0CQ0WT4FT7T","cs_wg_v3_pilot3","36WLNQG78ZB78CRHSXFLOIOIKW6EBV","67","0","FOOTBALL","10","5","0","634","FOOTBALL","10","2017-03-23 20:07:22","2834"
"A1FDPHX8S6G1WM","cs_wg_v3_pilot3","3VNXK88KKCJ5MUY6P3QZXGHEWR6V98","62","0","COMMUNITY","8","5","0","6403","community","8","2017-03-23 20:07:23","2835"
"A20HITED8LB7O5","cs_wg_v3_pilot3","3TVRFO09GKGSRL4AEFU7QA5UCWVLXY","68","0","TRAFFIC","2","5","1","1244","traffic","2","2017-03-23 20:07:23","2836"
"A1Z3NTRGIUZ240","cs_wg_v3_pilot3","31QTRG6Q2TE7IB9IB39GQ5LNJCQPY6","76","0","UMBRELLA","2","5","1","1349","Umbrella","2","2017-03-23 20:07:24","2837"
"A2O5OJXCUFQ3FV","cs_wg_v3_pilot3","3TYCR1GOTCKHWG4PFXISNVL5KWTLZV","92","0","STRUCTURE","0","5","1","1728","structure","0","2017-03-23 20:07:24","2838"
"ANQ0RLFEZ17W0","cs_wg_v3_pilot3","3X0H8UUIT1P06YUAOJVM0D5IVOXSWQ","2","0","DOORWAY","0","5","1","2777","doorway","0","2017-03-23 20:07:27","2839"
"AO0CQ0WT4FT7T","cs_wg_v3_pilot3","36WLNQG78ZB78CRHSXFLOIOIKW6EBV","68","0","FOOTBALL","10","5","0","1107","FOOTBALL","10","2017-03-23 20:07:29","2840"
"A2OFN0A5CPLH57","cs_wg_v3_pilot3","3WOKGM4L71HS0G1WOVLS9DMDXUFO0N","95","0","HELICOPTER","9","5","0","1104","helicopter","9","2017-03-23 20:07:29","2841"
"A2XUADP5L61HQ5","cs_wg_v3_pilot3","3I3WADAZ9Q5RVNNXL1R4Q8I4E2QO58","16","0","BASKET","8","5","0","1178","basket","8","2017-03-23 20:07:31","2842"
"A2O5OJXCUFQ3FV","cs_wg_v3_pilot3","3TYCR1GOTCKHWG4PFXISNVL5KWTLZV","93","0","HELICOPTER","8","5","0","1341","helicopter","8","2017-03-23 20:07:32","2843"
"A20HITED8LB7O5","cs_wg_v3_pilot3","3TVRFO09GKGSRL4AEFU7QA5UCWVLXY","69","0","FOOTBALL","9","5","0","1198","football","9","2017-03-23 20:07:35","2844"
"AO0CQ0WT4FT7T","cs_wg_v3_pilot3","36WLNQG78ZB78CRHSXFLOIOIKW6EBV","69","0","LADDER","9","5","0","696","LADDER","9","2017-03-23 20:07:35","2845"
"A14CPQKP46VJQK","cs_wg_v3_pilot3","3ATTHHXXWAPQ1KW4TCXUYUD2VS1IXH","12","0","COMMUNITY","10","5","0","6681","COMMUNITY","10","2017-03-23 20:07:35","2846"
"A1FDPHX8S6G1WM","cs_wg_v3_pilot3","3VNXK88KKCJ5MUY6P3QZXGHEWR6V98","63","0","COMMUNITY","8","5","0","1483","community","8","2017-03-23 20:07:35","2847"
"A154X03NKVZZL1","cs_wg_v3_pilot3","3137ONMDKG63ZTZS8J7ZPTFF09YGEE","0","0","WEDDING","10","5","0","5576","wedding","10","2017-03-23 20:07:36","2848"
"A2OFN0A5CPLH57","cs_wg_v3_pilot3","3WOKGM4L71HS0G1WOVLS9DMDXUFO0N","96","0","WEDDING","0","5","1","873","wedding","0","2017-03-23 20:07:37","2849"
"ANQ0RLFEZ17W0","cs_wg_v3_pilot3","3X0H8UUIT1P06YUAOJVM0D5IVOXSWQ","3","0","BASKET","10","5","0","2112","basket","10","2017-03-23 20:07:38","2850"
"A64JDJKE9DYCT","cs_wg_v3_pilot3","3GLB5JMZFXWY7NLSCOWFJBXU0XXGDL","29","0","FOOTBALL","0","5","1","3678","FOOTBALL","0","2017-03-23 20:07:38","2851"
"A1Z3NTRGIUZ240","cs_wg_v3_pilot3","31QTRG6Q2TE7IB9IB39GQ5LNJCQPY6","77","0","BOOKSHELF","2","5","1","2151","Bookshelf","2","2017-03-23 20:07:39","2852"
"A2XUADP5L61HQ5","cs_wg_v3_pilot3","3I3WADAZ9Q5RVNNXL1R4Q8I4E2QO58","17","0","MACHINE","9","5","0","1425","machine","9","2017-03-23 20:07:40","2853"
"A2O5OJXCUFQ3FV","cs_wg_v3_pilot3","3TYCR1GOTCKHWG4PFXISNVL5KWTLZV","94","0","LADDER","2","5","1","1907","ladder","2","2017-03-23 20:07:40","2854"
"AO0CQ0WT4FT7T","cs_wg_v3_pilot3","36WLNQG78ZB78CRHSXFLOIOIKW6EBV","70","0","FOOTBALL","10","5","0","487","FOOTBALL","10","2017-03-23 20:07:41","2855"
"A2OFN0A5CPLH57","cs_wg_v3_pilot3","3WOKGM4L71HS0G1WOVLS9DMDXUFO0N","97","0","TRAFFIC","0","5","1","997","traffic","0","2017-03-23 20:07:44","2856"
