"subject","version","assignmentId","trial","trial_type","word","value","alt","value2","choice","rt","resp","resp2","resp3","resp4","used_hint","stamp","id"
"A1COUACGJXNO2F","cs_wg_mon_single_v1_pilot1","37TD41K0AHARS0O57SVLOJYJHSISCA","0","0","DECEMBER","12",,"0","12","5692",,,,,"1","2018-11-06 22:19:20","376019"
"A1YUK67SL5TWT0","cs_wg_mon_single_v1_pilot1","3JZQSN0I3QBV57ZO3UR57B0JQUHGFQ","0","0","JUNE","2",,"0","2","7513",,,,,"1","2018-11-06 22:19:30","376020"
"A1COUACGJXNO2F","cs_wg_mon_single_v1_pilot1","37TD41K0AHARS0O57SVLOJYJHSISCA","1","0","FEBRUARY","5",,"0","5","8210",,,,,"1","2018-11-06 22:19:30","376021"
"A1COUACGJXNO2F","cs_wg_mon_single_v1_pilot1","37TD41K0AHARS0O57SVLOJYJHSISCA","2","0","DECEMBER","5",,"0","5","4655",,,,,"1","2018-11-06 22:19:37","376022"
"A1YUK67SL5TWT0","cs_wg_mon_single_v1_pilot1","3JZQSN0I3QBV57ZO3UR57B0JQUHGFQ","1","0","MAY","8",,"0","8","5651",,,,,"1","2018-11-06 22:19:41","376023"
"A1COUACGJXNO2F","cs_wg_mon_single_v1_pilot1","37TD41K0AHARS0O57SVLOJYJHSISCA","3","0","AUGUST","6",,"0","6","3612",,,,,"1","2018-11-06 22:19:43","376024"
"A1COUACGJXNO2F","cs_wg_mon_single_v1_pilot1","37TD41K0AHARS0O57SVLOJYJHSISCA","4","0","DECEMBER","10",,"0","10","4287",,,,,"1","2018-11-06 22:19:49","376025"
"A1YUK67SL5TWT0","cs_wg_mon_single_v1_pilot1","3JZQSN0I3QBV57ZO3UR57B0JQUHGFQ","2","0","OCTOBER","12",,"0","12","10020",,,,,"1","2018-11-06 22:19:54","376026"
"A1COUACGJXNO2F","cs_wg_mon_single_v1_pilot1","37TD41K0AHARS0O57SVLOJYJHSISCA","5","0","MAY","12",,"0","12","4526",,,,,"1","2018-11-06 22:19:56","376027"
"A1COUACGJXNO2F","cs_wg_mon_single_v1_pilot1","37TD41K0AHARS0O57SVLOJYJHSISCA","6","0","JUNE","4",,"0","4","5105",,,,,"1","2018-11-06 22:20:05","376028"
"A1COUACGJXNO2F","cs_wg_mon_single_v1_pilot1","37TD41K0AHARS0O57SVLOJYJHSISCA","7","0","MAY","9",,"0","9","4630",,,,,"1","2018-11-06 22:20:11","376029"
"A1YUK67SL5TWT0","cs_wg_mon_single_v1_pilot1","3JZQSN0I3QBV57ZO3UR57B0JQUHGFQ","3","0","NOVEMBER","11",,"0","11","19175",,,,,"1","2018-11-06 22:20:17","376030"
"A1COUACGJXNO2F","cs_wg_mon_single_v1_pilot1","37TD41K0AHARS0O57SVLOJYJHSISCA","8","0","JULY","11",,"0","11","4030",,,,,"1","2018-11-06 22:20:17","376031"
"A1COUACGJXNO2F","cs_wg_mon_single_v1_pilot1","37TD41K0AHARS0O57SVLOJYJHSISCA","9","0","FEBRUARY","3",,"0","3","3078",,,,,"1","2018-11-06 22:20:22","376032"
"A1YUK67SL5TWT0","cs_wg_mon_single_v1_pilot1","3JZQSN0I3QBV57ZO3UR57B0JQUHGFQ","4","0","JULY","6",,"0","6","5159",,,,,"1","2018-11-06 22:20:24","376033"
"A1COUACGJXNO2F","cs_wg_mon_single_v1_pilot1","37TD41K0AHARS0O57SVLOJYJHSISCA","10","0","OCTOBER","10",,"0","10","5150",,,,,"1","2018-11-06 22:20:31","376034"
"A1YUK67SL5TWT0","cs_wg_mon_single_v1_pilot1","3JZQSN0I3QBV57ZO3UR57B0JQUHGFQ","5","0","FEBRUARY","11",,"0","11","7787",,,,,"1","2018-11-06 22:20:38","376035"
"A1COUACGJXNO2F","cs_wg_mon_single_v1_pilot1","37TD41K0AHARS0O57SVLOJYJHSISCA","11","0","MAY","3",,"0","3","8349",,,,,"1","2018-11-06 22:20:43","376036"
"A1YUK67SL5TWT0","cs_wg_mon_single_v1_pilot1","3JZQSN0I3QBV57ZO3UR57B0JQUHGFQ","6","0","APRIL","7",,"0","7","10651",,,,,"1","2018-11-06 22:20:49","376037"
"ALBUUWRN9Q07U","cs_wg_mon_single_v1_pilot1","36NEMU28XFEX83H54MZ0O46GHJIMW1","0","0","NOVEMBER","7",,"0","7","7266",,,,,"1","2018-11-06 22:20:50","376038"
"A1COUACGJXNO2F","cs_wg_mon_single_v1_pilot1","37TD41K0AHARS0O57SVLOJYJHSISCA","12","0","APRIL","6",,"0","6","8098",,,,,"1","2018-11-06 22:20:54","376039"
"ALBUUWRN9Q07U","cs_wg_mon_single_v1_pilot1","36NEMU28XFEX83H54MZ0O46GHJIMW1","1","0","SEPTEMBER","10",,"0","10","4101",,,,,"1","2018-11-06 22:21:00","376040"
"A1YUK67SL5TWT0","cs_wg_mon_single_v1_pilot1","3JZQSN0I3QBV57ZO3UR57B0JQUHGFQ","7","0","SEPTEMBER","12",,"0","12","10443",,,,,"1","2018-11-06 22:21:04","376041"
"A1COUACGJXNO2F","cs_wg_mon_single_v1_pilot1","37TD41K0AHARS0O57SVLOJYJHSISCA","13","0","MAY","8",,"0","8","5700",,,,,"1","2018-11-06 22:21:09","376042"
"A1TBL7E87DYE6J","cs_wg_mon_single_v1_pilot1","3K3R2QNK8B459F96KDGU1UFZW40U9B","0","0","AUGUST","9",,"0","9","12726",,,,,"1","2018-11-06 22:21:10","376043"
"ALBUUWRN9Q07U","cs_wg_mon_single_v1_pilot1","36NEMU28XFEX83H54MZ0O46GHJIMW1","2","0","AUGUST","8",,"0","8","6037",,,,,"1","2018-11-06 22:21:13","376044"
"A1COUACGJXNO2F","cs_wg_mon_single_v1_pilot1","37TD41K0AHARS0O57SVLOJYJHSISCA","14","0","APRIL","1",,"0","1","6059",,,,,"1","2018-11-06 22:21:16","376045"
"A1YUK67SL5TWT0","cs_wg_mon_single_v1_pilot1","3JZQSN0I3QBV57ZO3UR57B0JQUHGFQ","8","0","APRIL","1",,"0","1","11361",,,,,"1","2018-11-06 22:21:20","376046"
"A1TBL7E87DYE6J","cs_wg_mon_single_v1_pilot1","3K3R2QNK8B459F96KDGU1UFZW40U9B","1","0","JULY","11",,"0","11","8278",,,,,"1","2018-11-06 22:21:21","376047"
"A1COUACGJXNO2F","cs_wg_mon_single_v1_pilot1","37TD41K0AHARS0O57SVLOJYJHSISCA","15","0","APRIL","3",,"0","3","3857",,,,,"1","2018-11-06 22:21:22","376048"
"A19HQR079PPH11","cs_wg_mon_single_v1_pilot1","3Z2R0DQ0JHFDKZRL94MANPLI4AXE2N","0","0","JANUARY","8",,"0","8","17826",,,,,"1","2018-11-06 22:21:23","376049"
"ALBUUWRN9Q07U","cs_wg_mon_single_v1_pilot1","36NEMU28XFEX83H54MZ0O46GHJIMW1","3","0","MARCH","12",,"0","12","4898",,,,,"1","2018-11-06 22:21:24","376050"
"A1COUACGJXNO2F","cs_wg_mon_single_v1_pilot1","37TD41K0AHARS0O57SVLOJYJHSISCA","16","0","SEPTEMBER","6",,"0","6","4474",,,,,"1","2018-11-06 22:21:29","376051"
"A1YUK67SL5TWT0","cs_wg_mon_single_v1_pilot1","3JZQSN0I3QBV57ZO3UR57B0JQUHGFQ","9","0","FEBRUARY","11",,"0","11","8827",,,,,"1","2018-11-06 22:21:31","376052"
"A1TBL7E87DYE6J","cs_wg_mon_single_v1_pilot1","3K3R2QNK8B459F96KDGU1UFZW40U9B","2","0","MARCH","10",,"0","10","8155",,,,,"1","2018-11-06 22:21:36","376053"
"A1COUACGJXNO2F","cs_wg_mon_single_v1_pilot1","37TD41K0AHARS0O57SVLOJYJHSISCA","17","0","MARCH","4",,"0","4","2770",,,,,"1","2018-11-06 22:21:36","376054"
"ALBUUWRN9Q07U","cs_wg_mon_single_v1_pilot1","36NEMU28XFEX83H54MZ0O46GHJIMW1","4","0","JANUARY","9",,"0","9","3476",,,,,"1","2018-11-06 22:21:36","376055"
"A1COUACGJXNO2F","cs_wg_mon_single_v1_pilot1","37TD41K0AHARS0O57SVLOJYJHSISCA","18","0","MAY","1",,"0","1","2453",,,,,"1","2018-11-06 22:21:39","376056"
"A19HQR079PPH11","cs_wg_mon_single_v1_pilot1","3Z2R0DQ0JHFDKZRL94MANPLI4AXE2N","1","0","DECEMBER","5",,"0","5","14912",,,,,"1","2018-11-06 22:21:45","376057"
"A1YUK67SL5TWT0","cs_wg_mon_single_v1_pilot1","3JZQSN0I3QBV57ZO3UR57B0JQUHGFQ","10","0","OCTOBER","10",,"0","10","8843",,,,,"1","2018-11-06 22:21:45","376058"
"A1COUACGJXNO2F","cs_wg_mon_single_v1_pilot1","37TD41K0AHARS0O57SVLOJYJHSISCA","19","0","OCTOBER","12",,"0","12","2260",,,,,"1","2018-11-06 22:21:45","376059"
"ALBUUWRN9Q07U","cs_wg_mon_single_v1_pilot1","36NEMU28XFEX83H54MZ0O46GHJIMW1","5","0","OCTOBER","11",,"0","11","4625",,,,,"1","2018-11-06 22:21:46","376060"
"A1TBL7E87DYE6J","cs_wg_mon_single_v1_pilot1","3K3R2QNK8B459F96KDGU1UFZW40U9B","3","0","AUGUST","3",,"0","9","6151",,,,,"0","2018-11-06 22:21:46","376061"
"A1COUACGJXNO2F","cs_wg_mon_single_v1_pilot1","37TD41K0AHARS0O57SVLOJYJHSISCA","20","0","SEPTEMBER","4",,"0","4","2604",,,,,"1","2018-11-06 22:21:48","376062"
"A1COUACGJXNO2F","cs_wg_mon_single_v1_pilot1","37TD41K0AHARS0O57SVLOJYJHSISCA","21","0","JUNE","11",,"0","11","2157",,,,,"1","2018-11-06 22:21:52","376063"
"A1YUK67SL5TWT0","cs_wg_mon_single_v1_pilot1","3JZQSN0I3QBV57ZO3UR57B0JQUHGFQ","11","0","NOVEMBER","5",,"0","5","7680",,,,,"1","2018-11-06 22:21:53","376064"
"ALBUUWRN9Q07U","cs_wg_mon_single_v1_pilot1","36NEMU28XFEX83H54MZ0O46GHJIMW1","6","0","FEBRUARY","4",,"0","4","4609",,,,,"1","2018-11-06 22:21:54","376065"
"A1TBL7E87DYE6J","cs_wg_mon_single_v1_pilot1","3K3R2QNK8B459F96KDGU1UFZW40U9B","4","0","JANUARY","3",,"0","3","7593",,,,,"1","2018-11-06 22:21:58","376066"
"A1COUACGJXNO2F","cs_wg_mon_single_v1_pilot1","37TD41K0AHARS0O57SVLOJYJHSISCA","22","0","MARCH","9",,"0","9","3492",,,,,"1","2018-11-06 22:21:58","376067"
"A19HQR079PPH11","cs_wg_mon_single_v1_pilot1","3Z2R0DQ0JHFDKZRL94MANPLI4AXE2N","2","0","MAY","10",,"0","10","15298",,,,,"1","2018-11-06 22:22:02","376068"
"A1COUACGJXNO2F","cs_wg_mon_single_v1_pilot1","37TD41K0AHARS0O57SVLOJYJHSISCA","23","0","OCTOBER","12",,"0","12","2364",,,,,"1","2018-11-06 22:22:03","376069"
"A1YUK67SL5TWT0","cs_wg_mon_single_v1_pilot1","3JZQSN0I3QBV57ZO3UR57B0JQUHGFQ","12","0","AUGUST","6",,"0","6","8694",,,,,"1","2018-11-06 22:22:05","376070"
"ALBUUWRN9Q07U","cs_wg_mon_single_v1_pilot1","36NEMU28XFEX83H54MZ0O46GHJIMW1","7","0","JANUARY","8",,"0","8","9212",,,,,"1","2018-11-06 22:22:07","376071"
"A1TBL7E87DYE6J","cs_wg_mon_single_v1_pilot1","3K3R2QNK8B459F96KDGU1UFZW40U9B","5","0","MARCH","4",,"0","4","5602",,,,,"1","2018-11-06 22:22:07","376072"
"A1COUACGJXNO2F","cs_wg_mon_single_v1_pilot1","37TD41K0AHARS0O57SVLOJYJHSISCA","24","0","MAY","2",,"0","2","2503",,,,,"1","2018-11-06 22:22:08","376073"
"A1COUACGJXNO2F","cs_wg_mon_single_v1_pilot1","37TD41K0AHARS0O57SVLOJYJHSISCA","25","0","JANUARY","8",,"0","8","4740",,,,,"1","2018-11-06 22:22:15","376074"
"A1TBL7E87DYE6J","cs_wg_mon_single_v1_pilot1","3K3R2QNK8B459F96KDGU1UFZW40U9B","6","0","JANUARY","8",,"0","3","5504",,,,,"0","2018-11-06 22:22:16","376075"
"A380GYV7QAHJ0F","cs_wg_mon_single_v1_pilot1","3R0T90IZ1SDO2VFECS14Z5FGTHPCGB","0","0","SEPTEMBER","5",,"0","5","10801",,,,,"1","2018-11-06 22:22:16","376076"
"A19HQR079PPH11","cs_wg_mon_single_v1_pilot1","3Z2R0DQ0JHFDKZRL94MANPLI4AXE2N","3","0","OCTOBER","6",,"0","6","12267",,,,,"1","2018-11-06 22:22:18","376077"
"ALBUUWRN9Q07U","cs_wg_mon_single_v1_pilot1","36NEMU28XFEX83H54MZ0O46GHJIMW1","8","0","OCTOBER","5",,"0","5","9593",,,,,"1","2018-11-06 22:22:19","376078"
"A1YUK67SL5TWT0","cs_wg_mon_single_v1_pilot1","3JZQSN0I3QBV57ZO3UR57B0JQUHGFQ","13","0","JUNE","4",,"0","4","12219",,,,,"1","2018-11-06 22:22:20","376079"
"ALBUUWRN9Q07U","cs_wg_mon_single_v1_pilot1","36NEMU28XFEX83H54MZ0O46GHJIMW1","9","0","APRIL","1",,"0","1","2923",,,,,"1","2018-11-06 22:22:24","376080"
"A1TBL7E87DYE6J","cs_wg_mon_single_v1_pilot1","3K3R2QNK8B459F96KDGU1UFZW40U9B","7","0","MAY","8",,"0","8","8042",,,,,"1","2018-11-06 22:22:26","376081"
"A1YUK67SL5TWT0","cs_wg_mon_single_v1_pilot1","3JZQSN0I3QBV57ZO3UR57B0JQUHGFQ","14","0","AUGUST","11",,"0","11","7971",,,,,"1","2018-11-06 22:22:30","376082"
"A380GYV7QAHJ0F","cs_wg_mon_single_v1_pilot1","3R0T90IZ1SDO2VFECS14Z5FGTHPCGB","1","0","JUNE","3",,"0","3","8986",,,,,"1","2018-11-06 22:22:34","376083"
"ALBUUWRN9Q07U","cs_wg_mon_single_v1_pilot1","36NEMU28XFEX83H54MZ0O46GHJIMW1","10","0","JUNE","12",,"0","8","5368",,,,,"0","2018-11-06 22:22:34","376084"
"A1TBL7E87DYE6J","cs_wg_mon_single_v1_pilot1","3K3R2QNK8B459F96KDGU1UFZW40U9B","8","0","DECEMBER","1",,"0","1","7072",,,,,"1","2018-11-06 22:22:36","376085"
"A1YUK67SL5TWT0","cs_wg_mon_single_v1_pilot1","3JZQSN0I3QBV57ZO3UR57B0JQUHGFQ","15","0","MARCH","2",,"0","2","11195",,,,,"1","2018-11-06 22:22:44","376086"
"A1TBL7E87DYE6J","cs_wg_mon_single_v1_pilot1","3K3R2QNK8B459F96KDGU1UFZW40U9B","9","0","JUNE","11",,"0","11","5901",,,,,"1","2018-11-06 22:22:45","376087"
"ALBUUWRN9Q07U","cs_wg_mon_single_v1_pilot1","36NEMU28XFEX83H54MZ0O46GHJIMW1","11","0","JULY","6",,"0","6","7408",,,,,"1","2018-11-06 22:22:47","376088"
"A380GYV7QAHJ0F","cs_wg_mon_single_v1_pilot1","3R0T90IZ1SDO2VFECS14Z5FGTHPCGB","2","0","AUGUST","6",,"0","6","9300",,,,,"1","2018-11-06 22:22:47","376089"
"A19HQR079PPH11","cs_wg_mon_single_v1_pilot1","3Z2R0DQ0JHFDKZRL94MANPLI4AXE2N","4","0","APRIL","12",,"0","4","13434",,,,,"1","2018-11-06 22:22:52","376090"
"ALBUUWRN9Q07U","cs_wg_mon_single_v1_pilot1","36NEMU28XFEX83H54MZ0O46GHJIMW1","12","0","APRIL","1",,"0","1","7273",,,,,"1","2018-11-06 22:22:56","376091"
"A1YUK67SL5TWT0","cs_wg_mon_single_v1_pilot1","3JZQSN0I3QBV57ZO3UR57B0JQUHGFQ","16","0","SEPTEMBER","4",,"0","4","8806",,,,,"1","2018-11-06 22:22:56","376092"
"A380GYV7QAHJ0F","cs_wg_mon_single_v1_pilot1","3R0T90IZ1SDO2VFECS14Z5FGTHPCGB","3","0","SEPTEMBER","2",,"0","5","3661",,,,,"0","2018-11-06 22:23:00","376093"
"A1TBL7E87DYE6J","cs_wg_mon_single_v1_pilot1","3K3R2QNK8B459F96KDGU1UFZW40U9B","10","0","SEPTEMBER","5",,"0","5","13357",,,,,"1","2018-11-06 22:23:02","376094"
"ALBUUWRN9Q07U","cs_wg_mon_single_v1_pilot1","36NEMU28XFEX83H54MZ0O46GHJIMW1","13","0","JUNE","6",,"0","6","3155",,,,,"1","2018-11-06 22:23:03","376095"
"A1YUK67SL5TWT0","cs_wg_mon_single_v1_pilot1","3JZQSN0I3QBV57ZO3UR57B0JQUHGFQ","17","0","MAY","2",,"0","2","7599",,,,,"1","2018-11-06 22:23:07","376096"
"A380GYV7QAHJ0F","cs_wg_mon_single_v1_pilot1","3R0T90IZ1SDO2VFECS14Z5FGTHPCGB","4","0","MARCH","8",,"0","8","6090",,,,,"1","2018-11-06 22:23:10","376097"
"A1COUACGJXNO2F","cs_wg_mon_single_v1_pilot1","37TD41K0AHARS0O57SVLOJYJHSISCA","26","0","JULY","9",,"0","9","54141",,,,,"1","2018-11-06 22:23:12","376098"
"A19HQR079PPH11","cs_wg_mon_single_v1_pilot1","3Z2R0DQ0JHFDKZRL94MANPLI4AXE2N","5","0","JULY","2",,"0","2","14147",,,,,"1","2018-11-06 22:23:13","376099"
"A1TBL7E87DYE6J","cs_wg_mon_single_v1_pilot1","3K3R2QNK8B459F96KDGU1UFZW40U9B","11","0","JULY","7",,"0","11","7158",,,,,"0","2018-11-06 22:23:13","376100"
"A380GYV7QAHJ0F","cs_wg_mon_single_v1_pilot1","3R0T90IZ1SDO2VFECS14Z5FGTHPCGB","5","0","DECEMBER","5",,"0","5","5850",,,,,"1","2018-11-06 22:23:20","376101"
"ALBUUWRN9Q07U","cs_wg_mon_single_v1_pilot1","36NEMU28XFEX83H54MZ0O46GHJIMW1","14","0","FEBRUARY","3",,"0","3","16504",,,,,"1","2018-11-06 22:23:22","376102"
"A1COUACGJXNO2F","cs_wg_mon_single_v1_pilot1","37TD41K0AHARS0O57SVLOJYJHSISCA","27","0","APRIL","10",,"0","10","7926",,,,,"1","2018-11-06 22:23:23","376103"
"A1TBL7E87DYE6J","cs_wg_mon_single_v1_pilot1","3K3R2QNK8B459F96KDGU1UFZW40U9B","12","0","MAY","9",,"0","9","6873",,,,,"1","2018-11-06 22:23:23","376104"
"A1YUK67SL5TWT0","cs_wg_mon_single_v1_pilot1","3JZQSN0I3QBV57ZO3UR57B0JQUHGFQ","18","0","APRIL","8",,"0","8","13962",,,,,"1","2018-11-06 22:23:27","376105"
"A380GYV7QAHJ0F","cs_wg_mon_single_v1_pilot1","3R0T90IZ1SDO2VFECS14Z5FGTHPCGB","6","0","FEBRUARY","5",,"0","5","6621",,,,,"1","2018-11-06 22:23:29","376106"
"A1TBL7E87DYE6J","cs_wg_mon_single_v1_pilot1","3K3R2QNK8B459F96KDGU1UFZW40U9B","13","0","OCTOBER","2",,"0","2","5503",,,,,"1","2018-11-06 22:23:32","376107"
"A1COUACGJXNO2F","cs_wg_mon_single_v1_pilot1","37TD41K0AHARS0O57SVLOJYJHSISCA","28","0","FEBRUARY","9",,"0","9","6800",,,,,"1","2018-11-06 22:23:32","376108"
"ALBUUWRN9Q07U","cs_wg_mon_single_v1_pilot1","36NEMU28XFEX83H54MZ0O46GHJIMW1","15","0","JULY","4",,"0","4","3689",,,,,"1","2018-11-06 22:23:34","376109"
"A1COUACGJXNO2F","cs_wg_mon_single_v1_pilot1","37TD41K0AHARS0O57SVLOJYJHSISCA","29","0","JANUARY","1",,"0","1","1971",,,,,"1","2018-11-06 22:23:36","376110"
"A1YUK67SL5TWT0","cs_wg_mon_single_v1_pilot1","3JZQSN0I3QBV57ZO3UR57B0JQUHGFQ","19","0","MARCH","5",,"0","5","6324",,,,,"1","2018-11-06 22:23:36","376111"
"A1TBL7E87DYE6J","cs_wg_mon_single_v1_pilot1","3K3R2QNK8B459F96KDGU1UFZW40U9B","14","0","OCTOBER","5",,"0","2","4185",,,,,"0","2018-11-06 22:23:39","376112"
"A380GYV7QAHJ0F","cs_wg_mon_single_v1_pilot1","3R0T90IZ1SDO2VFECS14Z5FGTHPCGB","7","0","MAY","8",,"0","8","4785",,,,,"1","2018-11-06 22:23:39","376113"
"A1COUACGJXNO2F","cs_wg_mon_single_v1_pilot1","37TD41K0AHARS0O57SVLOJYJHSISCA","30","0","JUNE","12",,"0","12","2496",,,,,"1","2018-11-06 22:23:41","376114"
"ALBUUWRN9Q07U","cs_wg_mon_single_v1_pilot1","36NEMU28XFEX83H54MZ0O46GHJIMW1","16","0","NOVEMBER","1",,"0","8","7040",,,,,"0","2018-11-06 22:23:43","376115"
"A1COUACGJXNO2F","cs_wg_mon_single_v1_pilot1","37TD41K0AHARS0O57SVLOJYJHSISCA","31","0","SEPTEMBER","10",,"0","10","3216",,,,,"1","2018-11-06 22:23:46","376116"
"A1YUK67SL5TWT0","cs_wg_mon_single_v1_pilot1","3JZQSN0I3QBV57ZO3UR57B0JQUHGFQ","20","0","AUGUST","4",,"0","4","7119",,,,,"1","2018-11-06 22:23:46","376117"
"ALBUUWRN9Q07U","cs_wg_mon_single_v1_pilot1","36NEMU28XFEX83H54MZ0O46GHJIMW1","17","0","NOVEMBER","3",,"0","3","3168",,,,,"1","2018-11-06 22:23:48","376118"
"A1TBL7E87DYE6J","cs_wg_mon_single_v1_pilot1","3K3R2QNK8B459F96KDGU1UFZW40U9B","15","0","DECEMBER","6",,"0","6","6749",,,,,"1","2018-11-06 22:23:49","376119"
"A380GYV7QAHJ0F","cs_wg_mon_single_v1_pilot1","3R0T90IZ1SDO2VFECS14Z5FGTHPCGB","8","0","FEBRUARY","10",,"0","10","6134",,,,,"1","2018-11-06 22:23:49","376120"
"ALBUUWRN9Q07U","cs_wg_mon_single_v1_pilot1","36NEMU28XFEX83H54MZ0O46GHJIMW1","18","0","JUNE","9",,"0","9","2681",,,,,"1","2018-11-06 22:23:53","376121"
"ALBUUWRN9Q07U","cs_wg_mon_single_v1_pilot1","36NEMU28XFEX83H54MZ0O46GHJIMW1","19","0","JULY","3",,"0","3","2323",,,,,"1","2018-11-06 22:23:57","376122"
"A1TBL7E87DYE6J","cs_wg_mon_single_v1_pilot1","3K3R2QNK8B459F96KDGU1UFZW40U9B","16","0","APRIL","4",,"0","4","6908",,,,,"1","2018-11-06 22:23:58","376123"
"A380GYV7QAHJ0F","cs_wg_mon_single_v1_pilot1","3R0T90IZ1SDO2VFECS14Z5FGTHPCGB","9","0","JANUARY","9",,"0","9","6874",,,,,"1","2018-11-06 22:23:59","376124"
"A1YUK67SL5TWT0","cs_wg_mon_single_v1_pilot1","3JZQSN0I3QBV57ZO3UR57B0JQUHGFQ","21","0","APRIL","2",,"0","2","11047",,,,,"1","2018-11-06 22:24:00","376125"
"ALBUUWRN9Q07U","cs_wg_mon_single_v1_pilot1","36NEMU28XFEX83H54MZ0O46GHJIMW1","20","0","APRIL","8",,"0","8","2447",,,,,"1","2018-11-06 22:24:01","376126"
"A19HQR079PPH11","cs_wg_mon_single_v1_pilot1","3Z2R0DQ0JHFDKZRL94MANPLI4AXE2N","6","0","NOVEMBER","2",,"0","6","40475",,,,,"1","2018-11-06 22:24:03","376127"
"A1COUACGJXNO2F","cs_wg_mon_single_v1_pilot1","37TD41K0AHARS0O57SVLOJYJHSISCA","32","0","JUNE","2",,"0","2","14866",,,,,"1","2018-11-06 22:24:03","376128"
"ALBUUWRN9Q07U","cs_wg_mon_single_v1_pilot1","36NEMU28XFEX83H54MZ0O46GHJIMW1","21","0","MARCH","1",,"0","1","2313",,,,,"1","2018-11-06 22:24:05","376129"
"A1TBL7E87DYE6J","cs_wg_mon_single_v1_pilot1","3K3R2QNK8B459F96KDGU1UFZW40U9B","17","0","MARCH","6",,"0","3","4283",,,,,"0","2018-11-06 22:24:08","376130"
"A1COUACGJXNO2F","cs_wg_mon_single_v1_pilot1","37TD41K0AHARS0O57SVLOJYJHSISCA","33","0","APRIL","2",,"0","2","2479",,,,,"1","2018-11-06 22:24:08","376131"
"ALBUUWRN9Q07U","cs_wg_mon_single_v1_pilot1","36NEMU28XFEX83H54MZ0O46GHJIMW1","22","0","JUNE","1",,"0","1","2099",,,,,"1","2018-11-06 22:24:09","376132"
"A1YUK67SL5TWT0","cs_wg_mon_single_v1_pilot1","3JZQSN0I3QBV57ZO3UR57B0JQUHGFQ","22","0","JULY","5",,"0","5","10077",,,,,"1","2018-11-06 22:24:13","376133"
"ALBUUWRN9Q07U","cs_wg_mon_single_v1_pilot1","36NEMU28XFEX83H54MZ0O46GHJIMW1","23","0","DECEMBER","12",,"0","12","2221",,,,,"1","2018-11-06 22:24:13","376134"
"A1COUACGJXNO2F","cs_wg_mon_single_v1_pilot1","37TD41K0AHARS0O57SVLOJYJHSISCA","34","0","MAY","10",,"0","10","3485",,,,,"1","2018-11-06 22:24:14","376135"
"ALBUUWRN9Q07U","cs_wg_mon_single_v1_pilot1","36NEMU28XFEX83H54MZ0O46GHJIMW1","24","0","APRIL","6",,"0","6","3126",,,,,"1","2018-11-06 22:24:19","376136"
"A1COUACGJXNO2F","cs_wg_mon_single_v1_pilot1","37TD41K0AHARS0O57SVLOJYJHSISCA","35","0","NOVEMBER","9",,"0","9","2938",,,,,"1","2018-11-06 22:24:19","376137"
"A380GYV7QAHJ0F","cs_wg_mon_single_v1_pilot1","3R0T90IZ1SDO2VFECS14Z5FGTHPCGB","10","0","DECEMBER","12",,"0","12","6446",,,,,"1","2018-11-06 22:24:19","376138"
"A1TBL7E87DYE6J","cs_wg_mon_single_v1_pilot1","3K3R2QNK8B459F96KDGU1UFZW40U9B","18","0","FEBRUARY","10",,"0","10","9798",,,,,"1","2018-11-06 22:24:20","376139"
"A19HQR079PPH11","cs_wg_mon_single_v1_pilot1","3Z2R0DQ0JHFDKZRL94MANPLI4AXE2N","7","0","AUGUST","5",,"0","5","14580",,,,,"1","2018-11-06 22:24:21","376140"
"A1YUK67SL5TWT0","cs_wg_mon_single_v1_pilot1","3JZQSN0I3QBV57ZO3UR57B0JQUHGFQ","23","0","JULY","7",,"0","7","4486",,,,,"1","2018-11-06 22:24:22","376141"
"A1COUACGJXNO2F","cs_wg_mon_single_v1_pilot1","37TD41K0AHARS0O57SVLOJYJHSISCA","36","0","NOVEMBER","10",,"0","10","3992",,,,,"1","2018-11-06 22:24:25","376142"
"A380GYV7QAHJ0F","cs_wg_mon_single_v1_pilot1","3R0T90IZ1SDO2VFECS14Z5FGTHPCGB","11","0","MAY","8",,"0","8","6640",,,,,"1","2018-11-06 22:24:28","376143"
"ALBUUWRN9Q07U","cs_wg_mon_single_v1_pilot1","36NEMU28XFEX83H54MZ0O46GHJIMW1","25","0","JULY","10",,"0","10","8116",,,,,"1","2018-11-06 22:24:29","376144"
"A1TBL7E87DYE6J","cs_wg_mon_single_v1_pilot1","3K3R2QNK8B459F96KDGU1UFZW40U9B","19","0","APRIL","11",,"0","11","5811",,,,,"1","2018-11-06 22:24:30","376145"
"A1COUACGJXNO2F","cs_wg_mon_single_v1_pilot1","37TD41K0AHARS0O57SVLOJYJHSISCA","37","0","AUGUST","3",,"0","3","2470",,,,,"1","2018-11-06 22:24:30","376146"
"A1YUK67SL5TWT0","cs_wg_mon_single_v1_pilot1","3JZQSN0I3QBV57ZO3UR57B0JQUHGFQ","24","0","JULY","12",,"0","12","5186",,,,,"1","2018-11-06 22:24:31","376147"
"A1COUACGJXNO2F","cs_wg_mon_single_v1_pilot1","37TD41K0AHARS0O57SVLOJYJHSISCA","38","0","MAY","2",,"0","2","2151",,,,,"1","2018-11-06 22:24:34","376148"
"ALBUUWRN9Q07U","cs_wg_mon_single_v1_pilot1","36NEMU28XFEX83H54MZ0O46GHJIMW1","26","0","NOVEMBER","12",,"0","12","6582",,,,,"1","2018-11-06 22:24:38","376149"
"A380GYV7QAHJ0F","cs_wg_mon_single_v1_pilot1","3R0T90IZ1SDO2VFECS14Z5FGTHPCGB","12","0","SEPTEMBER","4",,"0","4","6472",,,,,"1","2018-11-06 22:24:38","376150"
"A1TBL7E87DYE6J","cs_wg_mon_single_v1_pilot1","3K3R2QNK8B459F96KDGU1UFZW40U9B","20","0","MARCH","12",,"0","12","5825",,,,,"1","2018-11-06 22:24:38","376151"
"A1COUACGJXNO2F","cs_wg_mon_single_v1_pilot1","37TD41K0AHARS0O57SVLOJYJHSISCA","39","0","OCTOBER","7",,"0","7","3099",,,,,"1","2018-11-06 22:24:40","376152"
"A1YUK67SL5TWT0","cs_wg_mon_single_v1_pilot1","3JZQSN0I3QBV57ZO3UR57B0JQUHGFQ","25","0","AUGUST","5",,"0","5","5833",,,,,"1","2018-11-06 22:24:40","376153"
"ALBUUWRN9Q07U","cs_wg_mon_single_v1_pilot1","36NEMU28XFEX83H54MZ0O46GHJIMW1","27","0","NOVEMBER","11",,"0","11","3073",,,,,"1","2018-11-06 22:24:43","376154"
"A19HQR079PPH11","cs_wg_mon_single_v1_pilot1","3Z2R0DQ0JHFDKZRL94MANPLI4AXE2N","8","0","DECEMBER","4",,"0","5","15131",,,,,"1","2018-11-06 22:24:46","376155"
"ALBUUWRN9Q07U","cs_wg_mon_single_v1_pilot1","36NEMU28XFEX83H54MZ0O46GHJIMW1","28","0","JULY","3",,"0","3","3614",,,,,"1","2018-11-06 22:24:48","376156"
"A1TBL7E87DYE6J","cs_wg_mon_single_v1_pilot1","3K3R2QNK8B459F96KDGU1UFZW40U9B","21","0","AUGUST","11",,"0","9","8875",,,,,"0","2018-11-06 22:24:50","376157"
"A1COUACGJXNO2F","cs_wg_mon_single_v1_pilot1","37TD41K0AHARS0O57SVLOJYJHSISCA","40","0","DECEMBER","11",,"0","10","7651",,,,,"0","2018-11-06 22:24:50","376158"
"A1YUK67SL5TWT0","cs_wg_mon_single_v1_pilot1","3JZQSN0I3QBV57ZO3UR57B0JQUHGFQ","26","0","FEBRUARY","9",,"0","9","7462",,,,,"1","2018-11-06 22:24:50","376159"
"A380GYV7QAHJ0F","cs_wg_mon_single_v1_pilot1","3R0T90IZ1SDO2VFECS14Z5FGTHPCGB","13","0","APRIL","11",,"0","11","10485",,,,,"1","2018-11-06 22:24:51","376160"
"ALBUUWRN9Q07U","cs_wg_mon_single_v1_pilot1","36NEMU28XFEX83H54MZ0O46GHJIMW1","29","0","JULY","12",,"0","12","4228",,,,,"1","2018-11-06 22:24:54","376161"
"A1COUACGJXNO2F","cs_wg_mon_single_v1_pilot1","37TD41K0AHARS0O57SVLOJYJHSISCA","41","0","OCTOBER","7",,"0","9","5115",,,,,"0","2018-11-06 22:24:58","376162"
"A19HQR079PPH11","cs_wg_mon_single_v1_pilot1","3Z2R0DQ0JHFDKZRL94MANPLI4AXE2N","9","0","OCTOBER","7",,"0","7","9346",,,,,"1","2018-11-06 22:24:58","376163"
"A380GYV7QAHJ0F","cs_wg_mon_single_v1_pilot1","3R0T90IZ1SDO2VFECS14Z5FGTHPCGB","14","0","MAY","7",,"0","7","5970",,,,,"1","2018-11-06 22:25:00","376164"
"ALBUUWRN9Q07U","cs_wg_mon_single_v1_pilot1","36NEMU28XFEX83H54MZ0O46GHJIMW1","30","0","JANUARY","3",,"0","3","3361",,,,,"1","2018-11-06 22:25:00","376165"
"A1TBL7E87DYE6J","cs_wg_mon_single_v1_pilot1","3K3R2QNK8B459F96KDGU1UFZW40U9B","22","0","OCTOBER","6",,"0","6","6884",,,,,"1","2018-11-06 22:25:00","376166"
"A1YUK67SL5TWT0","cs_wg_mon_single_v1_pilot1","3JZQSN0I3QBV57ZO3UR57B0JQUHGFQ","27","0","FEBRUARY","1",,"0","1","4899",,,,,"1","2018-11-06 22:25:00","376167"
"A1COUACGJXNO2F","cs_wg_mon_single_v1_pilot1","37TD41K0AHARS0O57SVLOJYJHSISCA","42","0","APRIL","3",,"0","5","2119",,,,,"0","2018-11-06 22:25:02","376168"
"ALBUUWRN9Q07U","cs_wg_mon_single_v1_pilot1","36NEMU28XFEX83H54MZ0O46GHJIMW1","31","0","JANUARY","4",,"0","3","3118",,,,,"1","2018-11-06 22:25:04","376169"
"A1COUACGJXNO2F","cs_wg_mon_single_v1_pilot1","37TD41K0AHARS0O57SVLOJYJHSISCA","43","0","JULY","5",,"0","4","2041",,,,,"0","2018-11-06 22:25:06","376170"
"A1YUK67SL5TWT0","cs_wg_mon_single_v1_pilot1","3JZQSN0I3QBV57ZO3UR57B0JQUHGFQ","28","0","SEPTEMBER","2",,"0","2","4874",,,,,"1","2018-11-06 22:25:08","376171"
"ALBUUWRN9Q07U","cs_wg_mon_single_v1_pilot1","36NEMU28XFEX83H54MZ0O46GHJIMW1","32","0","MARCH","6",,"0","6","2774",,,,,"1","2018-11-06 22:25:09","376172"
"A1TBL7E87DYE6J","cs_wg_mon_single_v1_pilot1","3K3R2QNK8B459F96KDGU1UFZW40U9B","23","0","MAY","4",,"0","4","6261",,,,,"1","2018-11-06 22:25:10","376173"
"A380GYV7QAHJ0F","cs_wg_mon_single_v1_pilot1","3R0T90IZ1SDO2VFECS14Z5FGTHPCGB","15","0","AUGUST","4",,"0","4","6223",,,,,"1","2018-11-06 22:25:10","376174"
"A1COUACGJXNO2F","cs_wg_mon_single_v1_pilot1","37TD41K0AHARS0O57SVLOJYJHSISCA","44","0","APRIL","7",,"0","5","2410",,,,,"0","2018-11-06 22:25:10","376175"
"A19HQR079PPH11","cs_wg_mon_single_v1_pilot1","3Z2R0DQ0JHFDKZRL94MANPLI4AXE2N","10","0","JANUARY","3",,"0","8","7044",,,,,"1","2018-11-06 22:25:11","376176"
"ALBUUWRN9Q07U","cs_wg_mon_single_v1_pilot1","36NEMU28XFEX83H54MZ0O46GHJIMW1","33","0","JUNE","7",,"0","7","3042",,,,,"1","2018-11-06 22:25:14","376177"
"A1COUACGJXNO2F","cs_wg_mon_single_v1_pilot1","37TD41K0AHARS0O57SVLOJYJHSISCA","45","0","MARCH","4",,"0","5","2274",,,,,"0","2018-11-06 22:25:14","376178"
"A1YUK67SL5TWT0","cs_wg_mon_single_v1_pilot1","3JZQSN0I3QBV57ZO3UR57B0JQUHGFQ","29","0","AUGUST","5",,"0","5","5888",,,,,"1","2018-11-06 22:25:16","376179"
"A1TBL7E87DYE6J","cs_wg_mon_single_v1_pilot1","3K3R2QNK8B459F96KDGU1UFZW40U9B","24","0","JUNE","8",,"0","8","4879",,,,,"1","2018-11-06 22:25:17","376180"
"A1COUACGJXNO2F","cs_wg_mon_single_v1_pilot1","37TD41K0AHARS0O57SVLOJYJHSISCA","46","0","JUNE","5",,"0","4","1553",,,,,"0","2018-11-06 22:25:17","376181"
"ALBUUWRN9Q07U","cs_wg_mon_single_v1_pilot1","36NEMU28XFEX83H54MZ0O46GHJIMW1","34","0","FEBRUARY","2",,"0","2","2456",,,,,"1","2018-11-06 22:25:18","376182"
"A380GYV7QAHJ0F","cs_wg_mon_single_v1_pilot1","3R0T90IZ1SDO2VFECS14Z5FGTHPCGB","16","0","FEBRUARY","2",,"0","2","5327",,,,,"1","2018-11-06 22:25:19","376183"
"A19HQR079PPH11","cs_wg_mon_single_v1_pilot1","3Z2R0DQ0JHFDKZRL94MANPLI4AXE2N","11","0","JULY","9",,"0","2","7650",,,,,"0","2018-11-06 22:25:21","376184"
"ALBUUWRN9Q07U","cs_wg_mon_single_v1_pilot1","36NEMU28XFEX83H54MZ0O46GHJIMW1","35","0","JULY","6",,"0","6","2806",,,,,"1","2018-11-06 22:25:23","376185"
"A1YUK67SL5TWT0","cs_wg_mon_single_v1_pilot1","3JZQSN0I3QBV57ZO3UR57B0JQUHGFQ","30","0","FEBRUARY","4",,"0","4","6274",,,,,"1","2018-11-06 22:25:25","376186"
"A1COUACGJXNO2F","cs_wg_mon_single_v1_pilot1","37TD41K0AHARS0O57SVLOJYJHSISCA","47","0","NOVEMBER","3",,"0","10","5774",,,,,"0","2018-11-06 22:25:25","376187"
"A1TBL7E87DYE6J","cs_wg_mon_single_v1_pilot1","3K3R2QNK8B459F96KDGU1UFZW40U9B","25","0","JANUARY","2",,"0","2","7916",,,,,"1","2018-11-06 22:25:28","376188"
"ALBUUWRN9Q07U","cs_wg_mon_single_v1_pilot1","36NEMU28XFEX83H54MZ0O46GHJIMW1","36","0","JANUARY","8",,"0","8","2651",,,,,"1","2018-11-06 22:25:29","376189"
"A380GYV7QAHJ0F","cs_wg_mon_single_v1_pilot1","3R0T90IZ1SDO2VFECS14Z5FGTHPCGB","17","0","FEBRUARY","10",,"0","10","6176",,,,,"1","2018-11-06 22:25:31","376190"
"A1COUACGJXNO2F","cs_wg_mon_single_v1_pilot1","37TD41K0AHARS0O57SVLOJYJHSISCA","48","0","JANUARY","5",,"0","7","4286",,,,,"0","2018-11-06 22:25:31","376191"
"A1COUACGJXNO2F","cs_wg_mon_single_v1_pilot1","37TD41K0AHARS0O57SVLOJYJHSISCA","49","0","JULY","6",,"0","4","2431",,,,,"0","2018-11-06 22:25:36","376192"
"ALBUUWRN9Q07U","cs_wg_mon_single_v1_pilot1","36NEMU28XFEX83H54MZ0O46GHJIMW1","37","0","MAY","12",,"0","12","4089",,,,,"1","2018-11-06 22:25:38","376193"
"A19HQR079PPH11","cs_wg_mon_single_v1_pilot1","3Z2R0DQ0JHFDKZRL94MANPLI4AXE2N","12","0","DECEMBER","2",,"0","5","13060",,,,,"1","2018-11-06 22:25:38","376194"
"A1YUK67SL5TWT0","cs_wg_mon_single_v1_pilot1","3JZQSN0I3QBV57ZO3UR57B0JQUHGFQ","31","0","NOVEMBER","7",,"0","7","4244",,,,,"1","2018-11-06 22:25:38","376195"
"A1TBL7E87DYE6J","cs_wg_mon_single_v1_pilot1","3K3R2QNK8B459F96KDGU1UFZW40U9B","26","0","NOVEMBER","12",,"0","12","6797",,,,,"1","2018-11-06 22:25:38","376196"
"A380GYV7QAHJ0F","cs_wg_mon_single_v1_pilot1","3R0T90IZ1SDO2VFECS14Z5FGTHPCGB","18","0","DECEMBER","2",,"0","2","5287",,,,,"1","2018-11-06 22:25:39","376197"
"A1COUACGJXNO2F","cs_wg_mon_single_v1_pilot1","37TD41K0AHARS0O57SVLOJYJHSISCA","50","0","JANUARY","1",,"0","7","4099",,,,,"0","2018-11-06 22:25:42","376198"
"ALBUUWRN9Q07U","cs_wg_mon_single_v1_pilot1","36NEMU28XFEX83H54MZ0O46GHJIMW1","38","0","AUGUST","10",,"0","10","6496",,,,,"1","2018-11-06 22:25:46","376199"
"A380GYV7QAHJ0F","cs_wg_mon_single_v1_pilot1","3R0T90IZ1SDO2VFECS14Z5FGTHPCGB","19","0","APRIL","10",,"0","10","5313",,,,,"1","2018-11-06 22:25:47","376200"
"A1COUACGJXNO2F","cs_wg_mon_single_v1_pilot1","37TD41K0AHARS0O57SVLOJYJHSISCA","51","0","FEBRUARY","11",,"0","8","4064",,,,,"0","2018-11-06 22:25:48","376201"
"A1YUK67SL5TWT0","cs_wg_mon_single_v1_pilot1","3JZQSN0I3QBV57ZO3UR57B0JQUHGFQ","32","0","MARCH","1",,"0","1","6387",,,,,"1","2018-11-06 22:25:48","376202"
"A1TBL7E87DYE6J","cs_wg_mon_single_v1_pilot1","3K3R2QNK8B459F96KDGU1UFZW40U9B","27","0","OCTOBER","7",,"0","4","5924",,,,,"0","2018-11-06 22:25:49","376203"
"A19HQR079PPH11","cs_wg_mon_single_v1_pilot1","3Z2R0DQ0JHFDKZRL94MANPLI4AXE2N","13","0","MAY","9",,"0","10","9970",,,,,"1","2018-11-06 22:25:51","376204"
"A1COUACGJXNO2F","cs_wg_mon_single_v1_pilot1","37TD41K0AHARS0O57SVLOJYJHSISCA","52","0","DECEMBER","5",,"0","8","4201",,,,,"0","2018-11-06 22:25:54","376205"
"ALBUUWRN9Q07U","cs_wg_mon_single_v1_pilot1","36NEMU28XFEX83H54MZ0O46GHJIMW1","39","0","MARCH","4",,"0","4","6773",,,,,"1","2018-11-06 22:25:55","376206"
"A380GYV7QAHJ0F","cs_wg_mon_single_v1_pilot1","3R0T90IZ1SDO2VFECS14Z5FGTHPCGB","20","0","DECEMBER","11",,"0","11","5587",,,,,"1","2018-11-06 22:25:57","376207"
"A1YUK67SL5TWT0","cs_wg_mon_single_v1_pilot1","3JZQSN0I3QBV57ZO3UR57B0JQUHGFQ","33","0","JUNE","3",,"0","3","7057",,,,,"1","2018-11-06 22:25:58","376208"
"A19HQR079PPH11","cs_wg_mon_single_v1_pilot1","3Z2R0DQ0JHFDKZRL94MANPLI4AXE2N","14","0","MAY","10",,"0","9","5451",,,,,"0","2018-11-06 22:25:59","376209"
"A1COUACGJXNO2F","cs_wg_mon_single_v1_pilot1","37TD41K0AHARS0O57SVLOJYJHSISCA","53","0","SEPTEMBER","4",,"0","12","3963",,,,,"0","2018-11-06 22:26:00","376210"
"A1TBL7E87DYE6J","cs_wg_mon_single_v1_pilot1","3K3R2QNK8B459F96KDGU1UFZW40U9B","28","0","APRIL","6",,"0","6","9372",,,,,"1","2018-11-06 22:26:03","376211"
"A380GYV7QAHJ0F","cs_wg_mon_single_v1_pilot1","3R0T90IZ1SDO2VFECS14Z5FGTHPCGB","21","0","MARCH","1",,"0","1","7354",,,,,"1","2018-11-06 22:26:07","376212"
"A1YUK67SL5TWT0","cs_wg_mon_single_v1_pilot1","3JZQSN0I3QBV57ZO3UR57B0JQUHGFQ","34","0","DECEMBER","10",,"0","10","7221",,,,,"1","2018-11-06 22:26:07","376213"
"ALBUUWRN9Q07U","cs_wg_mon_single_v1_pilot1","36NEMU28XFEX83H54MZ0O46GHJIMW1","40","0","DECEMBER","12",,"0","5","7635",,,,,"0","2018-11-06 22:26:07","376214"
"A1COUACGJXNO2F","cs_wg_mon_single_v1_pilot1","37TD41K0AHARS0O57SVLOJYJHSISCA","54","0","DECEMBER","7",,"0","3","3003",,,,,"0","2018-11-06 22:26:08","376215"
"A1TBL7E87DYE6J","cs_wg_mon_single_v1_pilot1","3K3R2QNK8B459F96KDGU1UFZW40U9B","29","0","JULY","1",,"0","1","5253",,,,,"1","2018-11-06 22:26:12","376216"
"A19HQR079PPH11","cs_wg_mon_single_v1_pilot1","3Z2R0DQ0JHFDKZRL94MANPLI4AXE2N","15","0","OCTOBER","11",,"0","11","9989",,,,,"1","2018-11-06 22:26:13","376217"
"ALBUUWRN9Q07U","cs_wg_mon_single_v1_pilot1","36NEMU28XFEX83H54MZ0O46GHJIMW1","41","0","OCTOBER","9",,"0","7","6910",,,,,"0","2018-11-06 22:26:16","376218"
"A1YUK67SL5TWT0","cs_wg_mon_single_v1_pilot1","3JZQSN0I3QBV57ZO3UR57B0JQUHGFQ","35","0","MARCH","12",,"0","12","7666",,,,,"1","2018-11-06 22:26:18","376219"
"A380GYV7QAHJ0F","cs_wg_mon_single_v1_pilot1","3R0T90IZ1SDO2VFECS14Z5FGTHPCGB","22","0","JANUARY","8",,"0","8","7451",,,,,"1","2018-11-06 22:26:18","376220"
"A1TBL7E87DYE6J","cs_wg_mon_single_v1_pilot1","3K3R2QNK8B459F96KDGU1UFZW40U9B","30","0","JULY","1",,"0","1","4543",,,,,"0","2018-11-06 22:26:19","376221"
"A1COUACGJXNO2F","cs_wg_mon_single_v1_pilot1","37TD41K0AHARS0O57SVLOJYJHSISCA","55","0","MARCH","2",,"0","7","11229",,,,,"0","2018-11-06 22:26:21","376222"
"A1YUK67SL5TWT0","cs_wg_mon_single_v1_pilot1","3JZQSN0I3QBV57ZO3UR57B0JQUHGFQ","36","0","JANUARY","8",,"0","8","3829",,,,,"1","2018-11-06 22:26:24","376223"
"ALBUUWRN9Q07U","cs_wg_mon_single_v1_pilot1","36NEMU28XFEX83H54MZ0O46GHJIMW1","42","0","APRIL","8",,"0","12","6003",,,,,"0","2018-11-06 22:26:25","376224"
"A380GYV7QAHJ0F","cs_wg_mon_single_v1_pilot1","3R0T90IZ1SDO2VFECS14Z5FGTHPCGB","23","0","APRIL","5",,"0","5","4768",,,,,"1","2018-11-06 22:26:26","376225"
"A1COUACGJXNO2F","cs_wg_mon_single_v1_pilot1","37TD41K0AHARS0O57SVLOJYJHSISCA","56","0","DECEMBER","6",,"0","6","3530",,,,,"0","2018-11-06 22:26:27","376226"
"A1CUGWGAVOV7YF","cs_wg_mon_single_v1_pilot1","37WLF8U1WPR4O02WSS9GBXFZ4CVK6U","0","0","SEPTEMBER","2",,"0","2","8464",,,,,"1","2018-11-06 22:26:29","376227"
"A1TBL7E87DYE6J","cs_wg_mon_single_v1_pilot1","3K3R2QNK8B459F96KDGU1UFZW40U9B","31","0","FEBRUARY","3",,"0","10","7391",,,,,"0","2018-11-06 22:26:29","376228"
"A1COUACGJXNO2F","cs_wg_mon_single_v1_pilot1","37TD41K0AHARS0O57SVLOJYJHSISCA","57","0","NOVEMBER","10",,"0","12","2790",,,,,"0","2018-11-06 22:26:31","376229"
"ALBUUWRN9Q07U","cs_wg_mon_single_v1_pilot1","36NEMU28XFEX83H54MZ0O46GHJIMW1","43","0","MARCH","2",,"0","4","6103",,,,,"0","2018-11-06 22:26:33","376230"
"A380GYV7QAHJ0F","cs_wg_mon_single_v1_pilot1","3R0T90IZ1SDO2VFECS14Z5FGTHPCGB","24","0","AUGUST","2",,"0","2","5127",,,,,"1","2018-11-06 22:26:34","376231"
"A1COUACGJXNO2F","cs_wg_mon_single_v1_pilot1","37TD41K0AHARS0O57SVLOJYJHSISCA","58","0","MARCH","8",,"0","5","2226",,,,,"0","2018-11-06 22:26:35","376232"
"A19HQR079PPH11","cs_wg_mon_single_v1_pilot1","3Z2R0DQ0JHFDKZRL94MANPLI4AXE2N","16","0","FEBRUARY","5",,"0","5","19837",,,,,"1","2018-11-06 22:26:38","376233"
"A1YUK67SL5TWT0","cs_wg_mon_single_v1_pilot1","3JZQSN0I3QBV57ZO3UR57B0JQUHGFQ","37","0","SEPTEMBER","3",,"0","3","11178",,,,,"1","2018-11-06 22:26:38","376234"
"A1TBL7E87DYE6J","cs_wg_mon_single_v1_pilot1","3K3R2QNK8B459F96KDGU1UFZW40U9B","32","0","MARCH","7",,"0","7","6138",,,,,"1","2018-11-06 22:26:39","376235"
"A1COUACGJXNO2F","cs_wg_mon_single_v1_pilot1","37TD41K0AHARS0O57SVLOJYJHSISCA","59","0","FEBRUARY","1",,"0","12","4208",,,,,"0","2018-11-06 22:26:42","376236"
"A380GYV7QAHJ0F","cs_wg_mon_single_v1_pilot1","3R0T90IZ1SDO2VFECS14Z5FGTHPCGB","25","0","APRIL","9",,"0","9","5860",,,,,"1","2018-11-06 22:26:43","376237"
"A1CUGWGAVOV7YF","cs_wg_mon_single_v1_pilot1","37WLF8U1WPR4O02WSS9GBXFZ4CVK6U","1","0","NOVEMBER","9",,"0","9","10894",,,,,"1","2018-11-06 22:26:44","376238"
"A1YUK67SL5TWT0","cs_wg_mon_single_v1_pilot1","3JZQSN0I3QBV57ZO3UR57B0JQUHGFQ","38","0","APRIL","2",,"0","2","4321",,,,,"1","2018-11-06 22:26:44","376239"
"ALBUUWRN9Q07U","cs_wg_mon_single_v1_pilot1","36NEMU28XFEX83H54MZ0O46GHJIMW1","44","0","SEPTEMBER","7",,"0","10","4855",,,,,"0","2018-11-06 22:26:46","376240"
"A19HQR079PPH11","cs_wg_mon_single_v1_pilot1","3Z2R0DQ0JHFDKZRL94MANPLI4AXE2N","17","0","JULY","1",,"0","2","7018",,,,,"0","2018-11-06 22:26:47","376241"
"A1COUACGJXNO2F","cs_wg_mon_single_v1_pilot1","37TD41K0AHARS0O57SVLOJYJHSISCA","60","0","OCTOBER","4",,"0","8","3634",,,,,"0","2018-11-06 22:26:47","376242"
"A1TBL7E87DYE6J","cs_wg_mon_single_v1_pilot1","3K3R2QNK8B459F96KDGU1UFZW40U9B","33","0","NOVEMBER","12",,"0","12","6947",,,,,"1","2018-11-06 22:26:49","376243"
"A380GYV7QAHJ0F","cs_wg_mon_single_v1_pilot1","3R0T90IZ1SDO2VFECS14Z5FGTHPCGB","26","0","AUGUST","4",,"0","4","5137",,,,,"1","2018-11-06 22:26:51","376244"
"A1COUACGJXNO2F","cs_wg_mon_single_v1_pilot1","37TD41K0AHARS0O57SVLOJYJHSISCA","61","0","MARCH","10",,"0","6","2836",,,,,"0","2018-11-06 22:26:52","376245"
"ALBUUWRN9Q07U","cs_wg_mon_single_v1_pilot1","36NEMU28XFEX83H54MZ0O46GHJIMW1","45","0","OCTOBER","7",,"0","11","6254",,,,,"0","2018-11-06 22:26:54","376246"
"A1COUACGJXNO2F","cs_wg_mon_single_v1_pilot1","37TD41K0AHARS0O57SVLOJYJHSISCA","62","0","AUGUST","7",,"0","7","3249",,,,,"0","2018-11-06 22:26:57","376247"
"A1YUK67SL5TWT0","cs_wg_mon_single_v1_pilot1","3JZQSN0I3QBV57ZO3UR57B0JQUHGFQ","39","0","MARCH","5",,"0","5","11088",,,,,"1","2018-11-06 22:26:57","376248"
"A1TBL7E87DYE6J","cs_wg_mon_single_v1_pilot1","3K3R2QNK8B459F96KDGU1UFZW40U9B","34","0","MAY","9",,"0","9","6472",,,,,"1","2018-11-06 22:26:58","376249"
"A1CUGWGAVOV7YF","cs_wg_mon_single_v1_pilot1","37WLF8U1WPR4O02WSS9GBXFZ4CVK6U","2","0","SEPTEMBER","8",,"0","8","7710",,,,,"1","2018-11-06 22:26:59","376250"
"A380GYV7QAHJ0F","cs_wg_mon_single_v1_pilot1","3R0T90IZ1SDO2VFECS14Z5FGTHPCGB","27","0","FEBRUARY","7",,"0","7","5886",,,,,"1","2018-11-06 22:27:00","376251"
"A1COUACGJXNO2F","cs_wg_mon_single_v1_pilot1","37TD41K0AHARS0O57SVLOJYJHSISCA","63","0","JANUARY","5",,"0","11","2429",,,,,"0","2018-11-06 22:27:01","376252"
"A1COUACGJXNO2F","cs_wg_mon_single_v1_pilot1","37TD41K0AHARS0O57SVLOJYJHSISCA","64","0","OCTOBER","4",,"0","5","2766",,,,,"0","2018-11-06 22:27:06","376253"
"A19HQR079PPH11","cs_wg_mon_single_v1_pilot1","3Z2R0DQ0JHFDKZRL94MANPLI4AXE2N","18","0","MARCH","3",,"0","3","9043",,,,,"1","2018-11-06 22:27:06","376254"
"A1SDGH6LQWL91Z","cs_wg_mon_single_v1_pilot1","3V5Q80FXIXSAA1BOKK5E4YHLDL723K","0","0","MARCH","1",,"0","1","13482",,,,,"1","2018-11-06 22:27:07","376255"
"A380GYV7QAHJ0F","cs_wg_mon_single_v1_pilot1","3R0T90IZ1SDO2VFECS14Z5FGTHPCGB","28","0","OCTOBER","1",,"0","1","6135",,,,,"1","2018-11-06 22:27:08","376256"
"A1TBL7E87DYE6J","cs_wg_mon_single_v1_pilot1","3K3R2QNK8B459F96KDGU1UFZW40U9B","35","0","APRIL","7",,"0","7","9393",,,,,"1","2018-11-06 22:27:10","376257"
"A1YUK67SL5TWT0","cs_wg_mon_single_v1_pilot1","3JZQSN0I3QBV57ZO3UR57B0JQUHGFQ","40","0","OCTOBER","1",,"0","7","10162",,,,,"0","2018-11-06 22:27:11","376258"
"A1CUGWGAVOV7YF","cs_wg_mon_single_v1_pilot1","37WLF8U1WPR4O02WSS9GBXFZ4CVK6U","3","0","JANUARY","6",,"0","6","7570",,,,,"1","2018-11-06 22:27:13","376259"
"A1COUACGJXNO2F","cs_wg_mon_single_v1_pilot1","37TD41K0AHARS0O57SVLOJYJHSISCA","65","0","FEBRUARY","2",,"0","10","6055",,,,,"0","2018-11-06 22:27:14","376260"
"A1SDGH6LQWL91Z","cs_wg_mon_single_v1_pilot1","3V5Q80FXIXSAA1BOKK5E4YHLDL723K","1","0","SEPTEMBER","8",,"0","8","8113",,,,,"1","2018-11-06 22:27:18","376261"
"A1COUACGJXNO2F","cs_wg_mon_single_v1_pilot1","37TD41K0AHARS0O57SVLOJYJHSISCA","66","0","DECEMBER","11",,"0","12","2185",,,,,"0","2018-11-06 22:27:18","376262"
"A1TBL7E87DYE6J","cs_wg_mon_single_v1_pilot1","3K3R2QNK8B459F96KDGU1UFZW40U9B","36","0","MAY","10",,"0","5","5116",,,,,"0","2018-11-06 22:27:18","376263"
"A1COUACGJXNO2F","cs_wg_mon_single_v1_pilot1","37TD41K0AHARS0O57SVLOJYJHSISCA","67","0","AUGUST","6",,"0","11","3536",,,,,"0","2018-11-06 22:27:24","376264"
"A1CUGWGAVOV7YF","cs_wg_mon_single_v1_pilot1","37WLF8U1WPR4O02WSS9GBXFZ4CVK6U","4","0","DECEMBER","6",,"0","6","8802",,,,,"1","2018-11-06 22:27:25","376265"
"A380GYV7QAHJ0F","cs_wg_mon_single_v1_pilot1","3R0T90IZ1SDO2VFECS14Z5FGTHPCGB","29","0","DECEMBER","4",,"0","4","13907",,,,,"1","2018-11-06 22:27:25","376266"
"A1YUK67SL5TWT0","cs_wg_mon_single_v1_pilot1","3JZQSN0I3QBV57ZO3UR57B0JQUHGFQ","41","0","JANUARY","9",,"0","2","10686",,,,,"0","2018-11-06 22:27:26","376267"
"A1TBL7E87DYE6J","cs_wg_mon_single_v1_pilot1","3K3R2QNK8B459F96KDGU1UFZW40U9B","37","0","JUNE","1",,"0","6","4307",,,,,"0","2018-11-06 22:27:26","376268"
"ALBUUWRN9Q07U","cs_wg_mon_single_v1_pilot1","36NEMU28XFEX83H54MZ0O46GHJIMW1","46","0","NOVEMBER","8",,"0","11","27294",,,,,"0","2018-11-06 22:27:26","376269"
"A1SDGH6LQWL91Z","cs_wg_mon_single_v1_pilot1","3V5Q80FXIXSAA1BOKK5E4YHLDL723K","2","0","DECEMBER","11",,"0","11","6081",,,,,"1","2018-11-06 22:27:26","376270"
"A1COUACGJXNO2F","cs_wg_mon_single_v1_pilot1","37TD41K0AHARS0O57SVLOJYJHSISCA","68","0","JUNE","1",,"0","11","2514",,,,,"0","2018-11-06 22:27:28","376271"
"A19HQR079PPH11","cs_wg_mon_single_v1_pilot1","3Z2R0DQ0JHFDKZRL94MANPLI4AXE2N","19","0","FEBRUARY","8",,"0","3","14562",,,,,"0","2018-11-06 22:27:29","376272"
"A1COUACGJXNO2F","cs_wg_mon_single_v1_pilot1","37TD41K0AHARS0O57SVLOJYJHSISCA","69","0","JUNE","12",,"0","12","1587",,,,,"0","2018-11-06 22:27:32","376273"
"ALBUUWRN9Q07U","cs_wg_mon_single_v1_pilot1","36NEMU28XFEX83H54MZ0O46GHJIMW1","47","0","JUNE","7",,"0","5","4572",,,,,"0","2018-11-06 22:27:32","376274"
"A380GYV7QAHJ0F","cs_wg_mon_single_v1_pilot1","3R0T90IZ1SDO2VFECS14Z5FGTHPCGB","30","0","JANUARY","2",,"0","2","5310",,,,,"1","2018-11-06 22:27:33","376275"
"A1COUACGJXNO2F","cs_wg_mon_single_v1_pilot1","37TD41K0AHARS0O57SVLOJYJHSISCA","70","0","NOVEMBER","11",,"0","5","1842",,,,,"0","2018-11-06 22:27:36","376276"
"A1CUGWGAVOV7YF","cs_wg_mon_single_v1_pilot1","37WLF8U1WPR4O02WSS9GBXFZ4CVK6U","5","0","MARCH","11",,"0","11","4956",,,,,"1","2018-11-06 22:27:36","376277"
"A1YUK67SL5TWT0","cs_wg_mon_single_v1_pilot1","3JZQSN0I3QBV57ZO3UR57B0JQUHGFQ","42","0","JANUARY","10",,"0","3","7302",,,,,"0","2018-11-06 22:27:36","376278"
"A1TBL7E87DYE6J","cs_wg_mon_single_v1_pilot1","3K3R2QNK8B459F96KDGU1UFZW40U9B","38","0","JULY","3",,"0","3","8064",,,,,"1","2018-11-06 22:27:38","376279"
"A1COUACGJXNO2F","cs_wg_mon_single_v1_pilot1","37TD41K0AHARS0O57SVLOJYJHSISCA","71","0","JULY","11",,"0","11","1185",,,,,"0","2018-11-06 22:27:42","376280"
"A1SDGH6LQWL91Z","cs_wg_mon_single_v1_pilot1","3V5Q80FXIXSAA1BOKK5E4YHLDL723K","3","0","NOVEMBER","6",,"0","6","11457",,,,,"1","2018-11-06 22:27:42","376281"
"ALBUUWRN9Q07U","cs_wg_mon_single_v1_pilot1","36NEMU28XFEX83H54MZ0O46GHJIMW1","48","0","JULY","5",,"0","4","5856",,,,,"0","2018-11-06 22:27:42","376282"
"A1COUACGJXNO2F","cs_wg_mon_single_v1_pilot1","37TD41K0AHARS0O57SVLOJYJHSISCA","72","0","FEBRUARY","8",,"0","12","1137",,,,,"0","2018-11-06 22:27:42","376283"
"A380GYV7QAHJ0F","cs_wg_mon_single_v1_pilot1","3R0T90IZ1SDO2VFECS14Z5FGTHPCGB","31","0","NOVEMBER","10",,"0","10","5912",,,,,"1","2018-11-06 22:27:43","376284"
"A1COUACGJXNO2F","cs_wg_mon_single_v1_pilot1","37TD41K0AHARS0O57SVLOJYJHSISCA","73","0","JUNE","10",,"0","6","1320",,,,,"0","2018-11-06 22:27:45","376285"
"A1CUGWGAVOV7YF","cs_wg_mon_single_v1_pilot1","37WLF8U1WPR4O02WSS9GBXFZ4CVK6U","6","0","OCTOBER","12",,"0","12","9481",,,,,"1","2018-11-06 22:27:48","376286"
"A1SDGH6LQWL91Z","cs_wg_mon_single_v1_pilot1","3V5Q80FXIXSAA1BOKK5E4YHLDL723K","4","0","APRIL","11",,"0","11","5073",,,,,"1","2018-11-06 22:27:48","376287"
"A1YUK67SL5TWT0","cs_wg_mon_single_v1_pilot1","3JZQSN0I3QBV57ZO3UR57B0JQUHGFQ","43","0","SEPTEMBER","4",,"0","12","9061",,,,,"0","2018-11-06 22:27:48","376288"
"ALBUUWRN9Q07U","cs_wg_mon_single_v1_pilot1","36NEMU28XFEX83H54MZ0O46GHJIMW1","49","0","SEPTEMBER","4",,"0","10","5681",,,,,"0","2018-11-06 22:27:48","376289"
"A1COUACGJXNO2F","cs_wg_mon_single_v1_pilot1","37TD41K0AHARS0O57SVLOJYJHSISCA","74","0","MAY","8",,"0","8","3191",,,,,"0","2018-11-06 22:27:50","376290"
"A1TBL7E87DYE6J","cs_wg_mon_single_v1_pilot1","3K3R2QNK8B459F96KDGU1UFZW40U9B","39","0","JULY","5",,"0","3","4271",,,,,"0","2018-11-06 22:27:50","376291"
"A380GYV7QAHJ0F","cs_wg_mon_single_v1_pilot1","3R0T90IZ1SDO2VFECS14Z5FGTHPCGB","32","0","NOVEMBER","3",,"0","3","5532",,,,,"1","2018-11-06 22:27:51","376292"
"ALBUUWRN9Q07U","cs_wg_mon_single_v1_pilot1","36NEMU28XFEX83H54MZ0O46GHJIMW1","50","0","OCTOBER","7",,"0","8","3160",,,,,"0","2018-11-06 22:27:53","376293"
"A1COUACGJXNO2F","cs_wg_mon_single_v1_pilot1","37TD41K0AHARS0O57SVLOJYJHSISCA","75","0","SEPTEMBER","7",,"0","11","1604",,,,,"0","2018-11-06 22:27:54","376294"
"A1COUACGJXNO2F","cs_wg_mon_single_v1_pilot1","37TD41K0AHARS0O57SVLOJYJHSISCA","76","0","JUNE","7",,"0","8","1712",,,,,"0","2018-11-06 22:27:57","376295"
"A19HQR079PPH11","cs_wg_mon_single_v1_pilot1","3Z2R0DQ0JHFDKZRL94MANPLI4AXE2N","20","0","JUNE","2",,"0","2","25664",,,,,"1","2018-11-06 22:27:57","376296"
"A1YUK67SL5TWT0","cs_wg_mon_single_v1_pilot1","3JZQSN0I3QBV57ZO3UR57B0JQUHGFQ","44","0","JUNE","9",,"0","2","7011",,,,,"0","2018-11-06 22:27:59","376297"
"A380GYV7QAHJ0F","cs_wg_mon_single_v1_pilot1","3R0T90IZ1SDO2VFECS14Z5FGTHPCGB","33","0","MARCH","1",,"0","1","5313",,,,,"1","2018-11-06 22:27:59","376298"
"A1COUACGJXNO2F","cs_wg_mon_single_v1_pilot1","37TD41K0AHARS0O57SVLOJYJHSISCA","77","0","MARCH","6",,"0","11","1289",,,,,"0","2018-11-06 22:28:00","376299"
"ALBUUWRN9Q07U","cs_wg_mon_single_v1_pilot1","36NEMU28XFEX83H54MZ0O46GHJIMW1","51","0","NOVEMBER","8",,"0","12","5105",,,,,"0","2018-11-06 22:28:00","376300"
"A1CUGWGAVOV7YF","cs_wg_mon_single_v1_pilot1","37WLF8U1WPR4O02WSS9GBXFZ4CVK6U","7","0","AUGUST","8",,"0","8","8212",,,,,"1","2018-11-06 22:28:00","376301"
"A1COUACGJXNO2F","cs_wg_mon_single_v1_pilot1","37TD41K0AHARS0O57SVLOJYJHSISCA","78","0","APRIL","8",,"0","12","886",,,,,"0","2018-11-06 22:28:03","376302"
"A1TBL7E87DYE6J","cs_wg_mon_single_v1_pilot1","3K3R2QNK8B459F96KDGU1UFZW40U9B","40","0","DECEMBER","6",,"0","4","10121",,,,,"0","2018-11-06 22:28:05","376303"
"A1COUACGJXNO2F","cs_wg_mon_single_v1_pilot1","37TD41K0AHARS0O57SVLOJYJHSISCA","79","0","AUGUST","7",,"0","11","2118",,,,,"0","2018-11-06 22:28:07","376304"
"A380GYV7QAHJ0F","cs_wg_mon_single_v1_pilot1","3R0T90IZ1SDO2VFECS14Z5FGTHPCGB","34","0","SEPTEMBER","4",,"0","4","4994",,,,,"1","2018-11-06 22:28:07","376305"
"ALBUUWRN9Q07U","cs_wg_mon_single_v1_pilot1","36NEMU28XFEX83H54MZ0O46GHJIMW1","52","0","AUGUST","6",,"0","5","4447",,,,,"0","2018-11-06 22:28:07","376306"
"A1COUACGJXNO2F","cs_wg_mon_single_v1_pilot1","37TD41K0AHARS0O57SVLOJYJHSISCA","80","0","SEPTEMBER","4",,"0","8","2252",,,,,"0","2018-11-06 22:28:11","376307"
"ALBUUWRN9Q07U","cs_wg_mon_single_v1_pilot1","36NEMU28XFEX83H54MZ0O46GHJIMW1","53","0","JANUARY","9",,"0","7","2485",,,,,"0","2018-11-06 22:28:12","376308"
"A1CUGWGAVOV7YF","cs_wg_mon_single_v1_pilot1","37WLF8U1WPR4O02WSS9GBXFZ4CVK6U","8","0","SEPTEMBER","7",,"0","7","5046",,,,,"1","2018-11-06 22:28:13","376309"
"A19HQR079PPH11","cs_wg_mon_single_v1_pilot1","3Z2R0DQ0JHFDKZRL94MANPLI4AXE2N","21","0","NOVEMBER","9",,"0","2","7298",,,,,"0","2018-11-06 22:28:14","376310"
"A1TBL7E87DYE6J","cs_wg_mon_single_v1_pilot1","3K3R2QNK8B459F96KDGU1UFZW40U9B","41","0","NOVEMBER","3",,"0","2","4632",,,,,"0","2018-11-06 22:28:14","376311"
"A1COUACGJXNO2F","cs_wg_mon_single_v1_pilot1","37TD41K0AHARS0O57SVLOJYJHSISCA","81","0","MARCH","2",,"0","11","2434",,,,,"0","2018-11-06 22:28:15","376312"
"A1YUK67SL5TWT0","cs_wg_mon_single_v1_pilot1","3JZQSN0I3QBV57ZO3UR57B0JQUHGFQ","45","0","JULY","1",,"0","6","15232",,,,,"0","2018-11-06 22:28:17","376313"
"A380GYV7QAHJ0F","cs_wg_mon_single_v1_pilot1","3R0T90IZ1SDO2VFECS14Z5FGTHPCGB","35","0","JULY","12",,"0","12","7411",,,,,"1","2018-11-06 22:28:17","376314"
"A1COUACGJXNO2F","cs_wg_mon_single_v1_pilot1","37TD41K0AHARS0O57SVLOJYJHSISCA","82","0","JULY","4",,"0","3","1514",,,,,"0","2018-11-06 22:28:19","376315"
"ALBUUWRN9Q07U","cs_wg_mon_single_v1_pilot1","36NEMU28XFEX83H54MZ0O46GHJIMW1","54","0","DECEMBER","9",,"0","12","5502",,,,,"0","2018-11-06 22:28:19","376316"
"A1SDGH6LQWL91Z","cs_wg_mon_single_v1_pilot1","3V5Q80FXIXSAA1BOKK5E4YHLDL723K","5","0","AUGUST","6",,"0","6","30378",,,,,"1","2018-11-06 22:28:21","376317"
"A1COUACGJXNO2F","cs_wg_mon_single_v1_pilot1","37TD41K0AHARS0O57SVLOJYJHSISCA","83","0","NOVEMBER","1",,"0","7","1463",,,,,"0","2018-11-06 22:28:22","376318"
"A1TBL7E87DYE6J","cs_wg_mon_single_v1_pilot1","3K3R2QNK8B459F96KDGU1UFZW40U9B","42","0","OCTOBER","2",,"0","2","4222",,,,,"0","2018-11-06 22:28:23","376319"
"A1CUGWGAVOV7YF","cs_wg_mon_single_v1_pilot1","37WLF8U1WPR4O02WSS9GBXFZ4CVK6U","9","0","FEBRUARY","8",,"0","8","7918",,,,,"1","2018-11-06 22:28:23","376320"
"ALBUUWRN9Q07U","cs_wg_mon_single_v1_pilot1","36NEMU28XFEX83H54MZ0O46GHJIMW1","55","0","SEPTEMBER","5",,"0","8","3307",,,,,"0","2018-11-06 22:28:25","376321"
"A1COUACGJXNO2F","cs_wg_mon_single_v1_pilot1","37TD41K0AHARS0O57SVLOJYJHSISCA","84","0","OCTOBER","10",,"0","12","1677",,,,,"0","2018-11-06 22:28:25","376322"
"A1YUK67SL5TWT0","cs_wg_mon_single_v1_pilot1","3JZQSN0I3QBV57ZO3UR57B0JQUHGFQ","46","0","DECEMBER","7",,"0","5","8712",,,,,"0","2018-11-06 22:28:27","376323"
"A19HQR079PPH11","cs_wg_mon_single_v1_pilot1","3Z2R0DQ0JHFDKZRL94MANPLI4AXE2N","22","0","JUNE","12",,"0","2","5955",,,,,"0","2018-11-06 22:28:28","376324"
"A380GYV7QAHJ0F","cs_wg_mon_single_v1_pilot1","3R0T90IZ1SDO2VFECS14Z5FGTHPCGB","36","0","DECEMBER","5",,"0","5","7535",,,,,"1","2018-11-06 22:28:28","376325"
"A1COUACGJXNO2F","cs_wg_mon_single_v1_pilot1","37TD41K0AHARS0O57SVLOJYJHSISCA","85","0","APRIL","5",,"0","7","1261",,,,,"0","2018-11-06 22:28:29","376326"
"ALBUUWRN9Q07U","cs_wg_mon_single_v1_pilot1","36NEMU28XFEX83H54MZ0O46GHJIMW1","56","0","NOVEMBER","1",,"0","7","2426",,,,,"0","2018-11-06 22:28:29","376327"
"A1COUACGJXNO2F","cs_wg_mon_single_v1_pilot1","37TD41K0AHARS0O57SVLOJYJHSISCA","86","0","MAY","7",,"0","8","1229",,,,,"0","2018-11-06 22:28:32","376328"
"A1YUK67SL5TWT0","cs_wg_mon_single_v1_pilot1","3JZQSN0I3QBV57ZO3UR57B0JQUHGFQ","47","0","FEBRUARY","12",,"0","3","4017",,,,,"0","2018-11-06 22:28:33","376329"
"A1COUACGJXNO2F","cs_wg_mon_single_v1_pilot1","37TD41K0AHARS0O57SVLOJYJHSISCA","87","0","JANUARY","11",,"0","9","967",,,,,"0","2018-11-06 22:28:35","376330"
"A1CUGWGAVOV7YF","cs_wg_mon_single_v1_pilot1","37WLF8U1WPR4O02WSS9GBXFZ4CVK6U","10","0","JUNE","9",,"0","9","5135",,,,,"1","2018-11-06 22:28:35","376331"
"A1TBL7E87DYE6J","cs_wg_mon_single_v1_pilot1","3K3R2QNK8B459F96KDGU1UFZW40U9B","43","0","AUGUST","10",,"0","6","8651",,,,,"0","2018-11-06 22:28:36","376332"
"A1COUACGJXNO2F","cs_wg_mon_single_v1_pilot1","37TD41K0AHARS0O57SVLOJYJHSISCA","88","0","JANUARY","11",,"0","10","1865",,,,,"0","2018-11-06 22:28:38","376333"
"A1YUK67SL5TWT0","cs_wg_mon_single_v1_pilot1","3JZQSN0I3QBV57ZO3UR57B0JQUHGFQ","48","0","OCTOBER","10",,"0","7","3071",,,,,"0","2018-11-06 22:28:39","376334"
"A380GYV7QAHJ0F","cs_wg_mon_single_v1_pilot1","3R0T90IZ1SDO2VFECS14Z5FGTHPCGB","37","0","MARCH","11",,"0","11","7804",,,,,"1","2018-11-06 22:28:39","376335"
"ALBUUWRN9Q07U","cs_wg_mon_single_v1_pilot1","36NEMU28XFEX83H54MZ0O46GHJIMW1","57","0","FEBRUARY","5",,"0","4","5138",,,,,"0","2018-11-06 22:28:39","376336"
"A1COUACGJXNO2F","cs_wg_mon_single_v1_pilot1","37TD41K0AHARS0O57SVLOJYJHSISCA","89","0","NOVEMBER","2",,"0","12","1143",,,,,"0","2018-11-06 22:28:41","376337"
"A1COUACGJXNO2F","cs_wg_mon_single_v1_pilot1","37TD41K0AHARS0O57SVLOJYJHSISCA","90","0","MARCH","1",,"0","13","1361",,,,,"0","2018-11-06 22:28:44","376338"
"A1CUGWGAVOV7YF","cs_wg_mon_single_v1_pilot1","37WLF8U1WPR4O02WSS9GBXFZ4CVK6U","11","0","FEBRUARY","11",,"0","11","4563",,,,,"1","2018-11-06 22:28:45","376339"
"A1YUK67SL5TWT0","cs_wg_mon_single_v1_pilot1","3JZQSN0I3QBV57ZO3UR57B0JQUHGFQ","49","0","APRIL","10",,"0","12","3801",,,,,"0","2018-11-06 22:28:45","376340"
"A19HQR079PPH11","cs_wg_mon_single_v1_pilot1","3Z2R0DQ0JHFDKZRL94MANPLI4AXE2N","23","0","AUGUST","1",,"0","1","14459",,,,,"1","2018-11-06 22:28:45","376341"
"A1TBL7E87DYE6J","cs_wg_mon_single_v1_pilot1","3K3R2QNK8B459F96KDGU1UFZW40U9B","44","0","AUGUST","3",,"0","10","4046",,,,,"0","2018-11-06 22:28:45","376342"
"ALBUUWRN9Q07U","cs_wg_mon_single_v1_pilot1","36NEMU28XFEX83H54MZ0O46GHJIMW1","58","0","AUGUST","5",,"0","12","2114",,,,,"0","2018-11-06 22:28:47","376343"
"A380GYV7QAHJ0F","cs_wg_mon_single_v1_pilot1","3R0T90IZ1SDO2VFECS14Z5FGTHPCGB","38","0","MAY","1",,"0","1","5346",,,,,"1","2018-11-06 22:28:47","376344"
"A1COUACGJXNO2F","cs_wg_mon_single_v1_pilot1","37TD41K0AHARS0O57SVLOJYJHSISCA","91","0","JANUARY","12",,"0","11","1413",,,,,"0","2018-11-06 22:28:48","376345"
"A1YUK67SL5TWT0","cs_wg_mon_single_v1_pilot1","3JZQSN0I3QBV57ZO3UR57B0JQUHGFQ","50","0","DECEMBER","3",,"0","9","3320",,,,,"0","2018-11-06 22:28:50","376346"
"A1COUACGJXNO2F","cs_wg_mon_single_v1_pilot1","37TD41K0AHARS0O57SVLOJYJHSISCA","92","0","FEBRUARY","6",,"0","12","1078",,,,,"0","2018-11-06 22:28:50","376347"
"A1COUACGJXNO2F","cs_wg_mon_single_v1_pilot1","37TD41K0AHARS0O57SVLOJYJHSISCA","93","0","SEPTEMBER","5",,"0","11","1051",,,,,"0","2018-11-06 22:28:53","376348"
"ALBUUWRN9Q07U","cs_wg_mon_single_v1_pilot1","36NEMU28XFEX83H54MZ0O46GHJIMW1","59","0","AUGUST","5",,"0","8","2239",,,,,"0","2018-11-06 22:28:54","376349"
"A1YUK67SL5TWT0","cs_wg_mon_single_v1_pilot1","3JZQSN0I3QBV57ZO3UR57B0JQUHGFQ","51","0","NOVEMBER","11",,"0","9","3600",,,,,"0","2018-11-06 22:28:56","376350"
"A1SDGH6LQWL91Z","cs_wg_mon_single_v1_pilot1","3V5Q80FXIXSAA1BOKK5E4YHLDL723K","6","0","OCTOBER","2",,"0","2","14601",,,,,"1","2018-11-06 22:28:56","376351"
"A1TBL7E87DYE6J","cs_wg_mon_single_v1_pilot1","3K3R2QNK8B459F96KDGU1UFZW40U9B","45","0","JULY","8",,"0","3","5614",,,,,"0","2018-11-06 22:28:57","376352"
"A1COUACGJXNO2F","cs_wg_mon_single_v1_pilot1","37TD41K0AHARS0O57SVLOJYJHSISCA","94","0","AUGUST","9",,"0","5","2003",,,,,"0","2018-11-06 22:28:57","376353"
"A380GYV7QAHJ0F","cs_wg_mon_single_v1_pilot1","3R0T90IZ1SDO2VFECS14Z5FGTHPCGB","39","0","AUGUST","2",,"0","2","6903",,,,,"1","2018-11-06 22:28:57","376354"
"A1CUGWGAVOV7YF","cs_wg_mon_single_v1_pilot1","37WLF8U1WPR4O02WSS9GBXFZ4CVK6U","12","0","MARCH","10",,"0","10","8196",,,,,"1","2018-11-06 22:28:57","376355"
"ALBUUWRN9Q07U","cs_wg_mon_single_v1_pilot1","36NEMU28XFEX83H54MZ0O46GHJIMW1","60","0","JULY","4",,"0","8","3135",,,,,"0","2018-11-06 22:28:59","376356"
"A1COUACGJXNO2F","cs_wg_mon_single_v1_pilot1","37TD41K0AHARS0O57SVLOJYJHSISCA","95","0","SEPTEMBER","3",,"0","6","1193",,,,,"0","2018-11-06 22:29:00","376357"
"A1YUK67SL5TWT0","cs_wg_mon_single_v1_pilot1","3JZQSN0I3QBV57ZO3UR57B0JQUHGFQ","52","0","JANUARY","11",,"0","2","3036",,,,,"0","2018-11-06 22:29:01","376358"
"A19HQR079PPH11","cs_wg_mon_single_v1_pilot1","3Z2R0DQ0JHFDKZRL94MANPLI4AXE2N","24","0","APRIL","1",,"0","4","7259",,,,,"0","2018-11-06 22:29:03","376359"
"A1TBL7E87DYE6J","cs_wg_mon_single_v1_pilot1","3K3R2QNK8B459F96KDGU1UFZW40U9B","46","0","MAY","1",,"0","4","3736",,,,,"0","2018-11-06 22:29:04","376360"
"A1COUACGJXNO2F","cs_wg_mon_single_v1_pilot1","37TD41K0AHARS0O57SVLOJYJHSISCA","96","0","MARCH","3",,"0","12","3528",,,,,"0","2018-11-06 22:29:05","376361"
"A380GYV7QAHJ0F","cs_wg_mon_single_v1_pilot1","3R0T90IZ1SDO2VFECS14Z5FGTHPCGB","40","0","AUGUST","9",,"0","4","5787",,,,,"0","2018-11-06 22:29:06","376362"
"A1YUK67SL5TWT0","cs_wg_mon_single_v1_pilot1","3JZQSN0I3QBV57ZO3UR57B0JQUHGFQ","53","0","JUNE","5",,"0","4","3493",,,,,"0","2018-11-06 22:29:06","376363"
"A1CUGWGAVOV7YF","cs_wg_mon_single_v1_pilot1","37WLF8U1WPR4O02WSS9GBXFZ4CVK6U","13","0","NOVEMBER","3",,"0","3","8476",,,,,"1","2018-11-06 22:29:08","376364"
"A1COUACGJXNO2F","cs_wg_mon_single_v1_pilot1","37TD41K0AHARS0O57SVLOJYJHSISCA","97","0","FEBRUARY","1",,"0","9","2017",,,,,"0","2018-11-06 22:29:09","376365"
"A1COUACGJXNO2F","cs_wg_mon_single_v1_pilot1","37TD41K0AHARS0O57SVLOJYJHSISCA","98","0","AUGUST","8",,"0","8","987",,,,,"0","2018-11-06 22:29:11","376366"
"A1SDGH6LQWL91Z","cs_wg_mon_single_v1_pilot1","3V5Q80FXIXSAA1BOKK5E4YHLDL723K","7","0","APRIL","3",,"0","3","13955",,,,,"1","2018-11-06 22:29:12","376367"
"A380GYV7QAHJ0F","cs_wg_mon_single_v1_pilot1","3R0T90IZ1SDO2VFECS14Z5FGTHPCGB","41","0","MAY","7",,"0","6","4804",,,,,"0","2018-11-06 22:29:13","376368"
"ALBUUWRN9Q07U","cs_wg_mon_single_v1_pilot1","36NEMU28XFEX83H54MZ0O46GHJIMW1","61","0","MAY","3",,"0","10","10582",,,,,"0","2018-11-06 22:29:14","376369"
"A1COUACGJXNO2F","cs_wg_mon_single_v1_pilot1","37TD41K0AHARS0O57SVLOJYJHSISCA","99","0","JULY","7",,"0","11","964",,,,,"0","2018-11-06 22:29:14","376370"
"A1TBL7E87DYE6J","cs_wg_mon_single_v1_pilot1","3K3R2QNK8B459F96KDGU1UFZW40U9B","47","0","NOVEMBER","7",,"0","3","7222",,,,,"0","2018-11-06 22:29:15","376371"
"A1COUACGJXNO2F","cs_wg_mon_single_v1_pilot1","37TD41K0AHARS0O57SVLOJYJHSISCA","100","0","FEBRUARY","12",,"0","12","956",,,,,"0","2018-11-06 22:29:17","376372"
"A1YUK67SL5TWT0","cs_wg_mon_single_v1_pilot1","3JZQSN0I3QBV57ZO3UR57B0JQUHGFQ","54","0","FEBRUARY","9",,"0","11","8499",,,,,"0","2018-11-06 22:29:17","376373"
"ALBUUWRN9Q07U","cs_wg_mon_single_v1_pilot1","36NEMU28XFEX83H54MZ0O46GHJIMW1","62","0","MAY","6",,"0","2","1731",,,,,"0","2018-11-06 22:29:18","376374"
"A1CUGWGAVOV7YF","cs_wg_mon_single_v1_pilot1","37WLF8U1WPR4O02WSS9GBXFZ4CVK6U","14","0","JUNE","8",,"0","8","7988",,,,,"1","2018-11-06 22:29:18","376375"
"A1COUACGJXNO2F","cs_wg_mon_single_v1_pilot1","37TD41K0AHARS0O57SVLOJYJHSISCA","101","0","NOVEMBER","8",,"0","7","1735",,,,,"0","2018-11-06 22:29:20","376376"
"A380GYV7QAHJ0F","cs_wg_mon_single_v1_pilot1","3R0T90IZ1SDO2VFECS14Z5FGTHPCGB","42","0","FEBRUARY","6",,"0","4","4475",,,,,"0","2018-11-06 22:29:20","376377"
"A1YUK67SL5TWT0","cs_wg_mon_single_v1_pilot1","3JZQSN0I3QBV57ZO3UR57B0JQUHGFQ","55","0","MAY","2",,"0","3","2449",,,,,"0","2018-11-06 22:29:22","376378"
"A1TBL7E87DYE6J","cs_wg_mon_single_v1_pilot1","3K3R2QNK8B459F96KDGU1UFZW40U9B","48","0","OCTOBER","5",,"0","3","3922",,,,,"0","2018-11-06 22:29:22","376379"
"A1COUACGJXNO2F","cs_wg_mon_single_v1_pilot1","37TD41K0AHARS0O57SVLOJYJHSISCA","102","0","NOVEMBER","8",,"0","9","1460",,,,,"0","2018-11-06 22:29:23","376380"
"A1SDGH6LQWL91Z","cs_wg_mon_single_v1_pilot1","3V5Q80FXIXSAA1BOKK5E4YHLDL723K","8","0","MARCH","9",,"0","9","8385",,,,,"1","2018-11-06 22:29:23","376381"
"ALBUUWRN9Q07U","cs_wg_mon_single_v1_pilot1","36NEMU28XFEX83H54MZ0O46GHJIMW1","63","0","DECEMBER","5",,"0","3","4200",,,,,"0","2018-11-06 22:29:26","376382"
"A1COUACGJXNO2F","cs_wg_mon_single_v1_pilot1","37TD41K0AHARS0O57SVLOJYJHSISCA","103","0","JANUARY","3",,"0","12","1049",,,,,"0","2018-11-06 22:29:26","376383"
"A19HQR079PPH11","cs_wg_mon_single_v1_pilot1","3Z2R0DQ0JHFDKZRL94MANPLI4AXE2N","25","0","SEPTEMBER","6",,"0","6","21251",,,,,"1","2018-11-06 22:29:27","376384"
"A1YUK67SL5TWT0","cs_wg_mon_single_v1_pilot1","3JZQSN0I3QBV57ZO3UR57B0JQUHGFQ","56","0","AUGUST","10",,"0","12","3778",,,,,"0","2018-11-06 22:29:27","376385"
"A1CUGWGAVOV7YF","cs_wg_mon_single_v1_pilot1","37WLF8U1WPR4O02WSS9GBXFZ4CVK6U","15","0","AUGUST","12",,"0","12","7231",,,,,"1","2018-11-06 22:29:28","376386"
"A380GYV7QAHJ0F","cs_wg_mon_single_v1_pilot1","3R0T90IZ1SDO2VFECS14Z5FGTHPCGB","43","0","JUNE","6",,"0","9","4890",,,,,"0","2018-11-06 22:29:28","376387"
"ALBUUWRN9Q07U","cs_wg_mon_single_v1_pilot1","36NEMU28XFEX83H54MZ0O46GHJIMW1","64","0","MARCH","10",,"0","5","1440",,,,,"0","2018-11-06 22:29:29","376388"
"A1COUACGJXNO2F","cs_wg_mon_single_v1_pilot1","37TD41K0AHARS0O57SVLOJYJHSISCA","104","0","AUGUST","5",,"0","11","1691",,,,,"0","2018-11-06 22:29:30","376389"
"A1COUACGJXNO2F","cs_wg_mon_single_v1_pilot1","37TD41K0AHARS0O57SVLOJYJHSISCA","105","0","OCTOBER","9",,"0","11","1150",,,,,"0","2018-11-06 22:29:33","376390"
"A1TBL7E87DYE6J","cs_wg_mon_single_v1_pilot1","3K3R2QNK8B459F96KDGU1UFZW40U9B","49","0","AUGUST","4",,"0","9","7233",,,,,"0","2018-11-06 22:29:33","376391"
"A380GYV7QAHJ0F","cs_wg_mon_single_v1_pilot1","3R0T90IZ1SDO2VFECS14Z5FGTHPCGB","44","0","SEPTEMBER","1",,"0","5","4132",,,,,"0","2018-11-06 22:29:35","376392"
"A1YUK67SL5TWT0","cs_wg_mon_single_v1_pilot1","3JZQSN0I3QBV57ZO3UR57B0JQUHGFQ","57","0","JUNE","6",,"0","6","3594",,,,,"0","2018-11-06 22:29:35","376393"
"A1COUACGJXNO2F","cs_wg_mon_single_v1_pilot1","37TD41K0AHARS0O57SVLOJYJHSISCA","106","0","SEPTEMBER","9",,"0","11","945",,,,,"0","2018-11-06 22:29:35","376394"
"ALBUUWRN9Q07U","cs_wg_mon_single_v1_pilot1","36NEMU28XFEX83H54MZ0O46GHJIMW1","65","0","JANUARY","6",,"0","8","3253",,,,,"0","2018-11-06 22:29:36","376395"
"A1CUGWGAVOV7YF","cs_wg_mon_single_v1_pilot1","37WLF8U1WPR4O02WSS9GBXFZ4CVK6U","16","0","JUNE","1",,"0","1","7943",,,,,"1","2018-11-06 22:29:38","376396"
"A1COUACGJXNO2F","cs_wg_mon_single_v1_pilot1","37TD41K0AHARS0O57SVLOJYJHSISCA","107","0","DECEMBER","9",,"0","12","1247",,,,,"0","2018-11-06 22:29:38","376397"
"A19HQR079PPH11","cs_wg_mon_single_v1_pilot1","3Z2R0DQ0JHFDKZRL94MANPLI4AXE2N","26","0","FEBRUARY","8",,"0","8","9136",,,,,"0","2018-11-06 22:29:39","376398"
"A1SDGH6LQWL91Z","cs_wg_mon_single_v1_pilot1","3V5Q80FXIXSAA1BOKK5E4YHLDL723K","9","0","NOVEMBER","4",,"0","4","14113",,,,,"1","2018-11-06 22:29:40","376399"
"A1COUACGJXNO2F","cs_wg_mon_single_v1_pilot1","37TD41K0AHARS0O57SVLOJYJHSISCA","108","0","JANUARY","2",,"0","11","866",,,,,"0","2018-11-06 22:29:41","376400"
"A1YUK67SL5TWT0","cs_wg_mon_single_v1_pilot1","3JZQSN0I3QBV57ZO3UR57B0JQUHGFQ","58","0","OCTOBER","9",,"0","10","3853",,,,,"0","2018-11-06 22:29:41","376401"
"A1TBL7E87DYE6J","cs_wg_mon_single_v1_pilot1","3K3R2QNK8B459F96KDGU1UFZW40U9B","50","0","NOVEMBER","6",,"0","5","6620",,,,,"0","2018-11-06 22:29:43","376402"
"A1COUACGJXNO2F","cs_wg_mon_single_v1_pilot1","37TD41K0AHARS0O57SVLOJYJHSISCA","109","0","JULY","1",,"0","11","1130",,,,,"0","2018-11-06 22:29:44","376403"
"A380GYV7QAHJ0F","cs_wg_mon_single_v1_pilot1","3R0T90IZ1SDO2VFECS14Z5FGTHPCGB","45","0","MARCH","8",,"0","6","6634",,,,,"0","2018-11-06 22:29:44","376404"
"A1COUACGJXNO2F","cs_wg_mon_single_v1_pilot1","37TD41K0AHARS0O57SVLOJYJHSISCA","110","0","NOVEMBER","11",,"0","11","843",,,,,"0","2018-11-06 22:29:46","376405"
"ALBUUWRN9Q07U","cs_wg_mon_single_v1_pilot1","36NEMU28XFEX83H54MZ0O46GHJIMW1","66","0","SEPTEMBER","2",,"0","6","8073",,,,,"0","2018-11-06 22:29:46","376406"
"A1CUGWGAVOV7YF","cs_wg_mon_single_v1_pilot1","37WLF8U1WPR4O02WSS9GBXFZ4CVK6U","17","0","SEPTEMBER","5",,"0","5","4243",,,,,"1","2018-11-06 22:29:47","376407"
"A1COUACGJXNO2F","cs_wg_mon_single_v1_pilot1","37TD41K0AHARS0O57SVLOJYJHSISCA","111","0","APRIL","6",,"0","12","927",,,,,"0","2018-11-06 22:29:49","376408"
"A1SDGH6LQWL91Z","cs_wg_mon_single_v1_pilot1","3V5Q80FXIXSAA1BOKK5E4YHLDL723K","10","0","SEPTEMBER","5",,"0","5","7770",,,,,"1","2018-11-06 22:29:50","376409"
"A380GYV7QAHJ0F","cs_wg_mon_single_v1_pilot1","3R0T90IZ1SDO2VFECS14Z5FGTHPCGB","46","0","NOVEMBER","12",,"0","3","4530",,,,,"0","2018-11-06 22:29:51","376410"
"A1COUACGJXNO2F","cs_wg_mon_single_v1_pilot1","37TD41K0AHARS0O57SVLOJYJHSISCA","112","0","JUNE","4",,"0","12","894",,,,,"0","2018-11-06 22:29:52","376411"
"A1TBL7E87DYE6J","cs_wg_mon_single_v1_pilot1","3K3R2QNK8B459F96KDGU1UFZW40U9B","51","0","SEPTEMBER","9",,"0","5","7208",,,,,"0","2018-11-06 22:29:53","376412"
"A1COUACGJXNO2F","cs_wg_mon_single_v1_pilot1","37TD41K0AHARS0O57SVLOJYJHSISCA","113","0","JULY","9",,"0","12","1000",,,,,"0","2018-11-06 22:29:54","376413"
"ALBUUWRN9Q07U","cs_wg_mon_single_v1_pilot1","36NEMU28XFEX83H54MZ0O46GHJIMW1","67","0","JUNE","9",,"0","2","5135",,,,,"0","2018-11-06 22:29:56","376414"
"A1SDGH6LQWL91Z","cs_wg_mon_single_v1_pilot1","3V5Q80FXIXSAA1BOKK5E4YHLDL723K","11","0","JANUARY","7",,"0","7","4009",,,,,"1","2018-11-06 22:29:56","376415"
"A380GYV7QAHJ0F","cs_wg_mon_single_v1_pilot1","3R0T90IZ1SDO2VFECS14Z5FGTHPCGB","47","0","MAY","4",,"0","5","3604",,,,,"0","2018-11-06 22:29:57","376416"
"A1COUACGJXNO2F","cs_wg_mon_single_v1_pilot1","37TD41K0AHARS0O57SVLOJYJHSISCA","114","0","DECEMBER","12",,"0","12","1047",,,,,"0","2018-11-06 22:29:57","376417"
"A19HQR079PPH11","cs_wg_mon_single_v1_pilot1","3Z2R0DQ0JHFDKZRL94MANPLI4AXE2N","27","0","MARCH","12",,"0","12","10060",,,,,"1","2018-11-06 22:29:58","376418"
"A1CUGWGAVOV7YF","cs_wg_mon_single_v1_pilot1","37WLF8U1WPR4O02WSS9GBXFZ4CVK6U","18","0","FEBRUARY","3",,"0","3","6004",,,,,"1","2018-11-06 22:29:58","376419"
"A1YUK67SL5TWT0","cs_wg_mon_single_v1_pilot1","3JZQSN0I3QBV57ZO3UR57B0JQUHGFQ","59","0","JANUARY","12",,"0","2","15575",,,,,"0","2018-11-06 22:29:58","376420"
"ALBUUWRN9Q07U","cs_wg_mon_single_v1_pilot1","36NEMU28XFEX83H54MZ0O46GHJIMW1","68","0","APRIL","1",,"0","10","2486",,,,,"0","2018-11-06 22:30:00","376421"
"A1COUACGJXNO2F","cs_wg_mon_single_v1_pilot1","37TD41K0AHARS0O57SVLOJYJHSISCA","115","0","JULY","3",,"0","11","2289",,,,,"0","2018-11-06 22:30:01","376422"
"A380GYV7QAHJ0F","cs_wg_mon_single_v1_pilot1","3R0T90IZ1SDO2VFECS14Z5FGTHPCGB","48","0","NOVEMBER","4",,"0","8","4255",,,,,"0","2018-11-06 22:30:03","376423"
"A1COUACGJXNO2F","cs_wg_mon_single_v1_pilot1","37TD41K0AHARS0O57SVLOJYJHSISCA","116","0","AUGUST","8",,"0","0","378",,,,,"0","2018-11-06 22:30:04","376424"
"A1SDGH6LQWL91Z","cs_wg_mon_single_v1_pilot1","3V5Q80FXIXSAA1BOKK5E4YHLDL723K","12","0","AUGUST","4",,"0","4","6203",,,,,"1","2018-11-06 22:30:05","376425"
"A1TBL7E87DYE6J","cs_wg_mon_single_v1_pilot1","3K3R2QNK8B459F96KDGU1UFZW40U9B","52","0","JULY","9",,"0","7","9434",,,,,"0","2018-11-06 22:30:06","376426"
"A1COUACGJXNO2F","cs_wg_mon_single_v1_pilot1","37TD41K0AHARS0O57SVLOJYJHSISCA","117","0","OCTOBER","2",,"0","11","1031",,,,,"0","2018-11-06 22:30:06","376427"
"A1YUK67SL5TWT0","cs_wg_mon_single_v1_pilot1","3JZQSN0I3QBV57ZO3UR57B0JQUHGFQ","60","0","DECEMBER","5",,"0","5","6233",,,,,"0","2018-11-06 22:30:07","376428"
"A1COUACGJXNO2F","cs_wg_mon_single_v1_pilot1","37TD41K0AHARS0O57SVLOJYJHSISCA","118","0","AUGUST","6",,"0","12","1161",,,,,"0","2018-11-06 22:30:09","376429"
"ALBUUWRN9Q07U","cs_wg_mon_single_v1_pilot1","36NEMU28XFEX83H54MZ0O46GHJIMW1","69","0","MAY","9",,"0","5","5564",,,,,"0","2018-11-06 22:30:09","376430"
"A1CUGWGAVOV7YF","cs_wg_mon_single_v1_pilot1","37WLF8U1WPR4O02WSS9GBXFZ4CVK6U","19","0","MAY","11",,"0","11","4300",,,,,"1","2018-11-06 22:30:10","376431"
"A380GYV7QAHJ0F","cs_wg_mon_single_v1_pilot1","3R0T90IZ1SDO2VFECS14Z5FGTHPCGB","49","0","MAY","6",,"0","4","4520",,,,,"0","2018-11-06 22:30:10","376432"
"A1SDGH6LQWL91Z","cs_wg_mon_single_v1_pilot1","3V5Q80FXIXSAA1BOKK5E4YHLDL723K","13","0","SEPTEMBER","9",,"0","9","4601",,,,,"1","2018-11-06 22:30:12","376433"
"A1COUACGJXNO2F","cs_wg_mon_single_v1_pilot1","37TD41K0AHARS0O57SVLOJYJHSISCA","119","0","SEPTEMBER","12",,"0","11","1262",,,,,"0","2018-11-06 22:30:12","376434"
"A1YUK67SL5TWT0","cs_wg_mon_single_v1_pilot1","3JZQSN0I3QBV57ZO3UR57B0JQUHGFQ","61","0","SEPTEMBER","12",,"0","1","2853",,,,,"0","2018-11-06 22:30:12","376435"
"A19HQR079PPH11","cs_wg_mon_single_v1_pilot1","3Z2R0DQ0JHFDKZRL94MANPLI4AXE2N","28","0","MAY","9",,"0","9","13171",,,,,"1","2018-11-06 22:30:14","376436"
"ALBUUWRN9Q07U","cs_wg_mon_single_v1_pilot1","36NEMU28XFEX83H54MZ0O46GHJIMW1","70","0","MAY","1",,"0","9","2229",,,,,"0","2018-11-06 22:30:14","376437"
"A1TBL7E87DYE6J","cs_wg_mon_single_v1_pilot1","3K3R2QNK8B459F96KDGU1UFZW40U9B","53","0","NOVEMBER","8",,"0","4","7132",,,,,"0","2018-11-06 22:30:16","376438"
"A380GYV7QAHJ0F","cs_wg_mon_single_v1_pilot1","3R0T90IZ1SDO2VFECS14Z5FGTHPCGB","50","0","DECEMBER","2",,"0","7","4870",,,,,"0","2018-11-06 22:30:17","376439"
"A1SDGH6LQWL91Z","cs_wg_mon_single_v1_pilot1","3V5Q80FXIXSAA1BOKK5E4YHLDL723K","14","0","FEBRUARY","3",,"0","3","4209",,,,,"1","2018-11-06 22:30:18","376440"
"ALBUUWRN9Q07U","cs_wg_mon_single_v1_pilot1","36NEMU28XFEX83H54MZ0O46GHJIMW1","71","0","JUNE","10",,"0","2","2853",,,,,"0","2018-11-06 22:30:19","376441"
"A1YUK67SL5TWT0","cs_wg_mon_single_v1_pilot1","3JZQSN0I3QBV57ZO3UR57B0JQUHGFQ","62","0","NOVEMBER","3",,"0","6","4159",,,,,"0","2018-11-06 22:30:20","376442"
"A1CUGWGAVOV7YF","cs_wg_mon_single_v1_pilot1","37WLF8U1WPR4O02WSS9GBXFZ4CVK6U","20","0","NOVEMBER","12",,"0","12","8461",,,,,"1","2018-11-06 22:30:20","376443"
"ALBUUWRN9Q07U","cs_wg_mon_single_v1_pilot1","36NEMU28XFEX83H54MZ0O46GHJIMW1","72","0","MAY","10",,"0","12","1504",,,,,"0","2018-11-06 22:30:22","376444"
"A380GYV7QAHJ0F","cs_wg_mon_single_v1_pilot1","3R0T90IZ1SDO2VFECS14Z5FGTHPCGB","51","0","JANUARY","10",,"0","6","3921",,,,,"0","2018-11-06 22:30:24","376445"
"A1TBL7E87DYE6J","cs_wg_mon_single_v1_pilot1","3K3R2QNK8B459F96KDGU1UFZW40U9B","54","0","SEPTEMBER","3",,"0","9","4632",,,,,"0","2018-11-06 22:30:24","376446"
"ALBUUWRN9Q07U","cs_wg_mon_single_v1_pilot1","36NEMU28XFEX83H54MZ0O46GHJIMW1","73","0","NOVEMBER","11",,"0","10","1580",,,,,"0","2018-11-06 22:30:26","376447"
"A1SDGH6LQWL91Z","cs_wg_mon_single_v1_pilot1","3V5Q80FXIXSAA1BOKK5E4YHLDL723K","15","0","JANUARY","10",,"0","10","5863",,,,,"1","2018-11-06 22:30:26","376448"
"A1YUK67SL5TWT0","cs_wg_mon_single_v1_pilot1","3JZQSN0I3QBV57ZO3UR57B0JQUHGFQ","63","0","NOVEMBER","11",,"0","7","4199",,,,,"0","2018-11-06 22:30:26","376449"
"ALBUUWRN9Q07U","cs_wg_mon_single_v1_pilot1","36NEMU28XFEX83H54MZ0O46GHJIMW1","74","0","MAY","7",,"0","8","1535",,,,,"0","2018-11-06 22:30:29","376450"
"A1CUGWGAVOV7YF","cs_wg_mon_single_v1_pilot1","37WLF8U1WPR4O02WSS9GBXFZ4CVK6U","21","0","SEPTEMBER","12",,"0","12","6461",,,,,"1","2018-11-06 22:30:29","376451"
"A1YUK67SL5TWT0","cs_wg_mon_single_v1_pilot1","3JZQSN0I3QBV57ZO3UR57B0JQUHGFQ","64","0","JANUARY","4",,"0","11","2741",,,,,"0","2018-11-06 22:30:31","376452"
"A380GYV7QAHJ0F","cs_wg_mon_single_v1_pilot1","3R0T90IZ1SDO2VFECS14Z5FGTHPCGB","52","0","JANUARY","9",,"0","7","4716",,,,,"0","2018-11-06 22:30:31","376453"
"ALBUUWRN9Q07U","cs_wg_mon_single_v1_pilot1","36NEMU28XFEX83H54MZ0O46GHJIMW1","75","0","FEBRUARY","11",,"0","8","1495",,,,,"0","2018-11-06 22:30:32","376454"
"A1SDGH6LQWL91Z","cs_wg_mon_single_v1_pilot1","3V5Q80FXIXSAA1BOKK5E4YHLDL723K","16","0","SEPTEMBER","11",,"0","11","4215",,,,,"1","2018-11-06 22:30:32","376455"
"A19HQR079PPH11","cs_wg_mon_single_v1_pilot1","3Z2R0DQ0JHFDKZRL94MANPLI4AXE2N","29","0","JUNE","6",,"0","6","16412",,,,,"1","2018-11-06 22:30:33","376456"
"A1TBL7E87DYE6J","cs_wg_mon_single_v1_pilot1","3K3R2QNK8B459F96KDGU1UFZW40U9B","55","0","MARCH","2",,"0","4","5526",,,,,"0","2018-11-06 22:30:33","376457"
"ALBUUWRN9Q07U","cs_wg_mon_single_v1_pilot1","36NEMU28XFEX83H54MZ0O46GHJIMW1","76","0","SEPTEMBER","11",,"0","12","1564",,,,,"0","2018-11-06 22:30:35","376458"
"A1YUK67SL5TWT0","cs_wg_mon_single_v1_pilot1","3JZQSN0I3QBV57ZO3UR57B0JQUHGFQ","65","0","JULY","8",,"0","6","3395",,,,,"0","2018-11-06 22:30:37","376459"
"A380GYV7QAHJ0F","cs_wg_mon_single_v1_pilot1","3R0T90IZ1SDO2VFECS14Z5FGTHPCGB","53","0","APRIL","12",,"0","5","3433",,,,,"0","2018-11-06 22:30:37","376460"
"A1CUGWGAVOV7YF","cs_wg_mon_single_v1_pilot1","37WLF8U1WPR4O02WSS9GBXFZ4CVK6U","22","0","OCTOBER","1",,"0","1","4552",,,,,"1","2018-11-06 22:30:38","376461"
"ALBUUWRN9Q07U","cs_wg_mon_single_v1_pilot1","36NEMU28XFEX83H54MZ0O46GHJIMW1","77","0","JANUARY","8",,"0","2","2161",,,,,"0","2018-11-06 22:30:39","376462"
"A1SDGH6LQWL91Z","cs_wg_mon_single_v1_pilot1","3V5Q80FXIXSAA1BOKK5E4YHLDL723K","17","0","JANUARY","12",,"0","12","6960",,,,,"1","2018-11-06 22:30:41","376463"
"A1TBL7E87DYE6J","cs_wg_mon_single_v1_pilot1","3K3R2QNK8B459F96KDGU1UFZW40U9B","56","0","JANUARY","10",,"0","12","4818",,,,,"0","2018-11-06 22:30:41","376464"
"A1YUK67SL5TWT0","cs_wg_mon_single_v1_pilot1","3JZQSN0I3QBV57ZO3UR57B0JQUHGFQ","66","0","DECEMBER","5",,"0","11","2697",,,,,"0","2018-11-06 22:30:41","376465"
"A380GYV7QAHJ0F","cs_wg_mon_single_v1_pilot1","3R0T90IZ1SDO2VFECS14Z5FGTHPCGB","54","0","DECEMBER","1",,"0","6","6077",,,,,"0","2018-11-06 22:30:46","376466"
"A19HQR079PPH11","cs_wg_mon_single_v1_pilot1","3Z2R0DQ0JHFDKZRL94MANPLI4AXE2N","30","0","FEBRUARY","8",,"0","5","8411",,,,,"0","2018-11-06 22:30:47","376467"
"ALBUUWRN9Q07U","cs_wg_mon_single_v1_pilot1","36NEMU28XFEX83H54MZ0O46GHJIMW1","78","0","MARCH","1",,"0","5","5916",,,,,"0","2018-11-06 22:30:47","376468"
"A1YUK67SL5TWT0","cs_wg_mon_single_v1_pilot1","3JZQSN0I3QBV57ZO3UR57B0JQUHGFQ","67","0","FEBRUARY","9",,"0","3","3346",,,,,"0","2018-11-06 22:30:47","376469"
"A1CUGWGAVOV7YF","cs_wg_mon_single_v1_pilot1","37WLF8U1WPR4O02WSS9GBXFZ4CVK6U","23","0","DECEMBER","5",,"0","5","6971",,,,,"1","2018-11-06 22:30:47","376470"
"A1SDGH6LQWL91Z","cs_wg_mon_single_v1_pilot1","3V5Q80FXIXSAA1BOKK5E4YHLDL723K","18","0","MARCH","4",,"0","4","6807",,,,,"1","2018-11-06 22:30:50","376471"
"A1TBL7E87DYE6J","cs_wg_mon_single_v1_pilot1","3K3R2QNK8B459F96KDGU1UFZW40U9B","57","0","NOVEMBER","5",,"0","4","6185",,,,,"0","2018-11-06 22:30:51","376472"
"A380GYV7QAHJ0F","cs_wg_mon_single_v1_pilot1","3R0T90IZ1SDO2VFECS14Z5FGTHPCGB","55","0","OCTOBER","12",,"0","4","4271",,,,,"0","2018-11-06 22:30:52","376473"
"ALBUUWRN9Q07U","cs_wg_mon_single_v1_pilot1","36NEMU28XFEX83H54MZ0O46GHJIMW1","79","0","AUGUST","9",,"0","5","4487",,,,,"0","2018-11-06 22:30:53","376474"
"A1YUK67SL5TWT0","cs_wg_mon_single_v1_pilot1","3JZQSN0I3QBV57ZO3UR57B0JQUHGFQ","68","0","AUGUST","7",,"0","11","5426",,,,,"0","2018-11-06 22:30:54","376475"
"A19HQR079PPH11","cs_wg_mon_single_v1_pilot1","3Z2R0DQ0JHFDKZRL94MANPLI4AXE2N","31","0","DECEMBER","5",,"0","5","6155",,,,,"0","2018-11-06 22:30:56","376476"
"ALBUUWRN9Q07U","cs_wg_mon_single_v1_pilot1","36NEMU28XFEX83H54MZ0O46GHJIMW1","80","0","MAY","4",,"0","7","1986",,,,,"0","2018-11-06 22:30:56","376477"
"A1CUGWGAVOV7YF","cs_wg_mon_single_v1_pilot1","37WLF8U1WPR4O02WSS9GBXFZ4CVK6U","24","0","MARCH","4",,"0","4","7590",,,,,"1","2018-11-06 22:30:57","376478"
"A1SDGH6LQWL91Z","cs_wg_mon_single_v1_pilot1","3V5Q80FXIXSAA1BOKK5E4YHLDL723K","19","0","DECEMBER","1",,"0","1","5306",,,,,"1","2018-11-06 22:30:57","376479"
"A380GYV7QAHJ0F","cs_wg_mon_single_v1_pilot1","3R0T90IZ1SDO2VFECS14Z5FGTHPCGB","56","0","JULY","5",,"0","7","3442",,,,,"0","2018-11-06 22:30:58","376480"
"ALBUUWRN9Q07U","cs_wg_mon_single_v1_pilot1","36NEMU28XFEX83H54MZ0O46GHJIMW1","81","0","FEBRUARY","11",,"0","2","1346",,,,,"0","2018-11-06 22:30:59","376481"
"A1YUK67SL5TWT0","cs_wg_mon_single_v1_pilot1","3JZQSN0I3QBV57ZO3UR57B0JQUHGFQ","69","0","AUGUST","10",,"0","6","4496",,,,,"0","2018-11-06 22:31:01","376482"
"ALBUUWRN9Q07U","cs_wg_mon_single_v1_pilot1","36NEMU28XFEX83H54MZ0O46GHJIMW1","82","0","DECEMBER","1",,"0","12","3471",,,,,"0","2018-11-06 22:31:05","376483"
"A1SDGH6LQWL91Z","cs_wg_mon_single_v1_pilot1","3V5Q80FXIXSAA1BOKK5E4YHLDL723K","20","0","DECEMBER","11",,"0","11","6311",,,,,"1","2018-11-06 22:31:06","376484"
"A1YUK67SL5TWT0","cs_wg_mon_single_v1_pilot1","3JZQSN0I3QBV57ZO3UR57B0JQUHGFQ","70","0","JUNE","1",,"0","6","3388",,,,,"0","2018-11-06 22:31:06","376485"
"A380GYV7QAHJ0F","cs_wg_mon_single_v1_pilot1","3R0T90IZ1SDO2VFECS14Z5FGTHPCGB","57","0","DECEMBER","8",,"0","8","3774",,,,,"0","2018-11-06 22:31:08","376486"
"A1CUGWGAVOV7YF","cs_wg_mon_single_v1_pilot1","37WLF8U1WPR4O02WSS9GBXFZ4CVK6U","25","0","JUNE","9",,"0","9","7391",,,,,"1","2018-11-06 22:31:08","376487"
"A1TBL7E87DYE6J","cs_wg_mon_single_v1_pilot1","3K3R2QNK8B459F96KDGU1UFZW40U9B","58","0","APRIL","2",,"0","4","9143",,,,,"0","2018-11-06 22:31:10","376488"
"A1YUK67SL5TWT0","cs_wg_mon_single_v1_pilot1","3JZQSN0I3QBV57ZO3UR57B0JQUHGFQ","71","0","NOVEMBER","7",,"0","1","2219",,,,,"0","2018-11-06 22:31:10","376489"
"ALBUUWRN9Q07U","cs_wg_mon_single_v1_pilot1","36NEMU28XFEX83H54MZ0O46GHJIMW1","83","0","MAY","8",,"0","12","4209",,,,,"0","2018-11-06 22:31:12","376490"
"A1SDGH6LQWL91Z","cs_wg_mon_single_v1_pilot1","3V5Q80FXIXSAA1BOKK5E4YHLDL723K","21","0","NOVEMBER","2",,"0","2","6043",,,,,"1","2018-11-06 22:31:14","376491"
"A380GYV7QAHJ0F","cs_wg_mon_single_v1_pilot1","3R0T90IZ1SDO2VFECS14Z5FGTHPCGB","58","0","SEPTEMBER","4",,"0","5","4931",,,,,"0","2018-11-06 22:31:16","376492"
"A1YUK67SL5TWT0","cs_wg_mon_single_v1_pilot1","3JZQSN0I3QBV57ZO3UR57B0JQUHGFQ","72","0","DECEMBER","2",,"0","9","3476",,,,,"0","2018-11-06 22:31:16","376493"
"A1CUGWGAVOV7YF","cs_wg_mon_single_v1_pilot1","37WLF8U1WPR4O02WSS9GBXFZ4CVK6U","26","0","AUGUST","6",,"0","6","6822",,,,,"1","2018-11-06 22:31:17","376494"
"A19HQR079PPH11","cs_wg_mon_single_v1_pilot1","3Z2R0DQ0JHFDKZRL94MANPLI4AXE2N","32","0","JUNE","11",,"0","2","12979",,,,,"0","2018-11-06 22:31:18","376495"
"A1TBL7E87DYE6J","cs_wg_mon_single_v1_pilot1","3K3R2QNK8B459F96KDGU1UFZW40U9B","59","0","SEPTEMBER","8",,"0","5","5141",,,,,"0","2018-11-06 22:31:18","376496"
"A1YUK67SL5TWT0","cs_wg_mon_single_v1_pilot1","3JZQSN0I3QBV57ZO3UR57B0JQUHGFQ","73","0","JULY","3",,"0","4","2873",,,,,"0","2018-11-06 22:31:21","376497"
"A380GYV7QAHJ0F","cs_wg_mon_single_v1_pilot1","3R0T90IZ1SDO2VFECS14Z5FGTHPCGB","59","0","JULY","7",,"0","4","4594",,,,,"0","2018-11-06 22:31:23","376498"
"A1SDGH6LQWL91Z","cs_wg_mon_single_v1_pilot1","3V5Q80FXIXSAA1BOKK5E4YHLDL723K","22","0","OCTOBER","9",,"0","9","8949",,,,,"1","2018-11-06 22:31:25","376499"
"A1YUK67SL5TWT0","cs_wg_mon_single_v1_pilot1","3JZQSN0I3QBV57ZO3UR57B0JQUHGFQ","74","0","MARCH","11",,"0","6","2571",,,,,"0","2018-11-06 22:31:26","376500"
"A1TBL7E87DYE6J","cs_wg_mon_single_v1_pilot1","3K3R2QNK8B459F96KDGU1UFZW40U9B","60","0","NOVEMBER","7",,"0","8","5315",,,,,"0","2018-11-06 22:31:26","376501"
"A1CUGWGAVOV7YF","cs_wg_mon_single_v1_pilot1","37WLF8U1WPR4O02WSS9GBXFZ4CVK6U","27","0","DECEMBER","8",,"0","8","7533",,,,,"1","2018-11-06 22:31:27","376502"
"ALBUUWRN9Q07U","cs_wg_mon_single_v1_pilot1","36NEMU28XFEX83H54MZ0O46GHJIMW1","84","0","FEBRUARY","3",,"0","4","10667",,,,,"0","2018-11-06 22:31:27","376503"
"A1YUK67SL5TWT0","cs_wg_mon_single_v1_pilot1","3JZQSN0I3QBV57ZO3UR57B0JQUHGFQ","75","0","OCTOBER","7",,"0","2","2290",,,,,"0","2018-11-06 22:31:30","376504"
"A380GYV7QAHJ0F","cs_wg_mon_single_v1_pilot1","3R0T90IZ1SDO2VFECS14Z5FGTHPCGB","60","0","AUGUST","12",,"0","8","5401",,,,,"0","2018-11-06 22:31:30","376505"
"A1SDGH6LQWL91Z","cs_wg_mon_single_v1_pilot1","3V5Q80FXIXSAA1BOKK5E4YHLDL723K","23","0","JULY","5",,"0","5","4946",,,,,"1","2018-11-06 22:31:32","376506"
"A19HQR079PPH11","cs_wg_mon_single_v1_pilot1","3Z2R0DQ0JHFDKZRL94MANPLI4AXE2N","33","0","APRIL","11",,"0","11","12476",,,,,"1","2018-11-06 22:31:33","376507"
"A1YUK67SL5TWT0","cs_wg_mon_single_v1_pilot1","3JZQSN0I3QBV57ZO3UR57B0JQUHGFQ","76","0","AUGUST","6",,"0","11","2248",,,,,"0","2018-11-06 22:31:34","376508"
"ALBUUWRN9Q07U","cs_wg_mon_single_v1_pilot1","36NEMU28XFEX83H54MZ0O46GHJIMW1","85","0","JUNE","8",,"0","5","2073",,,,,"0","2018-11-06 22:31:34","376509"
"A1CUGWGAVOV7YF","cs_wg_mon_single_v1_pilot1","37WLF8U1WPR4O02WSS9GBXFZ4CVK6U","28","0","DECEMBER","9",,"0","9","6513",,,,,"1","2018-11-06 22:31:36","376510"
"A380GYV7QAHJ0F","cs_wg_mon_single_v1_pilot1","3R0T90IZ1SDO2VFECS14Z5FGTHPCGB","61","0","AUGUST","2",,"0","9","3464",,,,,"0","2018-11-06 22:31:36","376511"
"A34488HCARTJ82","cs_wg_mon_single_v1_pilot1","3137ONMDKG63ZTZS8J7ZPTFJEU5GED","0","0","JUNE","9",,"0","9","5488",,,,,"1","2018-11-06 22:31:38","376512"
"A1SDGH6LQWL91Z","cs_wg_mon_single_v1_pilot1","3V5Q80FXIXSAA1BOKK5E4YHLDL723K","24","0","APRIL","7",,"0","7","4411",,,,,"1","2018-11-06 22:31:38","376513"
"A1YUK67SL5TWT0","cs_wg_mon_single_v1_pilot1","3JZQSN0I3QBV57ZO3UR57B0JQUHGFQ","77","0","JANUARY","12",,"0","6","2531",,,,,"0","2018-11-06 22:31:39","376514"
"ALBUUWRN9Q07U","cs_wg_mon_single_v1_pilot1","36NEMU28XFEX83H54MZ0O46GHJIMW1","86","0","APRIL","6",,"0","12","4791",,,,,"0","2018-11-06 22:31:41","376515"
"A1TBL7E87DYE6J","cs_wg_mon_single_v1_pilot1","3K3R2QNK8B459F96KDGU1UFZW40U9B","61","0","DECEMBER","12",,"0","12","8988",,,,,"0","2018-11-06 22:31:42","376516"
"A380GYV7QAHJ0F","cs_wg_mon_single_v1_pilot1","3R0T90IZ1SDO2VFECS14Z5FGTHPCGB","62","0","JULY","3",,"0","3","3384",,,,,"0","2018-11-06 22:31:42","376517"
"A1YUK67SL5TWT0","cs_wg_mon_single_v1_pilot1","3JZQSN0I3QBV57ZO3UR57B0JQUHGFQ","78","0","OCTOBER","4",,"0","9","2181",,,,,"0","2018-11-06 22:31:43","376518"
"A1CUGWGAVOV7YF","cs_wg_mon_single_v1_pilot1","37WLF8U1WPR4O02WSS9GBXFZ4CVK6U","29","0","DECEMBER","7",,"0","7","7729",,,,,"1","2018-11-06 22:31:45","376519"
"A1YUK67SL5TWT0","cs_wg_mon_single_v1_pilot1","3JZQSN0I3QBV57ZO3UR57B0JQUHGFQ","79","0","OCTOBER","4",,"0","3","2527",,,,,"0","2018-11-06 22:31:47","376520"
"A380GYV7QAHJ0F","cs_wg_mon_single_v1_pilot1","3R0T90IZ1SDO2VFECS14Z5FGTHPCGB","63","0","JANUARY","8",,"0","5","4061",,,,,"0","2018-11-06 22:31:49","376521"
"A34488HCARTJ82","cs_wg_mon_single_v1_pilot1","3137ONMDKG63ZTZS8J7ZPTFJEU5GED","1","0","APRIL","3",,"0","3","7633",,,,,"1","2018-11-06 22:31:50","376522"
"ALBUUWRN9Q07U","cs_wg_mon_single_v1_pilot1","36NEMU28XFEX83H54MZ0O46GHJIMW1","87","0","DECEMBER","2",,"0","12","4409",,,,,"0","2018-11-06 22:31:50","376523"
"A1TBL7E87DYE6J","cs_wg_mon_single_v1_pilot1","3K3R2QNK8B459F96KDGU1UFZW40U9B","62","0","DECEMBER","3",,"0","12","4557",,,,,"0","2018-11-06 22:31:51","376524"
"A1SDGH6LQWL91Z","cs_wg_mon_single_v1_pilot1","3V5Q80FXIXSAA1BOKK5E4YHLDL723K","25","0","JANUARY","9",,"0","9","10616",,,,,"1","2018-11-06 22:31:51","376525"
"A1YUK67SL5TWT0","cs_wg_mon_single_v1_pilot1","3JZQSN0I3QBV57ZO3UR57B0JQUHGFQ","80","0","JUNE","3",,"0","9","2441",,,,,"0","2018-11-06 22:31:52","376526"
"A380GYV7QAHJ0F","cs_wg_mon_single_v1_pilot1","3R0T90IZ1SDO2VFECS14Z5FGTHPCGB","64","0","JUNE","9",,"0","7","3382",,,,,"0","2018-11-06 22:31:55","376527"
"A1CUGWGAVOV7YF","cs_wg_mon_single_v1_pilot1","37WLF8U1WPR4O02WSS9GBXFZ4CVK6U","30","0","JANUARY","2",,"0","2","7325",,,,,"1","2018-11-06 22:31:55","376528"
"A1YUK67SL5TWT0","cs_wg_mon_single_v1_pilot1","3JZQSN0I3QBV57ZO3UR57B0JQUHGFQ","81","0","DECEMBER","9",,"0","11","2370",,,,,"0","2018-11-06 22:31:56","376529"
"ALBUUWRN9Q07U","cs_wg_mon_single_v1_pilot1","36NEMU28XFEX83H54MZ0O46GHJIMW1","88","0","AUGUST","6",,"0","10","3032",,,,,"0","2018-11-06 22:31:58","376530"
"A1SDGH6LQWL91Z","cs_wg_mon_single_v1_pilot1","3V5Q80FXIXSAA1BOKK5E4YHLDL723K","26","0","FEBRUARY","2",,"0","2","4594",,,,,"1","2018-11-06 22:31:58","376531"
"A380GYV7QAHJ0F","cs_wg_mon_single_v1_pilot1","3R0T90IZ1SDO2VFECS14Z5FGTHPCGB","65","0","DECEMBER","7",,"0","10","4103",,,,,"0","2018-11-06 22:32:01","376532"
"A1YUK67SL5TWT0","cs_wg_mon_single_v1_pilot1","3JZQSN0I3QBV57ZO3UR57B0JQUHGFQ","82","0","JULY","6",,"0","6","2915",,,,,"0","2018-11-06 22:32:02","376533"
"A34488HCARTJ82","cs_wg_mon_single_v1_pilot1","3137ONMDKG63ZTZS8J7ZPTFJEU5GED","2","0","JANUARY","5",,"0","5","9225",,,,,"1","2018-11-06 22:32:02","376534"
"ALBUUWRN9Q07U","cs_wg_mon_single_v1_pilot1","36NEMU28XFEX83H54MZ0O46GHJIMW1","89","0","OCTOBER","2",,"0","11","2799",,,,,"0","2018-11-06 22:32:04","376535"
"A1CUGWGAVOV7YF","cs_wg_mon_single_v1_pilot1","37WLF8U1WPR4O02WSS9GBXFZ4CVK6U","31","0","FEBRUARY","1",,"0","1","7053",,,,,"1","2018-11-06 22:32:05","376536"
"A1SDGH6LQWL91Z","cs_wg_mon_single_v1_pilot1","3V5Q80FXIXSAA1BOKK5E4YHLDL723K","27","0","APRIL","3",,"0","3","5666",,,,,"1","2018-11-06 22:32:05","376537"
"A1TBL7E87DYE6J","cs_wg_mon_single_v1_pilot1","3K3R2QNK8B459F96KDGU1UFZW40U9B","63","0","JULY","3",,"0","7","11500",,,,,"0","2018-11-06 22:32:05","376538"
"A1YUK67SL5TWT0","cs_wg_mon_single_v1_pilot1","3JZQSN0I3QBV57ZO3UR57B0JQUHGFQ","83","0","MARCH","12",,"0","2","2072",,,,,"0","2018-11-06 22:32:06","376539"
"A380GYV7QAHJ0F","cs_wg_mon_single_v1_pilot1","3R0T90IZ1SDO2VFECS14Z5FGTHPCGB","66","0","SEPTEMBER","6",,"0","8","3962",,,,,"0","2018-11-06 22:32:07","376540"
"A19HQR079PPH11","cs_wg_mon_single_v1_pilot1","3Z2R0DQ0JHFDKZRL94MANPLI4AXE2N","34","0","JUNE","7",,"0","12","7810",,,,,"0","2018-11-06 22:32:09","376541"
"A34488HCARTJ82","cs_wg_mon_single_v1_pilot1","3137ONMDKG63ZTZS8J7ZPTFJEU5GED","3","0","MARCH","8",,"0","8","6273",,,,,"1","2018-11-06 22:32:11","376542"
"A1TBL7E87DYE6J","cs_wg_mon_single_v1_pilot1","3K3R2QNK8B459F96KDGU1UFZW40U9B","64","0","APRIL","9",,"0","5","4681",,,,,"0","2018-11-06 22:32:13","376543"
"ALBUUWRN9Q07U","cs_wg_mon_single_v1_pilot1","36NEMU28XFEX83H54MZ0O46GHJIMW1","90","0","MARCH","2",,"0","4","3338",,,,,"0","2018-11-06 22:32:14","376544"
"A1SDGH6LQWL91Z","cs_wg_mon_single_v1_pilot1","3V5Q80FXIXSAA1BOKK5E4YHLDL723K","28","0","OCTOBER","10",,"0","10","6424",,,,,"1","2018-11-06 22:32:14","376545"
"A380GYV7QAHJ0F","cs_wg_mon_single_v1_pilot1","3R0T90IZ1SDO2VFECS14Z5FGTHPCGB","67","0","OCTOBER","8",,"0","3","6057",,,,,"0","2018-11-06 22:32:16","376546"
"A1CUGWGAVOV7YF","cs_wg_mon_single_v1_pilot1","37WLF8U1WPR4O02WSS9GBXFZ4CVK6U","32","0","JULY","6",,"0","6","9752",,,,,"1","2018-11-06 22:32:17","376547"
"A1YUK67SL5TWT0","cs_wg_mon_single_v1_pilot1","3JZQSN0I3QBV57ZO3UR57B0JQUHGFQ","84","0","FEBRUARY","4",,"0","5","10485",,,,,"0","2018-11-06 22:32:18","376548"
"ALBUUWRN9Q07U","cs_wg_mon_single_v1_pilot1","36NEMU28XFEX83H54MZ0O46GHJIMW1","91","0","DECEMBER","12",,"0","1","4753",,,,,"0","2018-11-06 22:32:20","376549"
"A1TBL7E87DYE6J","cs_wg_mon_single_v1_pilot1","3K3R2QNK8B459F96KDGU1UFZW40U9B","65","0","MAY","10",,"0","4","5590",,,,,"0","2018-11-06 22:32:21","376550"
"A34488HCARTJ82","cs_wg_mon_single_v1_pilot1","3137ONMDKG63ZTZS8J7ZPTFJEU5GED","4","0","JUNE","3",,"0","3","7295",,,,,"1","2018-11-06 22:32:22","376551"
"A1SDGH6LQWL91Z","cs_wg_mon_single_v1_pilot1","3V5Q80FXIXSAA1BOKK5E4YHLDL723K","29","0","JUNE","4",,"0","4","6696",,,,,"1","2018-11-06 22:32:23","376552"
"A1YUK67SL5TWT0","cs_wg_mon_single_v1_pilot1","3JZQSN0I3QBV57ZO3UR57B0JQUHGFQ","85","0","MAY","1",,"0","8","3487",,,,,"0","2018-11-06 22:32:24","376553"
"A380GYV7QAHJ0F","cs_wg_mon_single_v1_pilot1","3R0T90IZ1SDO2VFECS14Z5FGTHPCGB","68","0","JANUARY","3",,"0","4","7416",,,,,"0","2018-11-06 22:32:26","376554"
"A1CUGWGAVOV7YF","cs_wg_mon_single_v1_pilot1","37WLF8U1WPR4O02WSS9GBXFZ4CVK6U","33","0","MAY","6",,"0","6","7493",,,,,"1","2018-11-06 22:32:28","376555"
"ALBUUWRN9Q07U","cs_wg_mon_single_v1_pilot1","36NEMU28XFEX83H54MZ0O46GHJIMW1","92","0","AUGUST","2",,"0","8","3707",,,,,"0","2018-11-06 22:32:28","376556"
"A1SDGH6LQWL91Z","cs_wg_mon_single_v1_pilot1","3V5Q80FXIXSAA1BOKK5E4YHLDL723K","30","0","JULY","5",,"0","5","3536",,,,,"1","2018-11-06 22:32:29","376557"
"A1TBL7E87DYE6J","cs_wg_mon_single_v1_pilot1","3K3R2QNK8B459F96KDGU1UFZW40U9B","66","0","DECEMBER","11",,"0","12","4905",,,,,"0","2018-11-06 22:32:30","376558"
"A34488HCARTJ82","cs_wg_mon_single_v1_pilot1","3137ONMDKG63ZTZS8J7ZPTFJEU5GED","5","0","JUNE","9",,"0","9","6228",,,,,"1","2018-11-06 22:32:31","376559"
"A380GYV7QAHJ0F","cs_wg_mon_single_v1_pilot1","3R0T90IZ1SDO2VFECS14Z5FGTHPCGB","69","0","APRIL","11",,"0","11","3929",,,,,"0","2018-11-06 22:32:33","376560"
"A1SDGH6LQWL91Z","cs_wg_mon_single_v1_pilot1","3V5Q80FXIXSAA1BOKK5E4YHLDL723K","31","0","JUNE","1",,"0","1","2907",,,,,"1","2018-11-06 22:32:33","376561"
"ALBUUWRN9Q07U","cs_wg_mon_single_v1_pilot1","36NEMU28XFEX83H54MZ0O46GHJIMW1","93","0","MARCH","5",,"0","12","3299",,,,,"0","2018-11-06 22:32:34","376562"
"A1YUK67SL5TWT0","cs_wg_mon_single_v1_pilot1","3JZQSN0I3QBV57ZO3UR57B0JQUHGFQ","86","0","APRIL","2",,"0","1","7609",,,,,"0","2018-11-06 22:32:34","376563"
"A19HQR079PPH11","cs_wg_mon_single_v1_pilot1","3Z2R0DQ0JHFDKZRL94MANPLI4AXE2N","35","0","JULY","3",,"0","3","14355",,,,,"1","2018-11-06 22:32:34","376564"
"A1CUGWGAVOV7YF","cs_wg_mon_single_v1_pilot1","37WLF8U1WPR4O02WSS9GBXFZ4CVK6U","34","0","AUGUST","1",,"0","1","6807",,,,,"1","2018-11-06 22:32:37","376565"
"A1TBL7E87DYE6J","cs_wg_mon_single_v1_pilot1","3K3R2QNK8B459F96KDGU1UFZW40U9B","67","0","NOVEMBER","11",,"0","12","4094",,,,,"0","2018-11-06 22:32:37","376566"
"A1YUK67SL5TWT0","cs_wg_mon_single_v1_pilot1","3JZQSN0I3QBV57ZO3UR57B0JQUHGFQ","87","0","APRIL","6",,"0","4","2660",,,,,"0","2018-11-06 22:32:39","376567"
"A34488HCARTJ82","cs_wg_mon_single_v1_pilot1","3137ONMDKG63ZTZS8J7ZPTFJEU5GED","6","0","JULY","8",,"0","8","4702",,,,,"1","2018-11-06 22:32:40","376568"
"ALBUUWRN9Q07U","cs_wg_mon_single_v1_pilot1","36NEMU28XFEX83H54MZ0O46GHJIMW1","94","0","APRIL","11",,"0","8","6582",,,,,"0","2018-11-06 22:32:42","376569"
"A1YUK67SL5TWT0","cs_wg_mon_single_v1_pilot1","3JZQSN0I3QBV57ZO3UR57B0JQUHGFQ","88","0","DECEMBER","12",,"0","7","2740",,,,,"0","2018-11-06 22:32:44","376570"
"A1CUGWGAVOV7YF","cs_wg_mon_single_v1_pilot1","37WLF8U1WPR4O02WSS9GBXFZ4CVK6U","35","0","AUGUST","3",,"0","3","7335",,,,,"1","2018-11-06 22:32:46","376571"
"A1TBL7E87DYE6J","cs_wg_mon_single_v1_pilot1","3K3R2QNK8B459F96KDGU1UFZW40U9B","68","0","AUGUST","1",,"0","11","5587",,,,,"0","2018-11-06 22:32:46","376572"
"A34488HCARTJ82","cs_wg_mon_single_v1_pilot1","3137ONMDKG63ZTZS8J7ZPTFJEU5GED","7","0","JULY","5",,"0","5","4334",,,,,"1","2018-11-06 22:32:47","376573"
"A380GYV7QAHJ0F","cs_wg_mon_single_v1_pilot1","3R0T90IZ1SDO2VFECS14Z5FGTHPCGB","70","0","SEPTEMBER","10",,"0","10","8630",,,,,"0","2018-11-06 22:32:48","376574"
"A1YUK67SL5TWT0","cs_wg_mon_single_v1_pilot1","3JZQSN0I3QBV57ZO3UR57B0JQUHGFQ","89","0","APRIL","9",,"0","4","2270",,,,,"0","2018-11-06 22:32:48","376575"
"A19HQR079PPH11","cs_wg_mon_single_v1_pilot1","3Z2R0DQ0JHFDKZRL94MANPLI4AXE2N","36","0","FEBRUARY","8",,"0","11","9979",,,,,"0","2018-11-06 22:32:48","376576"
"ALBUUWRN9Q07U","cs_wg_mon_single_v1_pilot1","36NEMU28XFEX83H54MZ0O46GHJIMW1","95","0","FEBRUARY","7",,"0","4","6012",,,,,"0","2018-11-06 22:32:50","376577"
"A380GYV7QAHJ0F","cs_wg_mon_single_v1_pilot1","3R0T90IZ1SDO2VFECS14Z5FGTHPCGB","71","0","APRIL","5",,"0","4","3048",,,,,"0","2018-11-06 22:32:53","376578"
"A1TBL7E87DYE6J","cs_wg_mon_single_v1_pilot1","3K3R2QNK8B459F96KDGU1UFZW40U9B","69","0","JANUARY","8",,"0","2","5950",,,,,"0","2018-11-06 22:32:55","376579"
"A34488HCARTJ82","cs_wg_mon_single_v1_pilot1","3137ONMDKG63ZTZS8J7ZPTFJEU5GED","8","0","JANUARY","9",,"0","9","5391",,,,,"1","2018-11-06 22:32:55","376580"
"A1YUK67SL5TWT0","cs_wg_mon_single_v1_pilot1","3JZQSN0I3QBV57ZO3UR57B0JQUHGFQ","90","0","MAY","3",,"0","2","5083",,,,,"0","2018-11-06 22:32:56","376581"
"A1CUGWGAVOV7YF","cs_wg_mon_single_v1_pilot1","37WLF8U1WPR4O02WSS9GBXFZ4CVK6U","36","0","JULY","12",,"0","12","6108",,,,,"1","2018-11-06 22:32:56","376582"
"A380GYV7QAHJ0F","cs_wg_mon_single_v1_pilot1","3R0T90IZ1SDO2VFECS14Z5FGTHPCGB","72","0","FEBRUARY","3",,"0","6","4026",,,,,"0","2018-11-06 22:33:00","376583"
"A1TBL7E87DYE6J","cs_wg_mon_single_v1_pilot1","3K3R2QNK8B459F96KDGU1UFZW40U9B","70","0","FEBRUARY","1",,"0","12","4853",,,,,"0","2018-11-06 22:33:02","376584"
"A1SDGH6LQWL91Z","cs_wg_mon_single_v1_pilot1","3V5Q80FXIXSAA1BOKK5E4YHLDL723K","32","0","OCTOBER","9",,"0","9","27949",,,,,"1","2018-11-06 22:33:03","376585"
"A1YUK67SL5TWT0","cs_wg_mon_single_v1_pilot1","3JZQSN0I3QBV57ZO3UR57B0JQUHGFQ","91","0","SEPTEMBER","4",,"0","9","6695",,,,,"0","2018-11-06 22:33:04","376586"
"A380GYV7QAHJ0F","cs_wg_mon_single_v1_pilot1","3R0T90IZ1SDO2VFECS14Z5FGTHPCGB","73","0","JUNE","8",,"0","8","3792",,,,,"0","2018-11-06 22:33:07","376587"
"A19HQR079PPH11","cs_wg_mon_single_v1_pilot1","3Z2R0DQ0JHFDKZRL94MANPLI4AXE2N","37","0","JANUARY","4",,"0","4","15939",,,,,"1","2018-11-06 22:33:07","376588"
"A1CUGWGAVOV7YF","cs_wg_mon_single_v1_pilot1","37WLF8U1WPR4O02WSS9GBXFZ4CVK6U","37","0","MAY","5",,"0","5","10461",,,,,"1","2018-11-06 22:33:09","376589"
"A34488HCARTJ82","cs_wg_mon_single_v1_pilot1","3137ONMDKG63ZTZS8J7ZPTFJEU5GED","9","0","AUGUST","10",,"0","10","11173",,,,,"1","2018-11-06 22:33:09","376590"
"A1SDGH6LQWL91Z","cs_wg_mon_single_v1_pilot1","3V5Q80FXIXSAA1BOKK5E4YHLDL723K","33","0","MAY","10",,"0","10","3955",,,,,"1","2018-11-06 22:33:09","376591"
"A380GYV7QAHJ0F","cs_wg_mon_single_v1_pilot1","3R0T90IZ1SDO2VFECS14Z5FGTHPCGB","74","0","JULY","7",,"0","3","3680",,,,,"0","2018-11-06 22:33:13","376592"
"A1TBL7E87DYE6J","cs_wg_mon_single_v1_pilot1","3K3R2QNK8B459F96KDGU1UFZW40U9B","71","0","JUNE","9",,"0","6","8316",,,,,"0","2018-11-06 22:33:13","376593"
"A34488HCARTJ82","cs_wg_mon_single_v1_pilot1","3137ONMDKG63ZTZS8J7ZPTFJEU5GED","10","0","SEPTEMBER","12",,"0","12","4516",,,,,"1","2018-11-06 22:33:16","376594"
"A1SDGH6LQWL91Z","cs_wg_mon_single_v1_pilot1","3V5Q80FXIXSAA1BOKK5E4YHLDL723K","34","0","OCTOBER","7",,"0","7","5388",,,,,"1","2018-11-06 22:33:16","376595"
"A1YUK67SL5TWT0","cs_wg_mon_single_v1_pilot1","3JZQSN0I3QBV57ZO3UR57B0JQUHGFQ","92","0","MARCH","9",,"0","7","12214",,,,,"0","2018-11-06 22:33:19","376596"
"A380GYV7QAHJ0F","cs_wg_mon_single_v1_pilot1","3R0T90IZ1SDO2VFECS14Z5FGTHPCGB","75","0","OCTOBER","5",,"0","6","3658",,,,,"0","2018-11-06 22:33:19","376597"
"A1CUGWGAVOV7YF","cs_wg_mon_single_v1_pilot1","37WLF8U1WPR4O02WSS9GBXFZ4CVK6U","38","0","APRIL","11",,"0","11","11464",,,,,"1","2018-11-06 22:33:22","376598"
"A1TBL7E87DYE6J","cs_wg_mon_single_v1_pilot1","3K3R2QNK8B459F96KDGU1UFZW40U9B","72","0","MARCH","4",,"0","3","6350",,,,,"0","2018-11-06 22:33:22","376599"
"ALBUUWRN9Q07U","cs_wg_mon_single_v1_pilot1","36NEMU28XFEX83H54MZ0O46GHJIMW1","96","0","JULY","11",,"0","4","25728",,,,,"0","2018-11-06 22:33:23","376600"
"A1YUK67SL5TWT0","cs_wg_mon_single_v1_pilot1","3JZQSN0I3QBV57ZO3UR57B0JQUHGFQ","93","0","OCTOBER","1",,"0","5","2023",,,,,"0","2018-11-06 22:33:23","376601"
"A1SDGH6LQWL91Z","cs_wg_mon_single_v1_pilot1","3V5Q80FXIXSAA1BOKK5E4YHLDL723K","35","0","OCTOBER","7",,"0","7","5160",,,,,"1","2018-11-06 22:33:23","376602"
"A380GYV7QAHJ0F","cs_wg_mon_single_v1_pilot1","3R0T90IZ1SDO2VFECS14Z5FGTHPCGB","76","0","JUNE","12",,"0","9","3516",,,,,"0","2018-11-06 22:33:26","376603"
"A1YUK67SL5TWT0","cs_wg_mon_single_v1_pilot1","3JZQSN0I3QBV57ZO3UR57B0JQUHGFQ","94","0","NOVEMBER","8",,"0","11","2274",,,,,"0","2018-11-06 22:33:27","376604"
"A34488HCARTJ82","cs_wg_mon_single_v1_pilot1","3137ONMDKG63ZTZS8J7ZPTFJEU5GED","11","0","OCTOBER","4",,"0","4","9680",,,,,"1","2018-11-06 22:33:28","376605"
"A1SDGH6LQWL91Z","cs_wg_mon_single_v1_pilot1","3V5Q80FXIXSAA1BOKK5E4YHLDL723K","36","0","JULY","8",,"0","8","3342",,,,,"1","2018-11-06 22:33:29","376606"
"A1CUGWGAVOV7YF","cs_wg_mon_single_v1_pilot1","37WLF8U1WPR4O02WSS9GBXFZ4CVK6U","39","0","OCTOBER","10",,"0","10","6129",,,,,"1","2018-11-06 22:33:30","376607"
"A1TBL7E87DYE6J","cs_wg_mon_single_v1_pilot1","3K3R2QNK8B459F96KDGU1UFZW40U9B","73","0","FEBRUARY","9",,"0","3","6736",,,,,"0","2018-11-06 22:33:32","376608"
"A1YUK67SL5TWT0","cs_wg_mon_single_v1_pilot1","3JZQSN0I3QBV57ZO3UR57B0JQUHGFQ","95","0","NOVEMBER","10",,"0","9","3836",,,,,"0","2018-11-06 22:33:33","376609"
"A380GYV7QAHJ0F","cs_wg_mon_single_v1_pilot1","3R0T90IZ1SDO2VFECS14Z5FGTHPCGB","77","0","MARCH","7",,"0","4","3226",,,,,"0","2018-11-06 22:33:34","376610"
"A1SDGH6LQWL91Z","cs_wg_mon_single_v1_pilot1","3V5Q80FXIXSAA1BOKK5E4YHLDL723K","37","0","DECEMBER","6",,"0","6","3938",,,,,"1","2018-11-06 22:33:35","376611"
"A19HQR079PPH11","cs_wg_mon_single_v1_pilot1","3Z2R0DQ0JHFDKZRL94MANPLI4AXE2N","38","0","SEPTEMBER","4",,"0","4","17538",,,,,"1","2018-11-06 22:33:35","376612"
"A1YUK67SL5TWT0","cs_wg_mon_single_v1_pilot1","3JZQSN0I3QBV57ZO3UR57B0JQUHGFQ","96","0","OCTOBER","8",,"0","5","2691",,,,,"0","2018-11-06 22:33:38","376613"
"A34488HCARTJ82","cs_wg_mon_single_v1_pilot1","3137ONMDKG63ZTZS8J7ZPTFJEU5GED","12","0","JUNE","7",,"0","7","7018",,,,,"1","2018-11-06 22:33:38","376614"
"A1SDGH6LQWL91Z","cs_wg_mon_single_v1_pilot1","3V5Q80FXIXSAA1BOKK5E4YHLDL723K","38","0","MARCH","4",,"0","4","2951",,,,,"1","2018-11-06 22:33:39","376615"
"ALBUUWRN9Q07U","cs_wg_mon_single_v1_pilot1","36NEMU28XFEX83H54MZ0O46GHJIMW1","97","0","APRIL","4",,"0","6","14246",,,,,"0","2018-11-06 22:33:40","376616"
"A1TBL7E87DYE6J","cs_wg_mon_single_v1_pilot1","3K3R2QNK8B459F96KDGU1UFZW40U9B","74","0","MAY","9",,"0","3","6047",,,,,"0","2018-11-06 22:33:41","376617"
"A380GYV7QAHJ0F","cs_wg_mon_single_v1_pilot1","3R0T90IZ1SDO2VFECS14Z5FGTHPCGB","78","0","OCTOBER","9",,"0","5","5869",,,,,"0","2018-11-06 22:33:42","376618"
"A1YUK67SL5TWT0","cs_wg_mon_single_v1_pilot1","3JZQSN0I3QBV57ZO3UR57B0JQUHGFQ","97","0","JANUARY","3",,"0","1","2987",,,,,"0","2018-11-06 22:33:43","376619"
"A34488HCARTJ82","cs_wg_mon_single_v1_pilot1","3137ONMDKG63ZTZS8J7ZPTFJEU5GED","13","0","DECEMBER","2",,"0","2","4275",,,,,"1","2018-11-06 22:33:44","376620"
"A1SDGH6LQWL91Z","cs_wg_mon_single_v1_pilot1","3V5Q80FXIXSAA1BOKK5E4YHLDL723K","39","0","DECEMBER","6",,"0","6","3208",,,,,"1","2018-11-06 22:33:45","376621"
"ALBUUWRN9Q07U","cs_wg_mon_single_v1_pilot1","36NEMU28XFEX83H54MZ0O46GHJIMW1","98","0","JANUARY","7",,"0","8","2949",,,,,"0","2018-11-06 22:33:45","376622"
"A380GYV7QAHJ0F","cs_wg_mon_single_v1_pilot1","3R0T90IZ1SDO2VFECS14Z5FGTHPCGB","79","0","JULY","9",,"0","8","2978",,,,,"0","2018-11-06 22:33:47","376623"
"A1TBL7E87DYE6J","cs_wg_mon_single_v1_pilot1","3K3R2QNK8B459F96KDGU1UFZW40U9B","75","0","SEPTEMBER","7",,"0","9","4422",,,,,"0","2018-11-06 22:33:48","376624"
"A1YUK67SL5TWT0","cs_wg_mon_single_v1_pilot1","3JZQSN0I3QBV57ZO3UR57B0JQUHGFQ","98","0","JUNE","8",,"0","5","3636",,,,,"0","2018-11-06 22:33:48","376625"
"ALBUUWRN9Q07U","cs_wg_mon_single_v1_pilot1","36NEMU28XFEX83H54MZ0O46GHJIMW1","99","0","FEBRUARY","3",,"0","2","1964",,,,,"0","2018-11-06 22:33:48","376626"
"A34488HCARTJ82","cs_wg_mon_single_v1_pilot1","3137ONMDKG63ZTZS8J7ZPTFJEU5GED","14","0","SEPTEMBER","12",,"0","12","5134",,,,,"1","2018-11-06 22:33:52","376627"
"A380GYV7QAHJ0F","cs_wg_mon_single_v1_pilot1","3R0T90IZ1SDO2VFECS14Z5FGTHPCGB","80","0","AUGUST","11",,"0","6","2910",,,,,"0","2018-11-06 22:33:53","376628"
"A1YUK67SL5TWT0","cs_wg_mon_single_v1_pilot1","3JZQSN0I3QBV57ZO3UR57B0JQUHGFQ","99","0","DECEMBER","8",,"0","12","2139",,,,,"0","2018-11-06 22:33:53","376629"
"ALBUUWRN9Q07U","cs_wg_mon_single_v1_pilot1","36NEMU28XFEX83H54MZ0O46GHJIMW1","100","0","AUGUST","4",,"0","6","2526",,,,,"0","2018-11-06 22:33:53","376630"
"A1SDGH6LQWL91Z","cs_wg_mon_single_v1_pilot1","3V5Q80FXIXSAA1BOKK5E4YHLDL723K","40","0","FEBRUARY","8",,"0","2","4537",,,,,"0","2018-11-06 22:33:54","376631"
"A1TBL7E87DYE6J","cs_wg_mon_single_v1_pilot1","3K3R2QNK8B459F96KDGU1UFZW40U9B","76","0","AUGUST","10",,"0","5","5776",,,,,"0","2018-11-06 22:33:57","376632"
"ALBUUWRN9Q07U","cs_wg_mon_single_v1_pilot1","36NEMU28XFEX83H54MZ0O46GHJIMW1","101","0","DECEMBER","10",,"0","12","2418",,,,,"0","2018-11-06 22:33:57","376633"
"A34488HCARTJ82","cs_wg_mon_single_v1_pilot1","3137ONMDKG63ZTZS8J7ZPTFJEU5GED","15","0","OCTOBER","11",,"0","11","2739",,,,,"1","2018-11-06 22:33:57","376634"
"A19HQR079PPH11","cs_wg_mon_single_v1_pilot1","3Z2R0DQ0JHFDKZRL94MANPLI4AXE2N","39","0","APRIL","10",,"0","10","18882",,,,,"1","2018-11-06 22:33:57","376635"
"A380GYV7QAHJ0F","cs_wg_mon_single_v1_pilot1","3R0T90IZ1SDO2VFECS14Z5FGTHPCGB","81","0","OCTOBER","6",,"0","12","3606",,,,,"0","2018-11-06 22:33:59","376636"
"ALBUUWRN9Q07U","cs_wg_mon_single_v1_pilot1","36NEMU28XFEX83H54MZ0O46GHJIMW1","102","0","SEPTEMBER","10",,"0","8","1160",,,,,"0","2018-11-06 22:33:59","376637"
"A1YUK67SL5TWT0","cs_wg_mon_single_v1_pilot1","3JZQSN0I3QBV57ZO3UR57B0JQUHGFQ","100","0","MAY","1",,"0","6","5058",,,,,"0","2018-11-06 22:34:00","376638"
"ALBUUWRN9Q07U","cs_wg_mon_single_v1_pilot1","36NEMU28XFEX83H54MZ0O46GHJIMW1","103","0","FEBRUARY","3",,"0","12","891",,,,,"0","2018-11-06 22:34:02","376639"
"A34488HCARTJ82","cs_wg_mon_single_v1_pilot1","3137ONMDKG63ZTZS8J7ZPTFJEU5GED","16","0","JUNE","10",,"0","10","3305",,,,,"1","2018-11-06 22:34:02","376640"
"A1YUK67SL5TWT0","cs_wg_mon_single_v1_pilot1","3JZQSN0I3QBV57ZO3UR57B0JQUHGFQ","101","0","SEPTEMBER","10",,"0","3","2018",,,,,"0","2018-11-06 22:34:03","376641"
"A1SDGH6LQWL91Z","cs_wg_mon_single_v1_pilot1","3V5Q80FXIXSAA1BOKK5E4YHLDL723K","41","0","JUNE","4",,"0","9","5163",,,,,"0","2018-11-06 22:34:04","376642"
"A1TBL7E87DYE6J","cs_wg_mon_single_v1_pilot1","3K3R2QNK8B459F96KDGU1UFZW40U9B","77","0","SEPTEMBER","5",,"0","7","4668",,,,,"0","2018-11-06 22:34:04","376643"
"ALBUUWRN9Q07U","cs_wg_mon_single_v1_pilot1","36NEMU28XFEX83H54MZ0O46GHJIMW1","104","0","SEPTEMBER","5",,"0","6","1059",,,,,"0","2018-11-06 22:34:05","376644"
"A380GYV7QAHJ0F","cs_wg_mon_single_v1_pilot1","3R0T90IZ1SDO2VFECS14Z5FGTHPCGB","82","0","NOVEMBER","2",,"0","10","4103",,,,,"0","2018-11-06 22:34:05","376645"
"ALBUUWRN9Q07U","cs_wg_mon_single_v1_pilot1","36NEMU28XFEX83H54MZ0O46GHJIMW1","105","0","APRIL","2",,"0","4","1003",,,,,"0","2018-11-06 22:34:07","376646"
"A34488HCARTJ82","cs_wg_mon_single_v1_pilot1","3137ONMDKG63ZTZS8J7ZPTFJEU5GED","17","0","FEBRUARY","11",,"0","11","3198",,,,,"1","2018-11-06 22:34:08","376647"
"A1YUK67SL5TWT0","cs_wg_mon_single_v1_pilot1","3JZQSN0I3QBV57ZO3UR57B0JQUHGFQ","102","0","SEPTEMBER","3",,"0","1","2215",,,,,"0","2018-11-06 22:34:08","376648"
"ALBUUWRN9Q07U","cs_wg_mon_single_v1_pilot1","36NEMU28XFEX83H54MZ0O46GHJIMW1","106","0","OCTOBER","11",,"0","12","1417",,,,,"0","2018-11-06 22:34:10","376649"
"A19HQR079PPH11","cs_wg_mon_single_v1_pilot1","3Z2R0DQ0JHFDKZRL94MANPLI4AXE2N","40","0","OCTOBER","1",,"0","0","4755",,,,,"0","2018-11-06 22:34:11","376650"
"A380GYV7QAHJ0F","cs_wg_mon_single_v1_pilot1","3R0T90IZ1SDO2VFECS14Z5FGTHPCGB","83","0","APRIL","3",,"0","6","4024",,,,,"0","2018-11-06 22:34:11","376651"
"A1YUK67SL5TWT0","cs_wg_mon_single_v1_pilot1","3JZQSN0I3QBV57ZO3UR57B0JQUHGFQ","103","0","MAY","8",,"0","4","2217",,,,,"0","2018-11-06 22:34:12","376652"
"A1TBL7E87DYE6J","cs_wg_mon_single_v1_pilot1","3K3R2QNK8B459F96KDGU1UFZW40U9B","78","0","SEPTEMBER","1",,"0","2","6013",,,,,"0","2018-11-06 22:34:13","376653"
"A34488HCARTJ82","cs_wg_mon_single_v1_pilot1","3137ONMDKG63ZTZS8J7ZPTFJEU5GED","18","0","JUNE","1",,"0","1","2997",,,,,"1","2018-11-06 22:34:13","376654"
"ALBUUWRN9Q07U","cs_wg_mon_single_v1_pilot1","36NEMU28XFEX83H54MZ0O46GHJIMW1","107","0","OCTOBER","3",,"0","10","1198",,,,,"0","2018-11-06 22:34:13","376655"
