"subject","version","assignmentId","trial","trial_type","word","value","alt","value2","choice","rt","resp","resp2","resp3","resp4","used_hint","stamp","id"
"A2PU3C8EETKC3B","cs_wg_rev_conf_v2_real1","3IOEN3P9S7K2IZGAKI3Y6IJZNS561L","0","0","ACROBAT","10","MONKEY","8","0","23347",,,,,"1","2018-10-05 15:36:07","265616"
"A2PU3C8EETKC3B","cs_wg_rev_conf_v2_real1","3IOEN3P9S7K2IZGAKI3Y6IJZNS561L","1","0","WIZARD","9","CANCER","10","0","1098",,,,,"0","2018-10-05 15:36:14","265617"
"A2PU3C8EETKC3B","cs_wg_rev_conf_v2_real1","3IOEN3P9S7K2IZGAKI3Y6IJZNS561L","2","0","GRENADE","6","BAKER","15","1","7097",,,,,"1","2018-10-05 15:36:24","265618"
"A2PU3C8EETKC3B","cs_wg_rev_conf_v2_real1","3IOEN3P9S7K2IZGAKI3Y6IJZNS561L","3","0","BAKER","15","LIZARD","6","0","3269",,,,,"1","2018-10-05 15:36:29","265619"
"A2PU3C8EETKC3B","cs_wg_rev_conf_v2_real1","3IOEN3P9S7K2IZGAKI3Y6IJZNS561L","4","0","BICYCLE","7","PELICAN","7","0","3859",,,,,"1","2018-10-05 15:36:35","265620"
"A2PU3C8EETKC3B","cs_wg_rev_conf_v2_real1","3IOEN3P9S7K2IZGAKI3Y6IJZNS561L","5","0","GRENADE","6","LIZARD","6","0","2436",,,,,"1","2018-10-05 15:36:40","265621"
"A2PU3C8EETKC3B","cs_wg_rev_conf_v2_real1","3IOEN3P9S7K2IZGAKI3Y6IJZNS561L","6","0","PELICAN","7","BAKER","15","0","1011",,,,,"0","2018-10-05 15:36:46","265622"
"A2PU3C8EETKC3B","cs_wg_rev_conf_v2_real1","3IOEN3P9S7K2IZGAKI3Y6IJZNS561L","7","0","PELICAN","7","GRENADE","6","0","2867",,,,,"1","2018-10-05 15:36:51","265623"
"A2PU3C8EETKC3B","cs_wg_rev_conf_v2_real1","3IOEN3P9S7K2IZGAKI3Y6IJZNS561L","8","0","PELICAN","7","CANCER","10","1","3115",,,,,"1","2018-10-05 15:36:56","265624"
"A2PU3C8EETKC3B","cs_wg_rev_conf_v2_real1","3IOEN3P9S7K2IZGAKI3Y6IJZNS561L","9","0","MONKEY","8","WIZARD","9","1","3605",,,,,"1","2018-10-05 15:37:02","265625"
"A2PU3C8EETKC3B","cs_wg_rev_conf_v2_real1","3IOEN3P9S7K2IZGAKI3Y6IJZNS561L","10","0","ACROBAT","10","BICYCLE","7","0","2807",,,,,"1","2018-10-05 15:37:07","265626"
"A2PU3C8EETKC3B","cs_wg_rev_conf_v2_real1","3IOEN3P9S7K2IZGAKI3Y6IJZNS561L","11","0","AIRBAG","9","CHICKEN","1","0","2749",,,,,"1","2018-10-05 15:37:11","265627"
"A2PU3C8EETKC3B","cs_wg_rev_conf_v2_real1","3IOEN3P9S7K2IZGAKI3Y6IJZNS561L","12","0","MOUSE","8","BAKER","15","1","3475",,,,,"1","2018-10-05 15:37:17","265628"
"A2PU3C8EETKC3B","cs_wg_rev_conf_v2_real1","3IOEN3P9S7K2IZGAKI3Y6IJZNS561L","13","0","MONKEY","8","MOUSE","8","0","2952",,,,,"1","2018-10-05 15:37:22","265629"
"A2PU3C8EETKC3B","cs_wg_rev_conf_v2_real1","3IOEN3P9S7K2IZGAKI3Y6IJZNS561L","14","0","LIZARD","6","PELICAN","7","1","3900",,,,,"1","2018-10-05 15:37:28","265630"
"A2PU3C8EETKC3B","cs_wg_rev_conf_v2_real1","3IOEN3P9S7K2IZGAKI3Y6IJZNS561L","15","0","MOUSE","8","ACROBAT","10","1","2562",,,,,"1","2018-10-05 15:37:33","265631"
"A2PU3C8EETKC3B","cs_wg_rev_conf_v2_real1","3IOEN3P9S7K2IZGAKI3Y6IJZNS561L","16","0","MOUSE","8","GRENADE","6","0","2553",,,,,"1","2018-10-05 15:37:37","265632"
"A2PU3C8EETKC3B","cs_wg_rev_conf_v2_real1","3IOEN3P9S7K2IZGAKI3Y6IJZNS561L","17","0","MOUSE","8","CHICKEN","1","0","2994",,,,,"1","2018-10-05 15:37:42","265633"
"A2PU3C8EETKC3B","cs_wg_rev_conf_v2_real1","3IOEN3P9S7K2IZGAKI3Y6IJZNS561L","18","0","ACROBAT","10","LIZARD","6","0","2387",,,,,"1","2018-10-05 15:37:47","265634"
"A2PU3C8EETKC3B","cs_wg_rev_conf_v2_real1","3IOEN3P9S7K2IZGAKI3Y6IJZNS561L","19","0","LIZARD","6","CANCER","10","1","3017",,,,,"1","2018-10-05 15:37:52","265635"
"A2PU3C8EETKC3B","cs_wg_rev_conf_v2_real1","3IOEN3P9S7K2IZGAKI3Y6IJZNS561L","20","0","MONKEY","8","AIRBAG","9","1","4521",,,,,"1","2018-10-05 15:37:58","265636"
"A2PU3C8EETKC3B","cs_wg_rev_conf_v2_real1","3IOEN3P9S7K2IZGAKI3Y6IJZNS561L","21","0","ACROBAT","10","WIZARD","9","0","2442",,,,,"1","2018-10-05 15:38:03","265637"
"A2PU3C8EETKC3B","cs_wg_rev_conf_v2_real1","3IOEN3P9S7K2IZGAKI3Y6IJZNS561L","22","0","CANCER","10","MONKEY","8","0","2610",,,,,"1","2018-10-05 15:38:07","265638"
"A2PU3C8EETKC3B","cs_wg_rev_conf_v2_real1","3IOEN3P9S7K2IZGAKI3Y6IJZNS561L","23","0","BAKER","15","CANCER","10","0","4847",,,,,"1","2018-10-05 15:38:14","265639"
"A2PU3C8EETKC3B","cs_wg_rev_conf_v2_real1","3IOEN3P9S7K2IZGAKI3Y6IJZNS561L","24","0","LIZARD","6","WIZARD","9","1","3592",,,,,"1","2018-10-05 15:38:20","265640"
"A1MRWMGHPEV8S6","cs_wg_rev_conf_v2_real1","3KOPY89HM83AGX9WR5B63F317I5J3Y","0","0","JAGUAR","8","MONKEY","15","1","11974",,,,,"1","2018-10-05 15:38:25","265641"
"A2PU3C8EETKC3B","cs_wg_rev_conf_v2_real1","3IOEN3P9S7K2IZGAKI3Y6IJZNS561L","25","0","BAKER","15","BICYCLE","7","0","2698",,,,,"1","2018-10-05 15:38:25","265642"
"A2LAKROAU2MVEN","cs_wg_rev_conf_v2_real1","3P1L2B7AD1Q5XCQIDO7B7XE46Y5OLZ","0","0","ROCKET","8","MOUSE","8","0","2358",,,,,"0","2018-10-05 15:38:25","265643"
"A2PU3C8EETKC3B","cs_wg_rev_conf_v2_real1","3IOEN3P9S7K2IZGAKI3Y6IJZNS561L","26","0","AIRBAG","9","MONKEY","8","0","2499",,,,,"1","2018-10-05 15:38:29","265644"
"A2LAKROAU2MVEN","cs_wg_rev_conf_v2_real1","3P1L2B7AD1Q5XCQIDO7B7XE46Y5OLZ","1","0","CRICKET","15","GRENADE","7","0","1651",,,,,"0","2018-10-05 15:38:32","265645"
"A2PU3C8EETKC3B","cs_wg_rev_conf_v2_real1","3IOEN3P9S7K2IZGAKI3Y6IJZNS561L","27","0","PELICAN","7","MONKEY","8","1","3145",,,,,"1","2018-10-05 15:38:34","265646"
"A1MRWMGHPEV8S6","cs_wg_rev_conf_v2_real1","3KOPY89HM83AGX9WR5B63F317I5J3Y","1","0","HOCKEY","8","PELICAN","7","0","7227",,,,,"1","2018-10-05 15:38:35","265647"
"A1GMSPWCRCY2KN","cs_wg_rev_conf_v2_real1","3IO1LGZLK9YKTZ0VJ3CDLS671YB685","0","0","SKUNK","8","BLANKET","8","1","9057",,,,,"0","2018-10-05 15:38:39","265648"
"A2PU3C8EETKC3B","cs_wg_rev_conf_v2_real1","3IOEN3P9S7K2IZGAKI3Y6IJZNS561L","28","0","ACROBAT","10","CANCER","10","0","2601",,,,,"1","2018-10-05 15:38:39","265649"
"A1MRWMGHPEV8S6","cs_wg_rev_conf_v2_real1","3KOPY89HM83AGX9WR5B63F317I5J3Y","2","0","MONKEY","15","HOCKEY","8","0","3677",,,,,"1","2018-10-05 15:38:41","265650"
"A2LAKROAU2MVEN","cs_wg_rev_conf_v2_real1","3P1L2B7AD1Q5XCQIDO7B7XE46Y5OLZ","2","0","GRENADE","7","ROCKET","8","1","5338",,,,,"1","2018-10-05 15:38:43","265651"
"A2PU3C8EETKC3B","cs_wg_rev_conf_v2_real1","3IOEN3P9S7K2IZGAKI3Y6IJZNS561L","29","0","MOUSE","8","BICYCLE","7","0","3276",,,,,"1","2018-10-05 15:38:44","265652"
"A1GMSPWCRCY2KN","cs_wg_rev_conf_v2_real1","3IO1LGZLK9YKTZ0VJ3CDLS671YB685","1","0","PUMPKIN","15","BLANKET","8","0","1353",,,,,"0","2018-10-05 15:38:44","265653"
"A1MRWMGHPEV8S6","cs_wg_rev_conf_v2_real1","3KOPY89HM83AGX9WR5B63F317I5J3Y","3","0","JAGUAR","8","HOCKEY","8","0","4004",,,,,"1","2018-10-05 15:38:47","265654"
"A2LAKROAU2MVEN","cs_wg_rev_conf_v2_real1","3P1L2B7AD1Q5XCQIDO7B7XE46Y5OLZ","3","0","CRICKET","15","ROCKET","8","1","1847",,,,,"0","2018-10-05 15:38:49","265655"
"A1GMSPWCRCY2KN","cs_wg_rev_conf_v2_real1","3IO1LGZLK9YKTZ0VJ3CDLS671YB685","2","0","NAPKIN","1","BLANKET","8","1","3644",,,,,"1","2018-10-05 15:38:51","265656"
"A1L8ZQ4A13OGWX","cs_wg_rev_conf_v2_real1","3Q5ZZ9ZEVOGOAV0HEK28TMS753085R","0","0","MOUSE","8","CANCER","7","0","7258",,,,,"1","2018-10-05 15:38:51","265657"
"A2PU3C8EETKC3B","cs_wg_rev_conf_v2_real1","3IOEN3P9S7K2IZGAKI3Y6IJZNS561L","30","0","BICYCLE","7","GRENADE","6","0","5378",,,,,"1","2018-10-05 15:38:52","265658"
"A1MRWMGHPEV8S6","cs_wg_rev_conf_v2_real1","3KOPY89HM83AGX9WR5B63F317I5J3Y","4","0","JAGUAR","8","MONKEY","15","1","2748",,,,,"0","2018-10-05 15:38:52","265659"
"A2LAKROAU2MVEN","cs_wg_rev_conf_v2_real1","3P1L2B7AD1Q5XCQIDO7B7XE46Y5OLZ","4","0","MARKET","1","CRICKET","15","1","1502",,,,,"0","2018-10-05 15:38:54","265660"
"A1L8ZQ4A13OGWX","cs_wg_rev_conf_v2_real1","3Q5ZZ9ZEVOGOAV0HEK28TMS753085R","1","0","MOUSE","8","PUMPKIN","8","0","2368",,,,,"0","2018-10-05 15:38:56","265661"
"A1GMSPWCRCY2KN","cs_wg_rev_conf_v2_real1","3IO1LGZLK9YKTZ0VJ3CDLS671YB685","3","0","BLANKET","8","TOMATO","7","0","3983",,,,,"1","2018-10-05 15:38:57","265662"
"A1MRWMGHPEV8S6","cs_wg_rev_conf_v2_real1","3KOPY89HM83AGX9WR5B63F317I5J3Y","5","0","HOCKEY","8","COOKIE","1","0","3970",,,,,"1","2018-10-05 15:38:58","265663"
"A2PU3C8EETKC3B","cs_wg_rev_conf_v2_real1","3IOEN3P9S7K2IZGAKI3Y6IJZNS561L","31","0","BAKER","15","PELICAN","7","0","4156",,,,,"1","2018-10-05 15:38:58","265664"
"A2LAKROAU2MVEN","cs_wg_rev_conf_v2_real1","3P1L2B7AD1Q5XCQIDO7B7XE46Y5OLZ","5","0","ROCKET","8","GRENADE","7","0","2779",,,,,"0","2018-10-05 15:38:59","265665"
"A1MRWMGHPEV8S6","cs_wg_rev_conf_v2_real1","3KOPY89HM83AGX9WR5B63F317I5J3Y","6","0","HOCKEY","8","COOKIE","1","0","1170",,,,,"0","2018-10-05 15:39:01","265666"
"A1L8ZQ4A13OGWX","cs_wg_rev_conf_v2_real1","3Q5ZZ9ZEVOGOAV0HEK28TMS753085R","2","0","BAKER","15","MOUSE","8","0","2981",,,,,"0","2018-10-05 15:39:02","265667"
"A2PU3C8EETKC3B","cs_wg_rev_conf_v2_real1","3IOEN3P9S7K2IZGAKI3Y6IJZNS561L","32","0","PELICAN","7","MOUSE","8","1","3275",,,,,"1","2018-10-05 15:39:03","265668"
"A1GMSPWCRCY2KN","cs_wg_rev_conf_v2_real1","3IO1LGZLK9YKTZ0VJ3CDLS671YB685","4","0","TOMATO","7","NAPKIN","1","0","4375",,,,,"1","2018-10-05 15:39:04","265669"
"A2LAKROAU2MVEN","cs_wg_rev_conf_v2_real1","3P1L2B7AD1Q5XCQIDO7B7XE46Y5OLZ","6","0","ROCKET","8","MOUSE","8","1","2693",,,,,"0","2018-10-05 15:39:07","265670"
"A1RSDFFZIVE5BO","cs_wg_rev_conf_v2_real1","3SITXWYCNVAGECIYN25DC79S68VBX3","0","0","MONKEY","8","DONKEY","1","0","5821",,,,,"0","2018-10-05 15:39:07","265671"
"A1MRWMGHPEV8S6","cs_wg_rev_conf_v2_real1","3KOPY89HM83AGX9WR5B63F317I5J3Y","7","0","COOKIE","1","PELICAN","7","1","3981",,,,,"1","2018-10-05 15:39:08","265672"
"A1L8ZQ4A13OGWX","cs_wg_rev_conf_v2_real1","3Q5ZZ9ZEVOGOAV0HEK28TMS753085R","3","0","PUMPKIN","8","BAKER","15","0","2718",,,,,"0","2018-10-05 15:39:08","265673"
"A2PU3C8EETKC3B","cs_wg_rev_conf_v2_real1","3IOEN3P9S7K2IZGAKI3Y6IJZNS561L","33","0","BICYCLE","7","BAKER","15","1","3244",,,,,"1","2018-10-05 15:39:09","265674"
"A1GMSPWCRCY2KN","cs_wg_rev_conf_v2_real1","3IO1LGZLK9YKTZ0VJ3CDLS671YB685","5","0","NAPKIN","1","SKUNK","8","0","2385",,,,,"0","2018-10-05 15:39:09","265675"
"A2LAKROAU2MVEN","cs_wg_rev_conf_v2_real1","3P1L2B7AD1Q5XCQIDO7B7XE46Y5OLZ","7","0","ROCKET","8","MOUSE","8","0","1825",,,,,"0","2018-10-05 15:39:11","265676"
"A1MRWMGHPEV8S6","cs_wg_rev_conf_v2_real1","3KOPY89HM83AGX9WR5B63F317I5J3Y","8","0","PELICAN","7","MONKEY","15","1","1906",,,,,"0","2018-10-05 15:39:12","265677"
"A1GMSPWCRCY2KN","cs_wg_rev_conf_v2_real1","3IO1LGZLK9YKTZ0VJ3CDLS671YB685","6","0","NAPKIN","1","SKUNK","8","1","1737",,,,,"0","2018-10-05 15:39:13","265678"
"A2LAKROAU2MVEN","cs_wg_rev_conf_v2_real1","3P1L2B7AD1Q5XCQIDO7B7XE46Y5OLZ","8","0","GRENADE","7","MOUSE","8","1","1961",,,,,"0","2018-10-05 15:39:15","265679"
"A1MRWMGHPEV8S6","cs_wg_rev_conf_v2_real1","3KOPY89HM83AGX9WR5B63F317I5J3Y","9","0","PELICAN","7","COOKIE","1","0","1655",,,,,"0","2018-10-05 15:39:15","265680"
"A2PU3C8EETKC3B","cs_wg_rev_conf_v2_real1","3IOEN3P9S7K2IZGAKI3Y6IJZNS561L","34","0","GRENADE","6","BICYCLE","7","1","5458",,,,,"1","2018-10-05 15:39:16","265681"
"A1L8ZQ4A13OGWX","cs_wg_rev_conf_v2_real1","3Q5ZZ9ZEVOGOAV0HEK28TMS753085R","4","0","CANCER","7","PUMPKIN","8","1","5598",,,,,"1","2018-10-05 15:39:18","265682"
"A1GMSPWCRCY2KN","cs_wg_rev_conf_v2_real1","3IO1LGZLK9YKTZ0VJ3CDLS671YB685","7","0","TOMATO","7","NAPKIN","1","0","2348",,,,,"0","2018-10-05 15:39:18","265683"
"A1MRWMGHPEV8S6","cs_wg_rev_conf_v2_real1","3KOPY89HM83AGX9WR5B63F317I5J3Y","10","0","HOCKEY","8","JAGUAR","8","1","2140",,,,,"0","2018-10-05 15:39:19","265684"
"A2PU3C8EETKC3B","cs_wg_rev_conf_v2_real1","3IOEN3P9S7K2IZGAKI3Y6IJZNS561L","35","0","MOUSE","8","WIZARD","9","0","2705",,,,,"1","2018-10-05 15:39:21","265685"
"A1GMSPWCRCY2KN","cs_wg_rev_conf_v2_real1","3IO1LGZLK9YKTZ0VJ3CDLS671YB685","8","0","PUMPKIN","15","NAPKIN","1","0","1125",,,,,"0","2018-10-05 15:39:21","265686"
"A1RSDFFZIVE5BO","cs_wg_rev_conf_v2_real1","3SITXWYCNVAGECIYN25DC79S68VBX3","1","0","GROUND","8","MONKEY","8","1","10088",,,,,"0","2018-10-05 15:39:22","265687"
"A1MRWMGHPEV8S6","cs_wg_rev_conf_v2_real1","3KOPY89HM83AGX9WR5B63F317I5J3Y","11","0","PELICAN","7","MONKEY","15","1","867",,,,,"0","2018-10-05 15:39:22","265688"
"A2LAKROAU2MVEN","cs_wg_rev_conf_v2_real1","3P1L2B7AD1Q5XCQIDO7B7XE46Y5OLZ","9","0","MARKET","1","GRENADE","7","1","4757",,,,,"1","2018-10-05 15:39:22","265689"
"A1L8ZQ4A13OGWX","cs_wg_rev_conf_v2_real1","3Q5ZZ9ZEVOGOAV0HEK28TMS753085R","5","0","CANCER","7","COOKIE","1","1","4199",,,,,"0","2018-10-05 15:39:25","265690"
"A2PU3C8EETKC3B","cs_wg_rev_conf_v2_real1","3IOEN3P9S7K2IZGAKI3Y6IJZNS561L","36","0","GRENADE","6","WIZARD","9","1","2722",,,,,"1","2018-10-05 15:39:25","265691"
"A1MRWMGHPEV8S6","cs_wg_rev_conf_v2_real1","3KOPY89HM83AGX9WR5B63F317I5J3Y","12","0","HOCKEY","8","JAGUAR","8","1","1470",,,,,"0","2018-10-05 15:39:26","265692"
"A2LAKROAU2MVEN","cs_wg_rev_conf_v2_real1","3P1L2B7AD1Q5XCQIDO7B7XE46Y5OLZ","10","0","GRENADE","7","MOUSE","8","0","1380",,,,,"0","2018-10-05 15:39:26","265693"
"A1GMSPWCRCY2KN","cs_wg_rev_conf_v2_real1","3IO1LGZLK9YKTZ0VJ3CDLS671YB685","9","0","TOMATO","7","SKUNK","8","1","1923",,,,,"0","2018-10-05 15:39:26","265694"
"A1MRWMGHPEV8S6","cs_wg_rev_conf_v2_real1","3KOPY89HM83AGX9WR5B63F317I5J3Y","13","0","MONKEY","15","HOCKEY","8","0","1624",,,,,"0","2018-10-05 15:39:29","265695"
"A1GMSPWCRCY2KN","cs_wg_rev_conf_v2_real1","3IO1LGZLK9YKTZ0VJ3CDLS671YB685","10","0","NAPKIN","1","TOMATO","7","1","857",,,,,"0","2018-10-05 15:39:29","265696"
"A1RSDFFZIVE5BO","cs_wg_rev_conf_v2_real1","3SITXWYCNVAGECIYN25DC79S68VBX3","2","0","WHISKER","15","GROUND","8","0","3787",,,,,"0","2018-10-05 15:39:30","265697"
"A2PU3C8EETKC3B","cs_wg_rev_conf_v2_real1","3IOEN3P9S7K2IZGAKI3Y6IJZNS561L","37","0","WIZARD","9","GRENADE","6","0","3179",,,,,"1","2018-10-05 15:39:31","265698"
"A1MRWMGHPEV8S6","cs_wg_rev_conf_v2_real1","3KOPY89HM83AGX9WR5B63F317I5J3Y","14","0","JAGUAR","8","MONKEY","15","1","1274",,,,,"0","2018-10-05 15:39:32","265699"
"A1GMSPWCRCY2KN","cs_wg_rev_conf_v2_real1","3IO1LGZLK9YKTZ0VJ3CDLS671YB685","11","0","NAPKIN","1","PUMPKIN","15","1","704",,,,,"0","2018-10-05 15:39:32","265700"
"A2LAKROAU2MVEN","cs_wg_rev_conf_v2_real1","3P1L2B7AD1Q5XCQIDO7B7XE46Y5OLZ","11","0","MOUSE","8","GRENADE","7","0","3423",,,,,"1","2018-10-05 15:39:32","265701"
"A2PU3C8EETKC3B","cs_wg_rev_conf_v2_real1","3IOEN3P9S7K2IZGAKI3Y6IJZNS561L","38","0","AIRBAG","9","WIZARD","9","0","2411",,,,,"1","2018-10-05 15:39:35","265702"
"A1MRWMGHPEV8S6","cs_wg_rev_conf_v2_real1","3KOPY89HM83AGX9WR5B63F317I5J3Y","15","0","COOKIE","1","HOCKEY","8","1","1458",,,,,"0","2018-10-05 15:39:35","265703"
"A1GMSPWCRCY2KN","cs_wg_rev_conf_v2_real1","3IO1LGZLK9YKTZ0VJ3CDLS671YB685","12","0","PUMPKIN","15","NAPKIN","1","0","1100",,,,,"0","2018-10-05 15:39:35","265704"
"A1L8ZQ4A13OGWX","cs_wg_rev_conf_v2_real1","3Q5ZZ9ZEVOGOAV0HEK28TMS753085R","6","0","COOKIE","1","MOUSE","8","1","8121",,,,,"1","2018-10-05 15:39:37","265705"
"A1MRWMGHPEV8S6","cs_wg_rev_conf_v2_real1","3KOPY89HM83AGX9WR5B63F317I5J3Y","16","0","JAGUAR","8","COOKIE","1","0","1625",,,,,"0","2018-10-05 15:39:38","265706"
"A1GMSPWCRCY2KN","cs_wg_rev_conf_v2_real1","3IO1LGZLK9YKTZ0VJ3CDLS671YB685","13","0","NAPKIN","1","TOMATO","7","1","1339",,,,,"0","2018-10-05 15:39:38","265707"
"A2PU3C8EETKC3B","cs_wg_rev_conf_v2_real1","3IOEN3P9S7K2IZGAKI3Y6IJZNS561L","39","0","BICYCLE","7","AIRBAG","9","1","2740",,,,,"1","2018-10-05 15:39:40","265708"
"A2LAKROAU2MVEN","cs_wg_rev_conf_v2_real1","3P1L2B7AD1Q5XCQIDO7B7XE46Y5OLZ","12","0","MOUSE","8","CRICKET","15","1","1047",,,,,"0","2018-10-05 15:39:40","265709"
"A1GMSPWCRCY2KN","cs_wg_rev_conf_v2_real1","3IO1LGZLK9YKTZ0VJ3CDLS671YB685","14","0","TOMATO","7","PUMPKIN","15","1","753",,,,,"0","2018-10-05 15:39:41","265710"
"A1MRWMGHPEV8S6","cs_wg_rev_conf_v2_real1","3KOPY89HM83AGX9WR5B63F317I5J3Y","17","0","JAGUAR","8","PELICAN","7","0","1289",,,,,"0","2018-10-05 15:39:41","265711"
"AW1SWNQFPIUKF","cs_wg_rev_conf_v2_real1","3OB0CAO74HQF5UBUSQ1BHWJZ3RWYHE","0","0","SEAGULL","8","HOCKEY","1","0","4898",,,,,"0","2018-10-05 15:39:42","265712"
"A2PU3C8EETKC3B","cs_wg_rev_conf_v2_real1","3IOEN3P9S7K2IZGAKI3Y6IJZNS561L","40","0","ACROBAT","10","GRENADE","6","0","2435",,,,,"1","2018-10-05 15:39:44","265713"
"A2LAKROAU2MVEN","cs_wg_rev_conf_v2_real1","3P1L2B7AD1Q5XCQIDO7B7XE46Y5OLZ","13","0","ROCKET","8","MARKET","1","0","1533",,,,,"0","2018-10-05 15:39:44","265714"
"A1MRWMGHPEV8S6","cs_wg_rev_conf_v2_real1","3KOPY89HM83AGX9WR5B63F317I5J3Y","18","0","COOKIE","1","JAGUAR","8","1","1702",,,,,"0","2018-10-05 15:39:45","265715"
"A1L8ZQ4A13OGWX","cs_wg_rev_conf_v2_real1","3Q5ZZ9ZEVOGOAV0HEK28TMS753085R","7","0","COOKIE","1","MOUSE","8","1","3797",,,,,"0","2018-10-05 15:39:45","265716"
"A1RSDFFZIVE5BO","cs_wg_rev_conf_v2_real1","3SITXWYCNVAGECIYN25DC79S68VBX3","3","0","WHISKER","15","MONKEY","8","1","13123",,,,,"0","2018-10-05 15:39:46","265717"
"A1GMSPWCRCY2KN","cs_wg_rev_conf_v2_real1","3IO1LGZLK9YKTZ0VJ3CDLS671YB685","15","0","BLANKET","8","NAPKIN","1","0","3459",,,,,"1","2018-10-05 15:39:46","265718"
"A1MRWMGHPEV8S6","cs_wg_rev_conf_v2_real1","3KOPY89HM83AGX9WR5B63F317I5J3Y","19","0","MONKEY","15","PELICAN","7","0","1266",,,,,"0","2018-10-05 15:39:47","265719"
"A2LAKROAU2MVEN","cs_wg_rev_conf_v2_real1","3P1L2B7AD1Q5XCQIDO7B7XE46Y5OLZ","14","0","CRICKET","15","GRENADE","7","0","961",,,,,"0","2018-10-05 15:39:48","265720"
"A2PU3C8EETKC3B","cs_wg_rev_conf_v2_real1","3IOEN3P9S7K2IZGAKI3Y6IJZNS561L","41","0","MOUSE","8","LIZARD","6","0","2634",,,,,"1","2018-10-05 15:39:49","265721"
"A2LAKROAU2MVEN","cs_wg_rev_conf_v2_real1","3P1L2B7AD1Q5XCQIDO7B7XE46Y5OLZ","15","0","CRICKET","15","MARKET","1","0","510",,,,,"0","2018-10-05 15:39:50","265722"
"A1RSDFFZIVE5BO","cs_wg_rev_conf_v2_real1","3SITXWYCNVAGECIYN25DC79S68VBX3","4","0","GROUND","8","WHISKER","15","1","1558",,,,,"0","2018-10-05 15:39:50","265723"
"A1MRWMGHPEV8S6","cs_wg_rev_conf_v2_real1","3KOPY89HM83AGX9WR5B63F317I5J3Y","20","0","COOKIE","1","MONKEY","15","1","1115",,,,,"0","2018-10-05 15:39:50","265724"
"A1GMSPWCRCY2KN","cs_wg_rev_conf_v2_real1","3IO1LGZLK9YKTZ0VJ3CDLS671YB685","16","0","PUMPKIN","15","TOMATO","7","0","1298",,,,,"0","2018-10-05 15:39:51","265725"
"A1L8ZQ4A13OGWX","cs_wg_rev_conf_v2_real1","3Q5ZZ9ZEVOGOAV0HEK28TMS753085R","8","0","MOUSE","8","COOKIE","1","0","2666",,,,,"0","2018-10-05 15:39:51","265726"
"AW1SWNQFPIUKF","cs_wg_rev_conf_v2_real1","3OB0CAO74HQF5UBUSQ1BHWJZ3RWYHE","1","0","HOCKEY","1","PALACE","7","1","6949",,,,,"1","2018-10-05 15:39:53","265727"
"A1RSDFFZIVE5BO","cs_wg_rev_conf_v2_real1","3SITXWYCNVAGECIYN25DC79S68VBX3","5","0","WHISKER","15","BICYCLE","7","0","1068",,,,,"0","2018-10-05 15:39:54","265728"
"A1GMSPWCRCY2KN","cs_wg_rev_conf_v2_real1","3IO1LGZLK9YKTZ0VJ3CDLS671YB685","17","0","PUMPKIN","15","SKUNK","8","0","1085",,,,,"0","2018-10-05 15:39:54","265729"
"A2LAKROAU2MVEN","cs_wg_rev_conf_v2_real1","3P1L2B7AD1Q5XCQIDO7B7XE46Y5OLZ","16","0","ROCKET","8","MARKET","1","0","1537",,,,,"0","2018-10-05 15:39:54","265730"
"A1MRWMGHPEV8S6","cs_wg_rev_conf_v2_real1","3KOPY89HM83AGX9WR5B63F317I5J3Y","21","0","HOCKEY","8","PELICAN","7","0","1991",,,,,"0","2018-10-05 15:39:54","265731"
"A2PU3C8EETKC3B","cs_wg_rev_conf_v2_real1","3IOEN3P9S7K2IZGAKI3Y6IJZNS561L","42","0","CHICKEN","1","MONKEY","8","1","3339",,,,,"1","2018-10-05 15:39:54","265732"
"A1L8ZQ4A13OGWX","cs_wg_rev_conf_v2_real1","3Q5ZZ9ZEVOGOAV0HEK28TMS753085R","9","0","COOKIE","1","MOUSE","8","1","1949",,,,,"0","2018-10-05 15:39:55","265733"
"A1GMSPWCRCY2KN","cs_wg_rev_conf_v2_real1","3IO1LGZLK9YKTZ0VJ3CDLS671YB685","18","0","SKUNK","8","PUMPKIN","15","1","1117",,,,,"0","2018-10-05 15:39:57","265734"
"A1MRWMGHPEV8S6","cs_wg_rev_conf_v2_real1","3KOPY89HM83AGX9WR5B63F317I5J3Y","22","0","JAGUAR","8","PELICAN","7","1","2268",,,,,"0","2018-10-05 15:39:58","265735"
"A2PU3C8EETKC3B","cs_wg_rev_conf_v2_real1","3IOEN3P9S7K2IZGAKI3Y6IJZNS561L","43","0","BAKER","15","AIRBAG","9","0","2475",,,,,"1","2018-10-05 15:39:58","265736"
"A1RSDFFZIVE5BO","cs_wg_rev_conf_v2_real1","3SITXWYCNVAGECIYN25DC79S68VBX3","6","0","MONKEY","8","BICYCLE","7","1","2799",,,,,"0","2018-10-05 15:39:59","265737"
"A2LAKROAU2MVEN","cs_wg_rev_conf_v2_real1","3P1L2B7AD1Q5XCQIDO7B7XE46Y5OLZ","17","0","ROCKET","8","GRENADE","7","0","3541",,,,,"1","2018-10-05 15:39:59","265738"
"A1GMSPWCRCY2KN","cs_wg_rev_conf_v2_real1","3IO1LGZLK9YKTZ0VJ3CDLS671YB685","19","0","PUMPKIN","15","TOMATO","7","0","978",,,,,"0","2018-10-05 15:40:00","265739"
"A1MRWMGHPEV8S6","cs_wg_rev_conf_v2_real1","3KOPY89HM83AGX9WR5B63F317I5J3Y","23","0","COOKIE","1","MONKEY","15","1","960",,,,,"0","2018-10-05 15:40:00","265740"
"AW1SWNQFPIUKF","cs_wg_rev_conf_v2_real1","3OB0CAO74HQF5UBUSQ1BHWJZ3RWYHE","2","0","PALACE","7","HOCKEY","1","0","6114",,,,,"1","2018-10-05 15:40:01","265741"
"A2LAKROAU2MVEN","cs_wg_rev_conf_v2_real1","3P1L2B7AD1Q5XCQIDO7B7XE46Y5OLZ","18","0","ROCKET","8","CRICKET","15","1","1197",,,,,"0","2018-10-05 15:40:02","265742"
"A1MRWMGHPEV8S6","cs_wg_rev_conf_v2_real1","3KOPY89HM83AGX9WR5B63F317I5J3Y","24","0","PELICAN","7","COOKIE","1","0","1163",,,,,"0","2018-10-05 15:40:03","265743"
"A1RSDFFZIVE5BO","cs_wg_rev_conf_v2_real1","3SITXWYCNVAGECIYN25DC79S68VBX3","7","0","BICYCLE","7","GROUND","8","0","3122",,,,,"0","2018-10-05 15:40:04","265744"
"A1L8ZQ4A13OGWX","cs_wg_rev_conf_v2_real1","3Q5ZZ9ZEVOGOAV0HEK28TMS753085R","10","0","PUMPKIN","8","MOUSE","8","1","6117",,,,,"1","2018-10-05 15:40:04","265745"
"A1GMSPWCRCY2KN","cs_wg_rev_conf_v2_real1","3IO1LGZLK9YKTZ0VJ3CDLS671YB685","20","0","BLANKET","8","SKUNK","8","1","2716",,,,,"0","2018-10-05 15:40:05","265746"
"A2PU3C8EETKC3B","cs_wg_rev_conf_v2_real1","3IOEN3P9S7K2IZGAKI3Y6IJZNS561L","44","0","CHICKEN","1","BICYCLE","7","0","4032",,,,,"0","2018-10-05 15:40:06","265747"
"A1MRWMGHPEV8S6","cs_wg_rev_conf_v2_real1","3KOPY89HM83AGX9WR5B63F317I5J3Y","25","0","JAGUAR","8","PELICAN","7","1","1849",,,,,"0","2018-10-05 15:40:07","265748"
"A1GMSPWCRCY2KN","cs_wg_rev_conf_v2_real1","3IO1LGZLK9YKTZ0VJ3CDLS671YB685","21","0","SKUNK","8","BLANKET","8","1","732",,,,,"0","2018-10-05 15:40:07","265749"
"A2LAKROAU2MVEN","cs_wg_rev_conf_v2_real1","3P1L2B7AD1Q5XCQIDO7B7XE46Y5OLZ","19","0","MOUSE","8","CRICKET","15","1","2693",,,,,"1","2018-10-05 15:40:07","265750"
"AW1SWNQFPIUKF","cs_wg_rev_conf_v2_real1","3OB0CAO74HQF5UBUSQ1BHWJZ3RWYHE","3","0","HOCKEY","1","MARKET","15","1","4691",,,,,"1","2018-10-05 15:40:08","265751"
"A1MRWMGHPEV8S6","cs_wg_rev_conf_v2_real1","3KOPY89HM83AGX9WR5B63F317I5J3Y","26","0","MONKEY","15","JAGUAR","8","0","1024",,,,,"0","2018-10-05 15:40:09","265752"
"A1GMSPWCRCY2KN","cs_wg_rev_conf_v2_real1","3IO1LGZLK9YKTZ0VJ3CDLS671YB685","22","0","SKUNK","8","PUMPKIN","15","1","710",,,,,"0","2018-10-05 15:40:09","265753"
"A1L8ZQ4A13OGWX","cs_wg_rev_conf_v2_real1","3Q5ZZ9ZEVOGOAV0HEK28TMS753085R","11","0","COOKIE","1","PUMPKIN","8","1","2673",,,,,"0","2018-10-05 15:40:10","265754"
"A2LAKROAU2MVEN","cs_wg_rev_conf_v2_real1","3P1L2B7AD1Q5XCQIDO7B7XE46Y5OLZ","20","0","ROCKET","8","MARKET","1","1","1236",,,,,"0","2018-10-05 15:40:11","265755"
"A2PU3C8EETKC3B","cs_wg_rev_conf_v2_real1","3IOEN3P9S7K2IZGAKI3Y6IJZNS561L","45","0","CANCER","10","ACROBAT","10","1","3003",,,,,"0","2018-10-05 15:40:11","265756"
"AW1SWNQFPIUKF","cs_wg_rev_conf_v2_real1","3OB0CAO74HQF5UBUSQ1BHWJZ3RWYHE","4","0","MARKET","15","BASKET","8","1","2005",,,,,"0","2018-10-05 15:40:12","265757"
"A1GMSPWCRCY2KN","cs_wg_rev_conf_v2_real1","3IO1LGZLK9YKTZ0VJ3CDLS671YB685","23","0","PUMPKIN","15","SKUNK","8","0","976",,,,,"0","2018-10-05 15:40:12","265758"
"A1MRWMGHPEV8S6","cs_wg_rev_conf_v2_real1","3KOPY89HM83AGX9WR5B63F317I5J3Y","27","0","PELICAN","7","HOCKEY","8","0","976",,,,,"0","2018-10-05 15:40:12","265759"
"A1RSDFFZIVE5BO","cs_wg_rev_conf_v2_real1","3SITXWYCNVAGECIYN25DC79S68VBX3","8","0","BICYCLE","7","WHISKER","15","1","5689",,,,,"0","2018-10-05 15:40:12","265760"
"A1GMSPWCRCY2KN","cs_wg_rev_conf_v2_real1","3IO1LGZLK9YKTZ0VJ3CDLS671YB685","24","0","NAPKIN","1","PUMPKIN","15","1","584",,,,,"0","2018-10-05 15:40:14","265761"
"A1MRWMGHPEV8S6","cs_wg_rev_conf_v2_real1","3KOPY89HM83AGX9WR5B63F317I5J3Y","28","0","HOCKEY","8","COOKIE","1","0","973",,,,,"0","2018-10-05 15:40:15","265762"
"A2PU3C8EETKC3B","cs_wg_rev_conf_v2_real1","3IOEN3P9S7K2IZGAKI3Y6IJZNS561L","46","0","GRENADE","6","ACROBAT","10","0","1570",,,,,"0","2018-10-05 15:40:15","265763"
"A2LAKROAU2MVEN","cs_wg_rev_conf_v2_real1","3P1L2B7AD1Q5XCQIDO7B7XE46Y5OLZ","21","0","GRENADE","7","ROCKET","8","0","2375",,,,,"0","2018-10-05 15:40:16","265764"
"A1GMSPWCRCY2KN","cs_wg_rev_conf_v2_real1","3IO1LGZLK9YKTZ0VJ3CDLS671YB685","25","0","PUMPKIN","15","NAPKIN","1","0","976",,,,,"0","2018-10-05 15:40:17","265765"
"A1MRWMGHPEV8S6","cs_wg_rev_conf_v2_real1","3KOPY89HM83AGX9WR5B63F317I5J3Y","29","0","MONKEY","15","COOKIE","1","0","713",,,,,"0","2018-10-05 15:40:17","265766"
"AW1SWNQFPIUKF","cs_wg_rev_conf_v2_real1","3OB0CAO74HQF5UBUSQ1BHWJZ3RWYHE","5","0","SEAGULL","8","HOCKEY","1","0","3792",,,,,"1","2018-10-05 15:40:18","265767"
"A1L8ZQ4A13OGWX","cs_wg_rev_conf_v2_real1","3Q5ZZ9ZEVOGOAV0HEK28TMS753085R","12","0","CANCER","7","BAKER","15","1","4632",,,,,"1","2018-10-05 15:40:18","265768"
"AMV1E7FFPVAW4","cs_wg_rev_conf_v2_real1","35DR22AR5DLBBHEL89Q7UOBGIGI3X4","0","0","BASKET","15","WIZARD","7","1","17532",,,,,"0","2018-10-05 15:40:19","265769"
"A1RSDFFZIVE5BO","cs_wg_rev_conf_v2_real1","3SITXWYCNVAGECIYN25DC79S68VBX3","9","0","DONKEY","1","MONKEY","8","1","5001",,,,,"0","2018-10-05 15:40:19","265770"
"A1GMSPWCRCY2KN","cs_wg_rev_conf_v2_real1","3IO1LGZLK9YKTZ0VJ3CDLS671YB685","26","0","TOMATO","7","NAPKIN","1","0","886",,,,,"0","2018-10-05 15:40:20","265771"
"A1MRWMGHPEV8S6","cs_wg_rev_conf_v2_real1","3KOPY89HM83AGX9WR5B63F317I5J3Y","30","0","PELICAN","7","HOCKEY","8","0","1137",,,,,"0","2018-10-05 15:40:20","265772"
"A2LAKROAU2MVEN","cs_wg_rev_conf_v2_real1","3P1L2B7AD1Q5XCQIDO7B7XE46Y5OLZ","22","0","MOUSE","8","ROCKET","8","1","1365",,,,,"0","2018-10-05 15:40:20","265773"
"A2PU3C8EETKC3B","cs_wg_rev_conf_v2_real1","3IOEN3P9S7K2IZGAKI3Y6IJZNS561L","47","0","CHICKEN","1","LIZARD","6","1","2155",,,,,"0","2018-10-05 15:40:20","265774"
"A1GMSPWCRCY2KN","cs_wg_rev_conf_v2_real1","3IO1LGZLK9YKTZ0VJ3CDLS671YB685","27","0","TOMATO","7","BLANKET","8","0","957",,,,,"0","2018-10-05 15:40:22","265775"
"A1MRWMGHPEV8S6","cs_wg_rev_conf_v2_real1","3KOPY89HM83AGX9WR5B63F317I5J3Y","31","0","COOKIE","1","HOCKEY","8","1","1498",,,,,"0","2018-10-05 15:40:23","265776"
"AW1SWNQFPIUKF","cs_wg_rev_conf_v2_real1","3OB0CAO74HQF5UBUSQ1BHWJZ3RWYHE","6","0","HOCKEY","1","PALACE","7","1","3196",,,,,"1","2018-10-05 15:40:23","265777"
"A2LAKROAU2MVEN","cs_wg_rev_conf_v2_real1","3P1L2B7AD1Q5XCQIDO7B7XE46Y5OLZ","23","0","MARKET","1","MOUSE","8","1","2717",,,,,"0","2018-10-05 15:40:25","265778"
"A1GMSPWCRCY2KN","cs_wg_rev_conf_v2_real1","3IO1LGZLK9YKTZ0VJ3CDLS671YB685","28","0","TOMATO","7","BLANKET","8","1","955",,,,,"0","2018-10-05 15:40:25","265779"
"A1MRWMGHPEV8S6","cs_wg_rev_conf_v2_real1","3KOPY89HM83AGX9WR5B63F317I5J3Y","32","0","HOCKEY","8","JAGUAR","8","1","1327",,,,,"0","2018-10-05 15:40:25","265780"
"A2PU3C8EETKC3B","cs_wg_rev_conf_v2_real1","3IOEN3P9S7K2IZGAKI3Y6IJZNS561L","48","0","WIZARD","9","BAKER","15","0","1700",,,,,"0","2018-10-05 15:40:26","265781"
"AMV1E7FFPVAW4","cs_wg_rev_conf_v2_real1","35DR22AR5DLBBHEL89Q7UOBGIGI3X4","1","0","COOKIE","1","DONKEY","8","1","3755",,,,,"0","2018-10-05 15:40:27","265782"
"A1GMSPWCRCY2KN","cs_wg_rev_conf_v2_real1","3IO1LGZLK9YKTZ0VJ3CDLS671YB685","29","0","SKUNK","8","NAPKIN","1","1","994",,,,,"0","2018-10-05 15:40:27","265783"
"A1L8ZQ4A13OGWX","cs_wg_rev_conf_v2_real1","3Q5ZZ9ZEVOGOAV0HEK28TMS753085R","13","0","MOUSE","8","COOKIE","1","0","7284",,,,,"1","2018-10-05 15:40:27","265784"
"A1MRWMGHPEV8S6","cs_wg_rev_conf_v2_real1","3KOPY89HM83AGX9WR5B63F317I5J3Y","33","0","MONKEY","15","JAGUAR","8","0","926",,,,,"0","2018-10-05 15:40:28","265785"
"A2PU3C8EETKC3B","cs_wg_rev_conf_v2_real1","3IOEN3P9S7K2IZGAKI3Y6IJZNS561L","49","0","MONKEY","8","CANCER","10","1","532",,,,,"0","2018-10-05 15:40:29","265786"
"AW1SWNQFPIUKF","cs_wg_rev_conf_v2_real1","3OB0CAO74HQF5UBUSQ1BHWJZ3RWYHE","7","0","BASKET","8","MARKET","15","1","4194",,,,,"1","2018-10-05 15:40:29","265787"
"A2LAKROAU2MVEN","cs_wg_rev_conf_v2_real1","3P1L2B7AD1Q5XCQIDO7B7XE46Y5OLZ","24","0","GRENADE","7","MARKET","1","1","1948",,,,,"0","2018-10-05 15:40:29","265788"
"A1GMSPWCRCY2KN","cs_wg_rev_conf_v2_real1","3IO1LGZLK9YKTZ0VJ3CDLS671YB685","30","0","SKUNK","8","NAPKIN","1","0","1223",,,,,"0","2018-10-05 15:40:30","265789"
"A1MRWMGHPEV8S6","cs_wg_rev_conf_v2_real1","3KOPY89HM83AGX9WR5B63F317I5J3Y","34","0","COOKIE","1","JAGUAR","8","1","1466",,,,,"0","2018-10-05 15:40:31","265790"
"A1RSDFFZIVE5BO","cs_wg_rev_conf_v2_real1","3SITXWYCNVAGECIYN25DC79S68VBX3","10","0","GROUND","8","WHISKER","15","1","1978",,,,,"0","2018-10-05 15:40:31","265791"
"A2PU3C8EETKC3B","cs_wg_rev_conf_v2_real1","3IOEN3P9S7K2IZGAKI3Y6IJZNS561L","50","0","BICYCLE","7","MONKEY","8","1","629",,,,,"0","2018-10-05 15:40:32","265792"
"A1GMSPWCRCY2KN","cs_wg_rev_conf_v2_real1","3IO1LGZLK9YKTZ0VJ3CDLS671YB685","31","0","NAPKIN","1","BLANKET","8","1","804",,,,,"0","2018-10-05 15:40:32","265793"
"A2LAKROAU2MVEN","cs_wg_rev_conf_v2_real1","3P1L2B7AD1Q5XCQIDO7B7XE46Y5OLZ","25","0","CRICKET","15","ROCKET","8","0","1114",,,,,"0","2018-10-05 15:40:32","265794"
"AW1SWNQFPIUKF","cs_wg_rev_conf_v2_real1","3OB0CAO74HQF5UBUSQ1BHWJZ3RWYHE","8","0","BASKET","8","SEAGULL","8","1","1690",,,,,"0","2018-10-05 15:40:33","265795"
"A1MRWMGHPEV8S6","cs_wg_rev_conf_v2_real1","3KOPY89HM83AGX9WR5B63F317I5J3Y","35","0","PELICAN","7","MONKEY","15","1","653",,,,,"0","2018-10-05 15:40:33","265796"
"A1L8ZQ4A13OGWX","cs_wg_rev_conf_v2_real1","3Q5ZZ9ZEVOGOAV0HEK28TMS753085R","14","0","COOKIE","1","CANCER","7","1","3392",,,,,"0","2018-10-05 15:40:34","265797"
"A1GMSPWCRCY2KN","cs_wg_rev_conf_v2_real1","3IO1LGZLK9YKTZ0VJ3CDLS671YB685","32","0","NAPKIN","1","TOMATO","7","1","823",,,,,"0","2018-10-05 15:40:35","265798"
"A2LAKROAU2MVEN","cs_wg_rev_conf_v2_real1","3P1L2B7AD1Q5XCQIDO7B7XE46Y5OLZ","26","0","GRENADE","7","CRICKET","15","1","873",,,,,"0","2018-10-05 15:40:35","265799"
"A2PU3C8EETKC3B","cs_wg_rev_conf_v2_real1","3IOEN3P9S7K2IZGAKI3Y6IJZNS561L","51","0","CHICKEN","1","PELICAN","7","0","443",,,,,"0","2018-10-05 15:40:35","265800"
"A1RSDFFZIVE5BO","cs_wg_rev_conf_v2_real1","3SITXWYCNVAGECIYN25DC79S68VBX3","11","0","DONKEY","1","GROUND","8","0","2065",,,,,"0","2018-10-05 15:40:35","265801"
"A1MRWMGHPEV8S6","cs_wg_rev_conf_v2_real1","3KOPY89HM83AGX9WR5B63F317I5J3Y","36","0","HOCKEY","8","MONKEY","15","1","971",,,,,"0","2018-10-05 15:40:35","265802"
"AW1SWNQFPIUKF","cs_wg_rev_conf_v2_real1","3OB0CAO74HQF5UBUSQ1BHWJZ3RWYHE","9","0","PALACE","7","MARKET","15","1","1007",,,,,"0","2018-10-05 15:40:36","265803"
"A1GMSPWCRCY2KN","cs_wg_rev_conf_v2_real1","3IO1LGZLK9YKTZ0VJ3CDLS671YB685","33","0","TOMATO","7","PUMPKIN","15","1","730",,,,,"0","2018-10-05 15:40:37","265804"
"A2PU3C8EETKC3B","cs_wg_rev_conf_v2_real1","3IOEN3P9S7K2IZGAKI3Y6IJZNS561L","52","0","CANCER","10","PELICAN","7","1","691",,,,,"0","2018-10-05 15:40:38","265805"
"A1L8ZQ4A13OGWX","cs_wg_rev_conf_v2_real1","3Q5ZZ9ZEVOGOAV0HEK28TMS753085R","15","0","CANCER","7","PUMPKIN","8","0","1823",,,,,"0","2018-10-05 15:40:38","265806"
"A1MRWMGHPEV8S6","cs_wg_rev_conf_v2_real1","3KOPY89HM83AGX9WR5B63F317I5J3Y","37","0","PELICAN","7","HOCKEY","8","0","1247",,,,,"0","2018-10-05 15:40:38","265807"
"A2LAKROAU2MVEN","cs_wg_rev_conf_v2_real1","3P1L2B7AD1Q5XCQIDO7B7XE46Y5OLZ","27","0","MOUSE","8","MARKET","1","1","1021",,,,,"0","2018-10-05 15:40:39","265808"
"A1GMSPWCRCY2KN","cs_wg_rev_conf_v2_real1","3IO1LGZLK9YKTZ0VJ3CDLS671YB685","34","0","NAPKIN","1","BLANKET","8","1","1249",,,,,"0","2018-10-05 15:40:39","265809"
"A1RSDFFZIVE5BO","cs_wg_rev_conf_v2_real1","3SITXWYCNVAGECIYN25DC79S68VBX3","12","0","BICYCLE","7","MONKEY","8","1","2138",,,,,"0","2018-10-05 15:40:40","265810"
"A1MRWMGHPEV8S6","cs_wg_rev_conf_v2_real1","3KOPY89HM83AGX9WR5B63F317I5J3Y","38","0","COOKIE","1","MONKEY","15","1","679",,,,,"0","2018-10-05 15:40:40","265811"
"A2PU3C8EETKC3B","cs_wg_rev_conf_v2_real1","3IOEN3P9S7K2IZGAKI3Y6IJZNS561L","53","0","BAKER","15","CHICKEN","1","0","650",,,,,"0","2018-10-05 15:40:40","265812"
"AW1SWNQFPIUKF","cs_wg_rev_conf_v2_real1","3OB0CAO74HQF5UBUSQ1BHWJZ3RWYHE","10","0","BASKET","8","HOCKEY","1","0","3127",,,,,"1","2018-10-05 15:40:41","265813"
"A2LAKROAU2MVEN","cs_wg_rev_conf_v2_real1","3P1L2B7AD1Q5XCQIDO7B7XE46Y5OLZ","28","0","MOUSE","8","ROCKET","8","1","1486",,,,,"0","2018-10-05 15:40:42","265814"
"A1MRWMGHPEV8S6","cs_wg_rev_conf_v2_real1","3KOPY89HM83AGX9WR5B63F317I5J3Y","39","0","JAGUAR","8","COOKIE","1","0","1511",,,,,"0","2018-10-05 15:40:43","265815"
"A2PU3C8EETKC3B","cs_wg_rev_conf_v2_real1","3IOEN3P9S7K2IZGAKI3Y6IJZNS561L","54","0","GRENADE","6","CANCER","10","0","778",,,,,"0","2018-10-05 15:40:44","265816"
"A1GMSPWCRCY2KN","cs_wg_rev_conf_v2_real1","3IO1LGZLK9YKTZ0VJ3CDLS671YB685","35","0","BLANKET","8","TOMATO","7","1","2606",,,,,"0","2018-10-05 15:40:44","265817"
"A1L8ZQ4A13OGWX","cs_wg_rev_conf_v2_real1","3Q5ZZ9ZEVOGOAV0HEK28TMS753085R","16","0","COOKIE","1","BAKER","15","1","3428",,,,,"0","2018-10-05 15:40:45","265818"
"A1MRWMGHPEV8S6","cs_wg_rev_conf_v2_real1","3KOPY89HM83AGX9WR5B63F317I5J3Y","40","0","PELICAN","7","COOKIE","1","0","1270",,,,,"0","2018-10-05 15:40:46","265819"
"A2PU3C8EETKC3B","cs_wg_rev_conf_v2_real1","3IOEN3P9S7K2IZGAKI3Y6IJZNS561L","55","0","ACROBAT","10","AIRBAG","9","0","154",,,,,"0","2018-10-05 15:40:46","265820"
"AMV1E7FFPVAW4","cs_wg_rev_conf_v2_real1","35DR22AR5DLBBHEL89Q7UOBGIGI3X4","2","0","WIZARD","7","DONKEY","8","1","10919",,,,,"0","2018-10-05 15:40:46","265821"
"A1RSDFFZIVE5BO","cs_wg_rev_conf_v2_real1","3SITXWYCNVAGECIYN25DC79S68VBX3","13","0","BICYCLE","7","GROUND","8","1","3920",,,,,"0","2018-10-05 15:40:46","265822"
"AW1SWNQFPIUKF","cs_wg_rev_conf_v2_real1","3OB0CAO74HQF5UBUSQ1BHWJZ3RWYHE","11","0","BASKET","8","SEAGULL","8","1","4063",,,,,"1","2018-10-05 15:40:47","265823"
"A1GMSPWCRCY2KN","cs_wg_rev_conf_v2_real1","3IO1LGZLK9YKTZ0VJ3CDLS671YB685","36","0","BLANKET","8","SKUNK","8","1","1930",,,,,"0","2018-10-05 15:40:48","265824"
"A2LAKROAU2MVEN","cs_wg_rev_conf_v2_real1","3P1L2B7AD1Q5XCQIDO7B7XE46Y5OLZ","29","0","MARKET","1","ROCKET","8","1","1593",,,,,"0","2018-10-05 15:40:48","265825"
"A2PU3C8EETKC3B","cs_wg_rev_conf_v2_real1","3IOEN3P9S7K2IZGAKI3Y6IJZNS561L","56","0","PELICAN","7","BICYCLE","7","0","620",,,,,"0","2018-10-05 15:40:48","265826"
"A1MRWMGHPEV8S6","cs_wg_rev_conf_v2_real1","3KOPY89HM83AGX9WR5B63F317I5J3Y","41","0","JAGUAR","8","HOCKEY","8","0","2069",,,,,"0","2018-10-05 15:40:50","265827"
"A1RSDFFZIVE5BO","cs_wg_rev_conf_v2_real1","3SITXWYCNVAGECIYN25DC79S68VBX3","14","0","GROUND","8","BICYCLE","7","0","1927",,,,,"0","2018-10-05 15:40:50","265828"
"AW1SWNQFPIUKF","cs_wg_rev_conf_v2_real1","3OB0CAO74HQF5UBUSQ1BHWJZ3RWYHE","12","0","SEAGULL","8","MARKET","15","1","1829",,,,,"0","2018-10-05 15:40:51","265829"
"A2PU3C8EETKC3B","cs_wg_rev_conf_v2_real1","3IOEN3P9S7K2IZGAKI3Y6IJZNS561L","57","0","BICYCLE","7","MOUSE","8","1","684",,,,,"0","2018-10-05 15:40:51","265830"
"A2LAKROAU2MVEN","cs_wg_rev_conf_v2_real1","3P1L2B7AD1Q5XCQIDO7B7XE46Y5OLZ","30","0","MOUSE","8","MARKET","1","0","957",,,,,"0","2018-10-05 15:40:51","265831"
"A1GMSPWCRCY2KN","cs_wg_rev_conf_v2_real1","3IO1LGZLK9YKTZ0VJ3CDLS671YB685","37","0","SKUNK","8","BLANKET","8","0","1626",,,,,"0","2018-10-05 15:40:51","265832"
"A1L8ZQ4A13OGWX","cs_wg_rev_conf_v2_real1","3Q5ZZ9ZEVOGOAV0HEK28TMS753085R","17","0","MOUSE","8","PUMPKIN","8","0","4508",,,,,"1","2018-10-05 15:40:51","265833"
"A1MRWMGHPEV8S6","cs_wg_rev_conf_v2_real1","3KOPY89HM83AGX9WR5B63F317I5J3Y","42","0","PELICAN","7","JAGUAR","8","0","1183",,,,,"0","2018-10-05 15:40:52","265834"
"A2PU3C8EETKC3B","cs_wg_rev_conf_v2_real1","3IOEN3P9S7K2IZGAKI3Y6IJZNS561L","58","0","AIRBAG","9","CANCER","10","1","611",,,,,"0","2018-10-05 15:40:53","265835"
"A1GMSPWCRCY2KN","cs_wg_rev_conf_v2_real1","3IO1LGZLK9YKTZ0VJ3CDLS671YB685","38","0","BLANKET","8","PUMPKIN","15","1","769",,,,,"0","2018-10-05 15:40:54","265836"
"A2LAKROAU2MVEN","cs_wg_rev_conf_v2_real1","3P1L2B7AD1Q5XCQIDO7B7XE46Y5OLZ","31","0","MOUSE","8","CRICKET","15","1","1332",,,,,"0","2018-10-05 15:40:54","265837"
"A189V9652OVX56","cs_wg_rev_conf_v2_real1","3RGU30DZTA9B2JH6XNGLZEC779KJMC","0","0","WHISKER","1","MARKET","15","0","8673",,,,,"0","2018-10-05 15:40:54","265838"
"A1MRWMGHPEV8S6","cs_wg_rev_conf_v2_real1","3KOPY89HM83AGX9WR5B63F317I5J3Y","43","0","JAGUAR","8","HOCKEY","8","0","687",,,,,"0","2018-10-05 15:40:55","265839"
"A2PU3C8EETKC3B","cs_wg_rev_conf_v2_real1","3IOEN3P9S7K2IZGAKI3Y6IJZNS561L","59","0","CANCER","10","CHICKEN","1","0","620",,,,,"0","2018-10-05 15:40:55","265840"
"AW1SWNQFPIUKF","cs_wg_rev_conf_v2_real1","3OB0CAO74HQF5UBUSQ1BHWJZ3RWYHE","13","0","BASKET","8","PALACE","7","0","3597",,,,,"1","2018-10-05 15:40:56","265841"
"A1L8ZQ4A13OGWX","cs_wg_rev_conf_v2_real1","3Q5ZZ9ZEVOGOAV0HEK28TMS753085R","18","0","MOUSE","8","COOKIE","1","0","2203",,,,,"0","2018-10-05 15:40:56","265842"
"A1GMSPWCRCY2KN","cs_wg_rev_conf_v2_real1","3IO1LGZLK9YKTZ0VJ3CDLS671YB685","39","0","SKUNK","8","TOMATO","7","0","1691",,,,,"0","2018-10-05 15:40:57","265843"
"A2PU3C8EETKC3B","cs_wg_rev_conf_v2_real1","3IOEN3P9S7K2IZGAKI3Y6IJZNS561L","60","0","PELICAN","7","LIZARD","6","0","627",,,,,"0","2018-10-05 15:40:58","265844"
"A2LAKROAU2MVEN","cs_wg_rev_conf_v2_real1","3P1L2B7AD1Q5XCQIDO7B7XE46Y5OLZ","32","0","ROCKET","8","GRENADE","7","0","1342",,,,,"0","2018-10-05 15:40:58","265845"
"A1MRWMGHPEV8S6","cs_wg_rev_conf_v2_real1","3KOPY89HM83AGX9WR5B63F317I5J3Y","44","0","COOKIE","1","PELICAN","7","1","1322",,,,,"0","2018-10-05 15:40:58","265846"
"A1RSDFFZIVE5BO","cs_wg_rev_conf_v2_real1","3SITXWYCNVAGECIYN25DC79S68VBX3","15","0","MONKEY","8","GROUND","8","0","2592",,,,,"0","2018-10-05 15:41:00","265847"
"A1L8ZQ4A13OGWX","cs_wg_rev_conf_v2_real1","3Q5ZZ9ZEVOGOAV0HEK28TMS753085R","19","0","COOKIE","1","CANCER","7","1","1680",,,,,"0","2018-10-05 15:41:00","265848"
"A2PU3C8EETKC3B","cs_wg_rev_conf_v2_real1","3IOEN3P9S7K2IZGAKI3Y6IJZNS561L","61","0","AIRBAG","9","BICYCLE","7","1","723",,,,,"0","2018-10-05 15:41:00","265849"
"A1GMSPWCRCY2KN","cs_wg_rev_conf_v2_real1","3IO1LGZLK9YKTZ0VJ3CDLS671YB685","40","0","BLANKET","8","SKUNK","8","0","1398",,,,,"0","2018-10-05 15:41:00","265850"
"A2LAKROAU2MVEN","cs_wg_rev_conf_v2_real1","3P1L2B7AD1Q5XCQIDO7B7XE46Y5OLZ","33","0","CRICKET","15","MARKET","1","0","862",,,,,"0","2018-10-05 15:41:00","265851"
"AW1SWNQFPIUKF","cs_wg_rev_conf_v2_real1","3OB0CAO74HQF5UBUSQ1BHWJZ3RWYHE","14","0","BASKET","8","PALACE","7","0","3253",,,,,"1","2018-10-05 15:41:01","265852"
"A1MRWMGHPEV8S6","cs_wg_rev_conf_v2_real1","3KOPY89HM83AGX9WR5B63F317I5J3Y","45","0","HOCKEY","8","PELICAN","7","1","1605",,,,,"0","2018-10-05 15:41:01","265853"
"A1GMSPWCRCY2KN","cs_wg_rev_conf_v2_real1","3IO1LGZLK9YKTZ0VJ3CDLS671YB685","41","0","BLANKET","8","PUMPKIN","15","1","489",,,,,"0","2018-10-05 15:41:02","265854"
"A2PU3C8EETKC3B","cs_wg_rev_conf_v2_real1","3IOEN3P9S7K2IZGAKI3Y6IJZNS561L","62","0","BAKER","15","GRENADE","6","1","523",,,,,"0","2018-10-05 15:41:02","265855"
"A189V9652OVX56","cs_wg_rev_conf_v2_real1","3RGU30DZTA9B2JH6XNGLZEC779KJMC","1","0","SEAGULL","8","PELICAN","7","1","3836",,,,,"0","2018-10-05 15:41:03","265856"
"A2LAKROAU2MVEN","cs_wg_rev_conf_v2_real1","3P1L2B7AD1Q5XCQIDO7B7XE46Y5OLZ","34","0","MARKET","1","MOUSE","8","1","926",,,,,"0","2018-10-05 15:41:03","265857"
"A1MRWMGHPEV8S6","cs_wg_rev_conf_v2_real1","3KOPY89HM83AGX9WR5B63F317I5J3Y","46","0","PELICAN","7","JAGUAR","8","1","979",,,,,"0","2018-10-05 15:41:04","265858"
"AMV1E7FFPVAW4","cs_wg_rev_conf_v2_real1","35DR22AR5DLBBHEL89Q7UOBGIGI3X4","3","0","DONKEY","8","COOKIE","1","1","6225",,,,,"0","2018-10-05 15:41:04","265859"
"AW1SWNQFPIUKF","cs_wg_rev_conf_v2_real1","3OB0CAO74HQF5UBUSQ1BHWJZ3RWYHE","15","0","MARKET","15","BASKET","8","0","1745",,,,,"0","2018-10-05 15:41:04","265860"
"A2PU3C8EETKC3B","cs_wg_rev_conf_v2_real1","3IOEN3P9S7K2IZGAKI3Y6IJZNS561L","63","0","CHICKEN","1","BAKER","15","0","893",,,,,"0","2018-10-05 15:41:05","265861"
"A1GMSPWCRCY2KN","cs_wg_rev_conf_v2_real1","3IO1LGZLK9YKTZ0VJ3CDLS671YB685","42","0","SKUNK","8","TOMATO","7","0","1238",,,,,"0","2018-10-05 15:41:05","265862"
"A1L8ZQ4A13OGWX","cs_wg_rev_conf_v2_real1","3Q5ZZ9ZEVOGOAV0HEK28TMS753085R","20","0","PUMPKIN","8","CANCER","7","0","3204",,,,,"0","2018-10-05 15:41:06","265863"
"A2LAKROAU2MVEN","cs_wg_rev_conf_v2_real1","3P1L2B7AD1Q5XCQIDO7B7XE46Y5OLZ","35","0","MARKET","1","CRICKET","15","0","1197",,,,,"0","2018-10-05 15:41:07","265864"
"A1MRWMGHPEV8S6","cs_wg_rev_conf_v2_real1","3KOPY89HM83AGX9WR5B63F317I5J3Y","47","0","MONKEY","15","COOKIE","1","0","1021",,,,,"0","2018-10-05 15:41:07","265865"
"A2PU3C8EETKC3B","cs_wg_rev_conf_v2_real1","3IOEN3P9S7K2IZGAKI3Y6IJZNS561L","64","0","CHICKEN","1","ACROBAT","10","1","364",,,,,"0","2018-10-05 15:41:07","265866"
"A1GMSPWCRCY2KN","cs_wg_rev_conf_v2_real1","3IO1LGZLK9YKTZ0VJ3CDLS671YB685","43","0","SKUNK","8","PUMPKIN","15","1","659",,,,,"0","2018-10-05 15:41:07","265867"
"A1RSDFFZIVE5BO","cs_wg_rev_conf_v2_real1","3SITXWYCNVAGECIYN25DC79S68VBX3","16","0","MONKEY","8","WHISKER","15","1","5050",,,,,"0","2018-10-05 15:41:08","265868"
"A2PU3C8EETKC3B","cs_wg_rev_conf_v2_real1","3IOEN3P9S7K2IZGAKI3Y6IJZNS561L","65","0","ACROBAT","10","CHICKEN","1","0","364",,,,,"0","2018-10-05 15:41:09","265869"
"A1MRWMGHPEV8S6","cs_wg_rev_conf_v2_real1","3KOPY89HM83AGX9WR5B63F317I5J3Y","48","0","HOCKEY","8","MONKEY","15","1","1119",,,,,"0","2018-10-05 15:41:09","265870"
"A1GMSPWCRCY2KN","cs_wg_rev_conf_v2_real1","3IO1LGZLK9YKTZ0VJ3CDLS671YB685","44","0","PUMPKIN","15","BLANKET","8","0","727",,,,,"0","2018-10-05 15:41:10","265871"
"A189V9652OVX56","cs_wg_rev_conf_v2_real1","3RGU30DZTA9B2JH6XNGLZEC779KJMC","2","0","SEAGULL","8","WHISKER","1","0","3442",,,,,"0","2018-10-05 15:41:10","265872"
"AW1SWNQFPIUKF","cs_wg_rev_conf_v2_real1","3OB0CAO74HQF5UBUSQ1BHWJZ3RWYHE","16","0","PALACE","7","SEAGULL","8","1","4013",,,,,"1","2018-10-05 15:41:10","265873"
"A2LAKROAU2MVEN","cs_wg_rev_conf_v2_real1","3P1L2B7AD1Q5XCQIDO7B7XE46Y5OLZ","36","0","MOUSE","8","ROCKET","8","0","1806",,,,,"0","2018-10-05 15:41:11","265874"
"A2PU3C8EETKC3B","cs_wg_rev_conf_v2_real1","3IOEN3P9S7K2IZGAKI3Y6IJZNS561L","66","0","MOUSE","8","CANCER","10","1","147",,,,,"0","2018-10-05 15:41:11","265875"
"A1L8ZQ4A13OGWX","cs_wg_rev_conf_v2_real1","3Q5ZZ9ZEVOGOAV0HEK28TMS753085R","21","0","COOKIE","1","CANCER","7","1","2413",,,,,"0","2018-10-05 15:41:11","265876"
"A1MRWMGHPEV8S6","cs_wg_rev_conf_v2_real1","3KOPY89HM83AGX9WR5B63F317I5J3Y","49","0","MONKEY","15","HOCKEY","8","0","752",,,,,"0","2018-10-05 15:41:11","265877"
"A1RSDFFZIVE5BO","cs_wg_rev_conf_v2_real1","3SITXWYCNVAGECIYN25DC79S68VBX3","17","0","GROUND","8","DONKEY","1","1","2030",,,,,"0","2018-10-05 15:41:12","265878"
"A1GMSPWCRCY2KN","cs_wg_rev_conf_v2_real1","3IO1LGZLK9YKTZ0VJ3CDLS671YB685","45","0","BLANKET","8","NAPKIN","1","0","1269",,,,,"0","2018-10-05 15:41:12","265879"
"AMV1E7FFPVAW4","cs_wg_rev_conf_v2_real1","35DR22AR5DLBBHEL89Q7UOBGIGI3X4","4","0","COOKIE","1","WIZARD","7","1","3936",,,,,"0","2018-10-05 15:41:13","265880"
"A2PU3C8EETKC3B","cs_wg_rev_conf_v2_real1","3IOEN3P9S7K2IZGAKI3Y6IJZNS561L","67","0","CANCER","10","BAKER","15","0","778",,,,,"0","2018-10-05 15:41:13","265881"
"A1NIPJZWXW7ZKM","cs_wg_rev_conf_v2_real1","3U5NZHP4LR3LWGJT135S45QNZMUHP4","0","0","LIZARD","7","WHISKER","8","1","14696",,,,,"1","2018-10-05 15:41:13","265882"
"A1MRWMGHPEV8S6","cs_wg_rev_conf_v2_real1","3KOPY89HM83AGX9WR5B63F317I5J3Y","50","0","MONKEY","15","COOKIE","1","0","484",,,,,"0","2018-10-05 15:41:13","265883"
"A2LAKROAU2MVEN","cs_wg_rev_conf_v2_real1","3P1L2B7AD1Q5XCQIDO7B7XE46Y5OLZ","37","0","MARKET","1","GRENADE","7","1","1174",,,,,"0","2018-10-05 15:41:14","265884"
"AW1SWNQFPIUKF","cs_wg_rev_conf_v2_real1","3OB0CAO74HQF5UBUSQ1BHWJZ3RWYHE","17","0","MARKET","15","SEAGULL","8","0","1469",,,,,"0","2018-10-05 15:41:14","265885"
"A1GMSPWCRCY2KN","cs_wg_rev_conf_v2_real1","3IO1LGZLK9YKTZ0VJ3CDLS671YB685","46","0","NAPKIN","1","PUMPKIN","15","1","755",,,,,"0","2018-10-05 15:41:15","265886"
"A189V9652OVX56","cs_wg_rev_conf_v2_real1","3RGU30DZTA9B2JH6XNGLZEC779KJMC","3","0","HOCKEY","8","PELICAN","7","1","1830",,,,,"0","2018-10-05 15:41:15","265887"
"A1MRWMGHPEV8S6","cs_wg_rev_conf_v2_real1","3KOPY89HM83AGX9WR5B63F317I5J3Y","51","0","MONKEY","15","PELICAN","7","0","434",,,,,"0","2018-10-05 15:41:15","265888"
"A2PU3C8EETKC3B","cs_wg_rev_conf_v2_real1","3IOEN3P9S7K2IZGAKI3Y6IJZNS561L","68","0","CANCER","10","BICYCLE","7","1","691",,,,,"0","2018-10-05 15:41:16","265889"
"A1RSDFFZIVE5BO","cs_wg_rev_conf_v2_real1","3SITXWYCNVAGECIYN25DC79S68VBX3","18","0","BICYCLE","7","WHISKER","15","1","1453",,,,,"0","2018-10-05 15:41:16","265890"
"A1GMSPWCRCY2KN","cs_wg_rev_conf_v2_real1","3IO1LGZLK9YKTZ0VJ3CDLS671YB685","47","0","BLANKET","8","NAPKIN","1","0","1185",,,,,"0","2018-10-05 15:41:17","265891"
"A2LAKROAU2MVEN","cs_wg_rev_conf_v2_real1","3P1L2B7AD1Q5XCQIDO7B7XE46Y5OLZ","38","0","CRICKET","15","GRENADE","7","0","1756",,,,,"0","2018-10-05 15:41:18","265892"
"A2PU3C8EETKC3B","cs_wg_rev_conf_v2_real1","3IOEN3P9S7K2IZGAKI3Y6IJZNS561L","69","0","PELICAN","7","WIZARD","9","0","194",,,,,"0","2018-10-05 15:41:18","265893"
"A1MRWMGHPEV8S6","cs_wg_rev_conf_v2_real1","3KOPY89HM83AGX9WR5B63F317I5J3Y","52","0","JAGUAR","8","COOKIE","1","0","939",,,,,"0","2018-10-05 15:41:18","265894"
"AW1SWNQFPIUKF","cs_wg_rev_conf_v2_real1","3OB0CAO74HQF5UBUSQ1BHWJZ3RWYHE","18","0","PALACE","7","HOCKEY","1","0","2792",,,,,"1","2018-10-05 15:41:18","265895"
"A1L8ZQ4A13OGWX","cs_wg_rev_conf_v2_real1","3Q5ZZ9ZEVOGOAV0HEK28TMS753085R","22","0","CANCER","7","MOUSE","8","1","5380",,,,,"0","2018-10-05 15:41:19","265896"
"A189V9652OVX56","cs_wg_rev_conf_v2_real1","3RGU30DZTA9B2JH6XNGLZEC779KJMC","4","0","WHISKER","1","PELICAN","7","1","2264",,,,,"0","2018-10-05 15:41:20","265897"
"A2PU3C8EETKC3B","cs_wg_rev_conf_v2_real1","3IOEN3P9S7K2IZGAKI3Y6IJZNS561L","70","0","AIRBAG","9","LIZARD","6","1","908",,,,,"0","2018-10-05 15:41:20","265898"
"A1MRWMGHPEV8S6","cs_wg_rev_conf_v2_real1","3KOPY89HM83AGX9WR5B63F317I5J3Y","53","0","COOKIE","1","HOCKEY","8","1","986",,,,,"0","2018-10-05 15:41:20","265899"
"A1RSDFFZIVE5BO","cs_wg_rev_conf_v2_real1","3SITXWYCNVAGECIYN25DC79S68VBX3","19","0","GROUND","8","MONKEY","8","1","1249",,,,,"0","2018-10-05 15:41:20","265900"
"A2LAKROAU2MVEN","cs_wg_rev_conf_v2_real1","3P1L2B7AD1Q5XCQIDO7B7XE46Y5OLZ","39","0","GRENADE","7","ROCKET","8","1","1093",,,,,"0","2018-10-05 15:41:21","265901"
"AW1SWNQFPIUKF","cs_wg_rev_conf_v2_real1","3OB0CAO74HQF5UBUSQ1BHWJZ3RWYHE","19","0","BASKET","8","MARKET","15","1","1483",,,,,"0","2018-10-05 15:41:21","265902"
"A2PU3C8EETKC3B","cs_wg_rev_conf_v2_real1","3IOEN3P9S7K2IZGAKI3Y6IJZNS561L","71","0","CHICKEN","1","MOUSE","8","0","578",,,,,"0","2018-10-05 15:41:22","265903"
"A1L8ZQ4A13OGWX","cs_wg_rev_conf_v2_real1","3Q5ZZ9ZEVOGOAV0HEK28TMS753085R","23","0","MOUSE","8","BAKER","15","1","1658",,,,,"0","2018-10-05 15:41:23","265904"
"A1GMSPWCRCY2KN","cs_wg_rev_conf_v2_real1","3IO1LGZLK9YKTZ0VJ3CDLS671YB685","48","0","BLANKET","8","TOMATO","7","0","3396",,,,,"0","2018-10-05 15:41:23","265905"
"A1MRWMGHPEV8S6","cs_wg_rev_conf_v2_real1","3KOPY89HM83AGX9WR5B63F317I5J3Y","54","0","COOKIE","1","JAGUAR","8","1","1087",,,,,"0","2018-10-05 15:41:23","265906"
"AMV1E7FFPVAW4","cs_wg_rev_conf_v2_real1","35DR22AR5DLBBHEL89Q7UOBGIGI3X4","5","0","DONKEY","8","BASKET","15","1","2860",,,,,"0","2018-10-05 15:41:23","265907"
"A2LAKROAU2MVEN","cs_wg_rev_conf_v2_real1","3P1L2B7AD1Q5XCQIDO7B7XE46Y5OLZ","40","0","CRICKET","15","MOUSE","8","0","566",,,,,"0","2018-10-05 15:41:23","265908"
"A1NIPJZWXW7ZKM","cs_wg_rev_conf_v2_real1","3U5NZHP4LR3LWGJT135S45QNZMUHP4","1","0","PUMPKIN","1","WHISKER","8","1","7370",,,,,"1","2018-10-05 15:41:24","265909"
"A189V9652OVX56","cs_wg_rev_conf_v2_real1","3RGU30DZTA9B2JH6XNGLZEC779KJMC","5","0","SEAGULL","8","PELICAN","7","1","1990",,,,,"0","2018-10-05 15:41:24","265910"
"A2PU3C8EETKC3B","cs_wg_rev_conf_v2_real1","3IOEN3P9S7K2IZGAKI3Y6IJZNS561L","72","0","MONKEY","8","BICYCLE","7","1","754",,,,,"0","2018-10-05 15:41:25","265911"
"A1MRWMGHPEV8S6","cs_wg_rev_conf_v2_real1","3KOPY89HM83AGX9WR5B63F317I5J3Y","55","0","MONKEY","15","JAGUAR","8","0","601",,,,,"0","2018-10-05 15:41:25","265912"
"A1RSDFFZIVE5BO","cs_wg_rev_conf_v2_real1","3SITXWYCNVAGECIYN25DC79S68VBX3","20","0","DONKEY","1","MONKEY","8","1","3555",,,,,"0","2018-10-05 15:41:26","265914"
"A2LAKROAU2MVEN","cs_wg_rev_conf_v2_real1","3P1L2B7AD1Q5XCQIDO7B7XE46Y5OLZ","41","0","MOUSE","8","GRENADE","7","1","1191",,,,,"0","2018-10-05 15:41:26","265913"
"AW1SWNQFPIUKF","cs_wg_rev_conf_v2_real1","3OB0CAO74HQF5UBUSQ1BHWJZ3RWYHE","20","0","PALACE","7","SEAGULL","8","1","2802",,,,,"0","2018-10-05 15:41:26","265915"
"A1GMSPWCRCY2KN","cs_wg_rev_conf_v2_real1","3IO1LGZLK9YKTZ0VJ3CDLS671YB685","49","0","TOMATO","7","SKUNK","8","1","2232",,,,,"0","2018-10-05 15:41:27","265916"
"A1L8ZQ4A13OGWX","cs_wg_rev_conf_v2_real1","3Q5ZZ9ZEVOGOAV0HEK28TMS753085R","24","0","MOUSE","8","PUMPKIN","8","1","1930",,,,,"0","2018-10-05 15:41:27","265917"
"A2PU3C8EETKC3B","cs_wg_rev_conf_v2_real1","3IOEN3P9S7K2IZGAKI3Y6IJZNS561L","73","0","WIZARD","9","MONKEY","8","0","691",,,,,"0","2018-10-05 15:41:27","265918"
"A1MRWMGHPEV8S6","cs_wg_rev_conf_v2_real1","3KOPY89HM83AGX9WR5B63F317I5J3Y","56","0","COOKIE","1","PELICAN","7","1","1173",,,,,"0","2018-10-05 15:41:28","265919"
"A189V9652OVX56","cs_wg_rev_conf_v2_real1","3RGU30DZTA9B2JH6XNGLZEC779KJMC","6","0","SEAGULL","8","MARKET","15","1","1835",,,,,"0","2018-10-05 15:41:28","265920"
"A1GMSPWCRCY2KN","cs_wg_rev_conf_v2_real1","3IO1LGZLK9YKTZ0VJ3CDLS671YB685","50","0","PUMPKIN","15","BLANKET","8","0","666",,,,,"0","2018-10-05 15:41:29","265921"
"A2LAKROAU2MVEN","cs_wg_rev_conf_v2_real1","3P1L2B7AD1Q5XCQIDO7B7XE46Y5OLZ","42","0","GRENADE","7","CRICKET","15","1","961",,,,,"0","2018-10-05 15:41:29","265922"
"AW1SWNQFPIUKF","cs_wg_rev_conf_v2_real1","3OB0CAO74HQF5UBUSQ1BHWJZ3RWYHE","21","0","MARKET","15","HOCKEY","1","0","1044",,,,,"0","2018-10-05 15:41:29","265923"
"A1MRWMGHPEV8S6","cs_wg_rev_conf_v2_real1","3KOPY89HM83AGX9WR5B63F317I5J3Y","57","0","HOCKEY","8","MONKEY","15","1","552",,,,,"0","2018-10-05 15:41:30","265924"
"A2PU3C8EETKC3B","cs_wg_rev_conf_v2_real1","3IOEN3P9S7K2IZGAKI3Y6IJZNS561L","74","0","AIRBAG","9","MOUSE","8","1","876",,,,,"0","2018-10-05 15:41:30","265925"
"A1RSDFFZIVE5BO","cs_wg_rev_conf_v2_real1","3SITXWYCNVAGECIYN25DC79S68VBX3","21","0","MONKEY","8","BICYCLE","7","1","1124",,,,,"0","2018-10-05 15:41:30","265926"
"A1GMSPWCRCY2KN","cs_wg_rev_conf_v2_real1","3IO1LGZLK9YKTZ0VJ3CDLS671YB685","51","0","PUMPKIN","15","SKUNK","8","0","471",,,,,"0","2018-10-05 15:41:31","265927"
"A1L8ZQ4A13OGWX","cs_wg_rev_conf_v2_real1","3Q5ZZ9ZEVOGOAV0HEK28TMS753085R","25","0","MOUSE","8","BAKER","15","1","1609",,,,,"0","2018-10-05 15:41:31","265928"
"AMV1E7FFPVAW4","cs_wg_rev_conf_v2_real1","35DR22AR5DLBBHEL89Q7UOBGIGI3X4","6","0","MOUSE","8","DONKEY","8","0","4570",,,,,"0","2018-10-05 15:41:32","265929"
"A189V9652OVX56","cs_wg_rev_conf_v2_real1","3RGU30DZTA9B2JH6XNGLZEC779KJMC","7","0","PELICAN","7","HOCKEY","8","0","1873",,,,,"0","2018-10-05 15:41:32","265930"
"A1MRWMGHPEV8S6","cs_wg_rev_conf_v2_real1","3KOPY89HM83AGX9WR5B63F317I5J3Y","58","0","MONKEY","15","PELICAN","7","0","869",,,,,"0","2018-10-05 15:41:32","265931"
"A2LAKROAU2MVEN","cs_wg_rev_conf_v2_real1","3P1L2B7AD1Q5XCQIDO7B7XE46Y5OLZ","43","0","MARKET","1","CRICKET","15","1","807",,,,,"0","2018-10-05 15:41:32","265932"
"A2PU3C8EETKC3B","cs_wg_rev_conf_v2_real1","3IOEN3P9S7K2IZGAKI3Y6IJZNS561L","75","0","AIRBAG","9","GRENADE","6","0","658",,,,,"0","2018-10-05 15:41:32","265933"
"AW1SWNQFPIUKF","cs_wg_rev_conf_v2_real1","3OB0CAO74HQF5UBUSQ1BHWJZ3RWYHE","22","0","PALACE","7","MARKET","15","1","1352",,,,,"0","2018-10-05 15:41:32","265934"
"A1GMSPWCRCY2KN","cs_wg_rev_conf_v2_real1","3IO1LGZLK9YKTZ0VJ3CDLS671YB685","52","0","BLANKET","8","PUMPKIN","15","1","550",,,,,"0","2018-10-05 15:41:33","265935"
"A1L8ZQ4A13OGWX","cs_wg_rev_conf_v2_real1","3Q5ZZ9ZEVOGOAV0HEK28TMS753085R","26","0","PUMPKIN","8","COOKIE","1","0","1735",,,,,"0","2018-10-05 15:41:34","265936"
"A1MRWMGHPEV8S6","cs_wg_rev_conf_v2_real1","3KOPY89HM83AGX9WR5B63F317I5J3Y","59","0","PELICAN","7","JAGUAR","8","0","978",,,,,"0","2018-10-05 15:41:34","265937"
"A2PU3C8EETKC3B","cs_wg_rev_conf_v2_real1","3IOEN3P9S7K2IZGAKI3Y6IJZNS561L","76","0","GRENADE","6","PELICAN","7","1","818",,,,,"0","2018-10-05 15:41:35","265938"
"A2LAKROAU2MVEN","cs_wg_rev_conf_v2_real1","3P1L2B7AD1Q5XCQIDO7B7XE46Y5OLZ","44","0","CRICKET","15","ROCKET","8","0","780",,,,,"0","2018-10-05 15:41:35","265939"
"A1RSDFFZIVE5BO","cs_wg_rev_conf_v2_real1","3SITXWYCNVAGECIYN25DC79S68VBX3","22","0","WHISKER","15","GROUND","8","0","1818",,,,,"0","2018-10-05 15:41:35","265940"
"A1GMSPWCRCY2KN","cs_wg_rev_conf_v2_real1","3IO1LGZLK9YKTZ0VJ3CDLS671YB685","53","0","PUMPKIN","15","TOMATO","7","0","680",,,,,"0","2018-10-05 15:41:35","265941"
"AW1SWNQFPIUKF","cs_wg_rev_conf_v2_real1","3OB0CAO74HQF5UBUSQ1BHWJZ3RWYHE","23","0","SEAGULL","8","PALACE","7","0","1312",,,,,"0","2018-10-05 15:41:35","265942"
"A189V9652OVX56","cs_wg_rev_conf_v2_real1","3RGU30DZTA9B2JH6XNGLZEC779KJMC","8","0","PELICAN","7","SEAGULL","8","1","2290",,,,,"0","2018-10-05 15:41:36","265943"
"A2PU3C8EETKC3B","cs_wg_rev_conf_v2_real1","3IOEN3P9S7K2IZGAKI3Y6IJZNS561L","77","0","BICYCLE","7","CANCER","10","0","1213",,,,,"0","2018-10-05 15:41:37","265944"
"A2LAKROAU2MVEN","cs_wg_rev_conf_v2_real1","3P1L2B7AD1Q5XCQIDO7B7XE46Y5OLZ","45","0","MARKET","1","GRENADE","7","1","927",,,,,"0","2018-10-05 15:41:38","265945"
"A1GMSPWCRCY2KN","cs_wg_rev_conf_v2_real1","3IO1LGZLK9YKTZ0VJ3CDLS671YB685","54","0","SKUNK","8","TOMATO","7","0","1238",,,,,"0","2018-10-05 15:41:38","265946"
"AMV1E7FFPVAW4","cs_wg_rev_conf_v2_real1","35DR22AR5DLBBHEL89Q7UOBGIGI3X4","7","0","BASKET","15","MOUSE","8","0","3662",,,,,"0","2018-10-05 15:41:38","265947"
"AW1SWNQFPIUKF","cs_wg_rev_conf_v2_real1","3OB0CAO74HQF5UBUSQ1BHWJZ3RWYHE","24","0","MARKET","15","PALACE","7","0","1280",,,,,"0","2018-10-05 15:41:38","265948"
"A1RSDFFZIVE5BO","cs_wg_rev_conf_v2_real1","3SITXWYCNVAGECIYN25DC79S68VBX3","23","0","WHISKER","15","DONKEY","1","0","1579",,,,,"0","2018-10-05 15:41:39","265949"
"A1L8ZQ4A13OGWX","cs_wg_rev_conf_v2_real1","3Q5ZZ9ZEVOGOAV0HEK28TMS753085R","27","0","MOUSE","8","BAKER","15","1","2038",,,,,"0","2018-10-05 15:41:39","265950"
"A1NIPJZWXW7ZKM","cs_wg_rev_conf_v2_real1","3U5NZHP4LR3LWGJT135S45QNZMUHP4","2","0","BUCKET","15","JAGUAR","8","0","13337",,,,,"1","2018-10-05 15:41:40","265951"
"A2PU3C8EETKC3B","cs_wg_rev_conf_v2_real1","3IOEN3P9S7K2IZGAKI3Y6IJZNS561L","78","0","ACROBAT","10","BAKER","15","1","859",,,,,"0","2018-10-05 15:41:41","265952"
"A189V9652OVX56","cs_wg_rev_conf_v2_real1","3RGU30DZTA9B2JH6XNGLZEC779KJMC","9","0","PELICAN","7","WHISKER","1","0","2652",,,,,"0","2018-10-05 15:41:41","265953"
"A2LAKROAU2MVEN","cs_wg_rev_conf_v2_real1","3P1L2B7AD1Q5XCQIDO7B7XE46Y5OLZ","46","0","CRICKET","15","MOUSE","8","0","1145",,,,,"0","2018-10-05 15:41:41","265954"
"A1GMSPWCRCY2KN","cs_wg_rev_conf_v2_real1","3IO1LGZLK9YKTZ0VJ3CDLS671YB685","55","0","TOMATO","7","SKUNK","8","1","1555",,,,,"0","2018-10-05 15:41:41","265955"
"AW1SWNQFPIUKF","cs_wg_rev_conf_v2_real1","3OB0CAO74HQF5UBUSQ1BHWJZ3RWYHE","25","0","HOCKEY","1","PALACE","7","1","1505",,,,,"0","2018-10-05 15:41:42","265956"
"A1L8ZQ4A13OGWX","cs_wg_rev_conf_v2_real1","3Q5ZZ9ZEVOGOAV0HEK28TMS753085R","28","0","CANCER","7","BAKER","15","1","1871",,,,,"0","2018-10-05 15:41:43","265957"
"A2PU3C8EETKC3B","cs_wg_rev_conf_v2_real1","3IOEN3P9S7K2IZGAKI3Y6IJZNS561L","79","0","MOUSE","8","MONKEY","8","0","432",,,,,"0","2018-10-05 15:41:43","265958"
"A1RSDFFZIVE5BO","cs_wg_rev_conf_v2_real1","3SITXWYCNVAGECIYN25DC79S68VBX3","24","0","GROUND","8","BICYCLE","7","0","2207",,,,,"0","2018-10-05 15:41:43","265959"
"A1GMSPWCRCY2KN","cs_wg_rev_conf_v2_real1","3IO1LGZLK9YKTZ0VJ3CDLS671YB685","56","0","TOMATO","7","PUMPKIN","15","1","628",,,,,"0","2018-10-05 15:41:43","265960"
"AMV1E7FFPVAW4","cs_wg_rev_conf_v2_real1","35DR22AR5DLBBHEL89Q7UOBGIGI3X4","8","0","BASKET","15","WIZARD","7","0","1505",,,,,"0","2018-10-05 15:41:43","265961"
"A2LAKROAU2MVEN","cs_wg_rev_conf_v2_real1","3P1L2B7AD1Q5XCQIDO7B7XE46Y5OLZ","47","0","CRICKET","15","MOUSE","8","0","971",,,,,"0","2018-10-05 15:41:44","265962"
"A2PU3C8EETKC3B","cs_wg_rev_conf_v2_real1","3IOEN3P9S7K2IZGAKI3Y6IJZNS561L","80","0","WIZARD","9","CHICKEN","1","1","166",,,,,"0","2018-10-05 15:41:45","265963"
"AW1SWNQFPIUKF","cs_wg_rev_conf_v2_real1","3OB0CAO74HQF5UBUSQ1BHWJZ3RWYHE","26","0","SEAGULL","8","MARKET","15","1","1313",,,,,"0","2018-10-05 15:41:45","265964"
"A189V9652OVX56","cs_wg_rev_conf_v2_real1","3RGU30DZTA9B2JH6XNGLZEC779KJMC","10","0","WHISKER","1","HOCKEY","8","1","2033",,,,,"0","2018-10-05 15:41:46","265965"
"A1GMSPWCRCY2KN","cs_wg_rev_conf_v2_real1","3IO1LGZLK9YKTZ0VJ3CDLS671YB685","57","0","SKUNK","8","NAPKIN","1","0","855",,,,,"0","2018-10-05 15:41:46","265966"
"A1L8ZQ4A13OGWX","cs_wg_rev_conf_v2_real1","3Q5ZZ9ZEVOGOAV0HEK28TMS753085R","29","0","PUMPKIN","8","BAKER","15","1","1408",,,,,"0","2018-10-05 15:41:47","265967"
"A2PU3C8EETKC3B","cs_wg_rev_conf_v2_real1","3IOEN3P9S7K2IZGAKI3Y6IJZNS561L","81","0","GRENADE","6","MOUSE","8","0","651",,,,,"0","2018-10-05 15:41:47","265968"
"A2TZA6QIDOHF0R","cs_wg_rev_conf_v2_real1","3ZAK8W07I4FNDLLTKHX18JE5LMHU08","0","0","AIRBAG","9","TOMATO","6","1","5818",,,,,"0","2018-10-05 15:41:48","265969"
"A2LAKROAU2MVEN","cs_wg_rev_conf_v2_real1","3P1L2B7AD1Q5XCQIDO7B7XE46Y5OLZ","48","0","GRENADE","7","MARKET","1","0","1818",,,,,"0","2018-10-05 15:41:48","265970"
"AW1SWNQFPIUKF","cs_wg_rev_conf_v2_real1","3OB0CAO74HQF5UBUSQ1BHWJZ3RWYHE","27","0","PALACE","7","HOCKEY","1","0","1382",,,,,"0","2018-10-05 15:41:48","265971"
"A1GMSPWCRCY2KN","cs_wg_rev_conf_v2_real1","3IO1LGZLK9YKTZ0VJ3CDLS671YB685","58","0","NAPKIN","1","SKUNK","8","1","1187",,,,,"0","2018-10-05 15:41:49","265972"
"A1RSDFFZIVE5BO","cs_wg_rev_conf_v2_real1","3SITXWYCNVAGECIYN25DC79S68VBX3","25","0","BICYCLE","7","DONKEY","1","1","3419",,,,,"0","2018-10-05 15:41:49","265973"
"A2PU3C8EETKC3B","cs_wg_rev_conf_v2_real1","3IOEN3P9S7K2IZGAKI3Y6IJZNS561L","82","0","CANCER","10","WIZARD","9","1","938",,,,,"0","2018-10-05 15:41:50","265974"
"A189V9652OVX56","cs_wg_rev_conf_v2_real1","3RGU30DZTA9B2JH6XNGLZEC779KJMC","11","0","MARKET","15","SEAGULL","8","0","2219",,,,,"0","2018-10-05 15:41:50","265975"
"A1L8ZQ4A13OGWX","cs_wg_rev_conf_v2_real1","3Q5ZZ9ZEVOGOAV0HEK28TMS753085R","30","0","PUMPKIN","8","COOKIE","1","0","1398",,,,,"0","2018-10-05 15:41:50","265976"
"AW1SWNQFPIUKF","cs_wg_rev_conf_v2_real1","3OB0CAO74HQF5UBUSQ1BHWJZ3RWYHE","28","0","HOCKEY","1","SEAGULL","8","1","1426",,,,,"0","2018-10-05 15:41:51","265977"
"AMV1E7FFPVAW4","cs_wg_rev_conf_v2_real1","35DR22AR5DLBBHEL89Q7UOBGIGI3X4","9","0","WIZARD","7","COOKIE","1","0","4945",,,,,"0","2018-10-05 15:41:51","265978"
"A2LAKROAU2MVEN","cs_wg_rev_conf_v2_real1","3P1L2B7AD1Q5XCQIDO7B7XE46Y5OLZ","49","0","GRENADE","7","MOUSE","8","0","1314",,,,,"0","2018-10-05 15:41:51","265979"
"A1NIPJZWXW7ZKM","cs_wg_rev_conf_v2_real1","3U5NZHP4LR3LWGJT135S45QNZMUHP4","3","0","JAGUAR","8","LIZARD","7","0","9691",,,,,"1","2018-10-05 15:41:52","265980"
"A2PU3C8EETKC3B","cs_wg_rev_conf_v2_real1","3IOEN3P9S7K2IZGAKI3Y6IJZNS561L","83","0","MONKEY","8","ACROBAT","10","0","401",,,,,"0","2018-10-05 15:41:52","265981"
"A39IM5JAY95JH3","cs_wg_rev_conf_v2_real1","358010RM5EUVNQG4SJWDDJ3Z90BXVV","0","0","ROCKET","1","TOMATO","6","1","14359",,,,,"0","2018-10-05 15:41:52","265982"
"A1RSDFFZIVE5BO","cs_wg_rev_conf_v2_real1","3SITXWYCNVAGECIYN25DC79S68VBX3","26","0","GROUND","8","BICYCLE","7","0","1639",,,,,"0","2018-10-05 15:41:53","265983"
"A189V9652OVX56","cs_wg_rev_conf_v2_real1","3RGU30DZTA9B2JH6XNGLZEC779KJMC","12","0","PELICAN","7","MARKET","15","1","1579",,,,,"0","2018-10-05 15:41:53","265984"
"A2LAKROAU2MVEN","cs_wg_rev_conf_v2_real1","3P1L2B7AD1Q5XCQIDO7B7XE46Y5OLZ","50","0","GRENADE","7","MARKET","1","0","953",,,,,"0","2018-10-05 15:41:54","265985"
"A1GMSPWCRCY2KN","cs_wg_rev_conf_v2_real1","3IO1LGZLK9YKTZ0VJ3CDLS671YB685","59","0","TOMATO","7","BLANKET","8","1","3811",,,,,"0","2018-10-05 15:41:54","265986"
"A2PU3C8EETKC3B","cs_wg_rev_conf_v2_real1","3IOEN3P9S7K2IZGAKI3Y6IJZNS561L","84","0","GRENADE","6","MONKEY","8","1","123",,,,,"0","2018-10-05 15:41:54","265987"
"AW1SWNQFPIUKF","cs_wg_rev_conf_v2_real1","3OB0CAO74HQF5UBUSQ1BHWJZ3RWYHE","29","0","BASKET","8","HOCKEY","1","0","1357",,,,,"0","2018-10-05 15:41:54","265988"
"A2TZA6QIDOHF0R","cs_wg_rev_conf_v2_real1","3ZAK8W07I4FNDLLTKHX18JE5LMHU08","1","0","ROCKET","8","SEAGULL","8","1","4445",,,,,"0","2018-10-05 15:41:55","265989"
"A1L8ZQ4A13OGWX","cs_wg_rev_conf_v2_real1","3Q5ZZ9ZEVOGOAV0HEK28TMS753085R","31","0","PUMPKIN","8","COOKIE","1","0","849",,,,,"0","2018-10-05 15:41:56","265990"
"AMV1E7FFPVAW4","cs_wg_rev_conf_v2_real1","35DR22AR5DLBBHEL89Q7UOBGIGI3X4","10","0","COOKIE","1","WIZARD","7","1","1713",,,,,"0","2018-10-05 15:41:56","265991"
"A2PU3C8EETKC3B","cs_wg_rev_conf_v2_real1","3IOEN3P9S7K2IZGAKI3Y6IJZNS561L","85","0","LIZARD","6","MOUSE","8","0","780",,,,,"0","2018-10-05 15:41:57","265992"
"AW1SWNQFPIUKF","cs_wg_rev_conf_v2_real1","3OB0CAO74HQF5UBUSQ1BHWJZ3RWYHE","30","0","BASKET","8","MARKET","15","1","1251",,,,,"0","2018-10-05 15:41:57","265993"
"A189V9652OVX56","cs_wg_rev_conf_v2_real1","3RGU30DZTA9B2JH6XNGLZEC779KJMC","13","0","HOCKEY","8","SEAGULL","8","1","1598",,,,,"0","2018-10-05 15:41:57","265994"
"A2LAKROAU2MVEN","cs_wg_rev_conf_v2_real1","3P1L2B7AD1Q5XCQIDO7B7XE46Y5OLZ","51","0","MARKET","1","ROCKET","8","1","1677",,,,,"0","2018-10-05 15:41:58","265995"
"A2PU3C8EETKC3B","cs_wg_rev_conf_v2_real1","3IOEN3P9S7K2IZGAKI3Y6IJZNS561L","86","0","WIZARD","9","LIZARD","6","1","307",,,,,"0","2018-10-05 15:41:59","265996"
"A1L8ZQ4A13OGWX","cs_wg_rev_conf_v2_real1","3Q5ZZ9ZEVOGOAV0HEK28TMS753085R","32","0","CANCER","7","BAKER","15","1","1427",,,,,"0","2018-10-05 15:42:00","265997"
"AW1SWNQFPIUKF","cs_wg_rev_conf_v2_real1","3OB0CAO74HQF5UBUSQ1BHWJZ3RWYHE","31","0","SEAGULL","8","BASKET","8","0","1192",,,,,"0","2018-10-05 15:42:00","265998"
"A2LAKROAU2MVEN","cs_wg_rev_conf_v2_real1","3P1L2B7AD1Q5XCQIDO7B7XE46Y5OLZ","52","0","GRENADE","7","CRICKET","15","1","1505",,,,,"0","2018-10-05 15:42:02","265999"
"A2PU3C8EETKC3B","cs_wg_rev_conf_v2_real1","3IOEN3P9S7K2IZGAKI3Y6IJZNS561L","87","0","LIZARD","6","BICYCLE","7","0","947",,,,,"0","2018-10-05 15:42:02","266000"
"A189V9652OVX56","cs_wg_rev_conf_v2_real1","3RGU30DZTA9B2JH6XNGLZEC779KJMC","14","0","PELICAN","7","SEAGULL","8","1","1937",,,,,"0","2018-10-05 15:42:02","266001"
"A2TZA6QIDOHF0R","cs_wg_rev_conf_v2_real1","3ZAK8W07I4FNDLLTKHX18JE5LMHU08","2","0","PELICAN","7","SEAGULL","8","0","2561",,,,,"0","2018-10-05 15:42:02","266002"
"AW1SWNQFPIUKF","cs_wg_rev_conf_v2_real1","3OB0CAO74HQF5UBUSQ1BHWJZ3RWYHE","32","0","PALACE","7","SEAGULL","8","1","1782",,,,,"0","2018-10-05 15:42:03","266003"
"A1L8ZQ4A13OGWX","cs_wg_rev_conf_v2_real1","3Q5ZZ9ZEVOGOAV0HEK28TMS753085R","33","0","PUMPKIN","8","CANCER","7","0","1837",,,,,"0","2018-10-05 15:42:04","266004"
"A2PU3C8EETKC3B","cs_wg_rev_conf_v2_real1","3IOEN3P9S7K2IZGAKI3Y6IJZNS561L","88","0","MOUSE","8","PELICAN","7","1","668",,,,,"0","2018-10-05 15:42:04","266005"
"A2LAKROAU2MVEN","cs_wg_rev_conf_v2_real1","3P1L2B7AD1Q5XCQIDO7B7XE46Y5OLZ","53","0","MARKET","1","MOUSE","8","0","970",,,,,"0","2018-10-05 15:42:04","266006"
"A1NIPJZWXW7ZKM","cs_wg_rev_conf_v2_real1","3U5NZHP4LR3LWGJT135S45QNZMUHP4","4","0","PUMPKIN","1","BUCKET","15","1","10495",,,,,"1","2018-10-05 15:42:05","266007"
"AMV1E7FFPVAW4","cs_wg_rev_conf_v2_real1","35DR22AR5DLBBHEL89Q7UOBGIGI3X4","11","0","WIZARD","7","MOUSE","8","1","7312",,,,,"0","2018-10-05 15:42:06","266008"
"AW1SWNQFPIUKF","cs_wg_rev_conf_v2_real1","3OB0CAO74HQF5UBUSQ1BHWJZ3RWYHE","33","0","MARKET","15","SEAGULL","8","0","1007",,,,,"0","2018-10-05 15:42:06","266009"
"A1L8ZQ4A13OGWX","cs_wg_rev_conf_v2_real1","3Q5ZZ9ZEVOGOAV0HEK28TMS753085R","34","0","CANCER","7","COOKIE","1","0","1208",,,,,"0","2018-10-05 15:42:07","266010"
"A189V9652OVX56","cs_wg_rev_conf_v2_real1","3RGU30DZTA9B2JH6XNGLZEC779KJMC","15","0","PELICAN","7","HOCKEY","8","1","2350",,,,,"0","2018-10-05 15:42:07","266011"
"A2PU3C8EETKC3B","cs_wg_rev_conf_v2_real1","3IOEN3P9S7K2IZGAKI3Y6IJZNS561L","89","0","BICYCLE","7","CHICKEN","1","1","979",,,,,"0","2018-10-05 15:42:07","266012"
"A2LAKROAU2MVEN","cs_wg_rev_conf_v2_real1","3P1L2B7AD1Q5XCQIDO7B7XE46Y5OLZ","54","0","CRICKET","15","MARKET","1","0","624",,,,,"0","2018-10-05 15:42:07","266013"
"A39IM5JAY95JH3","cs_wg_rev_conf_v2_real1","358010RM5EUVNQG4SJWDDJ3Z90BXVV","1","0","AIRBAG","10","SEAGULL","8","1","4507",,,,,"0","2018-10-05 15:42:08","266014"
"AW1SWNQFPIUKF","cs_wg_rev_conf_v2_real1","3OB0CAO74HQF5UBUSQ1BHWJZ3RWYHE","34","0","HOCKEY","1","BASKET","8","1","1468",,,,,"0","2018-10-05 15:42:09","266015"
"A2TZA6QIDOHF0R","cs_wg_rev_conf_v2_real1","3ZAK8W07I4FNDLLTKHX18JE5LMHU08","3","0","NAPKIN","15","BUCKET","1","0","2996",,,,,"0","2018-10-05 15:42:09","266016"
"A1L8ZQ4A13OGWX","cs_wg_rev_conf_v2_real1","3Q5ZZ9ZEVOGOAV0HEK28TMS753085R","35","0","BAKER","15","PUMPKIN","8","0","1527",,,,,"0","2018-10-05 15:42:10","266017"
"AMV1E7FFPVAW4","cs_wg_rev_conf_v2_real1","35DR22AR5DLBBHEL89Q7UOBGIGI3X4","12","0","BASKET","15","DONKEY","8","0","1942",,,,,"0","2018-10-05 15:42:10","266018"
"A2PU3C8EETKC3B","cs_wg_rev_conf_v2_real1","3IOEN3P9S7K2IZGAKI3Y6IJZNS561L","90","0","AIRBAG","9","PELICAN","7","0","2065",,,,,"0","2018-10-05 15:42:11","266019"
"A2LAKROAU2MVEN","cs_wg_rev_conf_v2_real1","3P1L2B7AD1Q5XCQIDO7B7XE46Y5OLZ","55","0","ROCKET","8","CRICKET","15","1","1073",,,,,"0","2018-10-05 15:42:11","266020"
"A189V9652OVX56","cs_wg_rev_conf_v2_real1","3RGU30DZTA9B2JH6XNGLZEC779KJMC","16","0","SEAGULL","8","PELICAN","7","0","2742",,,,,"0","2018-10-05 15:42:12","266021"
"AW1SWNQFPIUKF","cs_wg_rev_conf_v2_real1","3OB0CAO74HQF5UBUSQ1BHWJZ3RWYHE","35","0","HOCKEY","1","SEAGULL","8","1","1523",,,,,"0","2018-10-05 15:42:12","266022"
"A1L8ZQ4A13OGWX","cs_wg_rev_conf_v2_real1","3Q5ZZ9ZEVOGOAV0HEK28TMS753085R","36","0","BAKER","15","COOKIE","1","0","1106",,,,,"0","2018-10-05 15:42:13","266023"
"A2PU3C8EETKC3B","cs_wg_rev_conf_v2_real1","3IOEN3P9S7K2IZGAKI3Y6IJZNS561L","91","0","BAKER","15","MONKEY","8","1","507",,,,,"0","2018-10-05 15:42:13","266024"
"AMV1E7FFPVAW4","cs_wg_rev_conf_v2_real1","35DR22AR5DLBBHEL89Q7UOBGIGI3X4","13","0","COOKIE","1","DONKEY","8","1","2678",,,,,"0","2018-10-05 15:42:15","266025"
"A2LAKROAU2MVEN","cs_wg_rev_conf_v2_real1","3P1L2B7AD1Q5XCQIDO7B7XE46Y5OLZ","56","0","MARKET","1","ROCKET","8","1","1811",,,,,"0","2018-10-05 15:42:15","266026"
"A1RSDFFZIVE5BO","cs_wg_rev_conf_v2_real1","3SITXWYCNVAGECIYN25DC79S68VBX3","27","0","BICYCLE","7","GROUND","8","1","18418",,,,,"0","2018-10-05 15:42:15","266027"
"AW1SWNQFPIUKF","cs_wg_rev_conf_v2_real1","3OB0CAO74HQF5UBUSQ1BHWJZ3RWYHE","36","0","MARKET","15","HOCKEY","1","0","1235",,,,,"0","2018-10-05 15:42:15","266028"
"A2PU3C8EETKC3B","cs_wg_rev_conf_v2_real1","3IOEN3P9S7K2IZGAKI3Y6IJZNS561L","92","0","ACROBAT","10","MOUSE","8","0","529",,,,,"0","2018-10-05 15:42:15","266029"
"A2TZA6QIDOHF0R","cs_wg_rev_conf_v2_real1","3ZAK8W07I4FNDLLTKHX18JE5LMHU08","4","0","CANCER","9","ROCKET","8","0","3010",,,,,"0","2018-10-05 15:42:16","266030"
"A189V9652OVX56","cs_wg_rev_conf_v2_real1","3RGU30DZTA9B2JH6XNGLZEC779KJMC","17","0","WHISKER","1","HOCKEY","8","1","2882",,,,,"0","2018-10-05 15:42:17","266031"
"A1L8ZQ4A13OGWX","cs_wg_rev_conf_v2_real1","3Q5ZZ9ZEVOGOAV0HEK28TMS753085R","37","0","CANCER","7","MOUSE","8","1","1389",,,,,"0","2018-10-05 15:42:17","266032"
"A2LAKROAU2MVEN","cs_wg_rev_conf_v2_real1","3P1L2B7AD1Q5XCQIDO7B7XE46Y5OLZ","57","0","MOUSE","8","MARKET","1","0","985",,,,,"0","2018-10-05 15:42:17","266033"
"AW1SWNQFPIUKF","cs_wg_rev_conf_v2_real1","3OB0CAO74HQF5UBUSQ1BHWJZ3RWYHE","37","0","BASKET","8","HOCKEY","1","0","900",,,,,"0","2018-10-05 15:42:18","266034"
"A2PU3C8EETKC3B","cs_wg_rev_conf_v2_real1","3IOEN3P9S7K2IZGAKI3Y6IJZNS561L","93","0","WIZARD","9","MOUSE","8","0","645",,,,,"0","2018-10-05 15:42:18","266035"
"A1RSDFFZIVE5BO","cs_wg_rev_conf_v2_real1","3SITXWYCNVAGECIYN25DC79S68VBX3","28","0","BICYCLE","7","DONKEY","1","0","1789",,,,,"0","2018-10-05 15:42:19","266036"
"A1NIPJZWXW7ZKM","cs_wg_rev_conf_v2_real1","3U5NZHP4LR3LWGJT135S45QNZMUHP4","5","0","WHISKER","8","LIZARD","7","0","11868",,,,,"1","2018-10-05 15:42:19","266037"
"AMV1E7FFPVAW4","cs_wg_rev_conf_v2_real1","35DR22AR5DLBBHEL89Q7UOBGIGI3X4","14","0","BASKET","15","COOKIE","1","0","1717",,,,,"0","2018-10-05 15:42:19","266038"
"A2PU3C8EETKC3B","cs_wg_rev_conf_v2_real1","3IOEN3P9S7K2IZGAKI3Y6IJZNS561L","94","0","PELICAN","7","CHICKEN","1","1","92",,,,,"0","2018-10-05 15:42:20","266039"
"A1L8ZQ4A13OGWX","cs_wg_rev_conf_v2_real1","3Q5ZZ9ZEVOGOAV0HEK28TMS753085R","38","0","PUMPKIN","8","MOUSE","8","0","1028",,,,,"0","2018-10-05 15:42:20","266040"
"AW1SWNQFPIUKF","cs_wg_rev_conf_v2_real1","3OB0CAO74HQF5UBUSQ1BHWJZ3RWYHE","38","0","SEAGULL","8","MARKET","15","1","1176",,,,,"0","2018-10-05 15:42:20","266041"
"A2LAKROAU2MVEN","cs_wg_rev_conf_v2_real1","3P1L2B7AD1Q5XCQIDO7B7XE46Y5OLZ","58","0","ROCKET","8","CRICKET","15","1","1024",,,,,"0","2018-10-05 15:42:20","266042"
"A3314BF7U2F55U","cs_wg_rev_conf_v2_real1","30BUDKLTXDW5JWA8RNO8LWOTG60E5Y","0","0","BASKET","15","VOLCANO","7","0","9025",,,,,"1","2018-10-05 15:42:21","266043"
"A189V9652OVX56","cs_wg_rev_conf_v2_real1","3RGU30DZTA9B2JH6XNGLZEC779KJMC","18","0","HOCKEY","8","SEAGULL","8","1","2252",,,,,"0","2018-10-05 15:42:21","266044"
"A2PU3C8EETKC3B","cs_wg_rev_conf_v2_real1","3IOEN3P9S7K2IZGAKI3Y6IJZNS561L","95","0","AIRBAG","9","BAKER","15","0","252",,,,,"0","2018-10-05 15:42:22","266045"
"A39IM5JAY95JH3","cs_wg_rev_conf_v2_real1","358010RM5EUVNQG4SJWDDJ3Z90BXVV","2","0","MARKET","15","VOLCANO","7","0","5724",,,,,"0","2018-10-05 15:42:22","266046"
"A1RSDFFZIVE5BO","cs_wg_rev_conf_v2_real1","3SITXWYCNVAGECIYN25DC79S68VBX3","29","0","MONKEY","8","WHISKER","15","1","977",,,,,"0","2018-10-05 15:42:22","266047"
"A2TZA6QIDOHF0R","cs_wg_rev_conf_v2_real1","3ZAK8W07I4FNDLLTKHX18JE5LMHU08","5","0","PELICAN","7","NAPKIN","15","0","3283",,,,,"0","2018-10-05 15:42:22","266048"
"AW1SWNQFPIUKF","cs_wg_rev_conf_v2_real1","3OB0CAO74HQF5UBUSQ1BHWJZ3RWYHE","39","0","PALACE","7","MARKET","15","1","1305",,,,,"0","2018-10-05 15:42:23","266049"
"A2PU3C8EETKC3B","cs_wg_rev_conf_v2_real1","3IOEN3P9S7K2IZGAKI3Y6IJZNS561L","96","0","CANCER","10","AIRBAG","9","0","699",,,,,"0","2018-10-05 15:42:24","266050"
"A1L8ZQ4A13OGWX","cs_wg_rev_conf_v2_real1","3Q5ZZ9ZEVOGOAV0HEK28TMS753085R","39","0","COOKIE","1","BAKER","15","1","1406",,,,,"0","2018-10-05 15:42:24","266051"
"A2LAKROAU2MVEN","cs_wg_rev_conf_v2_real1","3P1L2B7AD1Q5XCQIDO7B7XE46Y5OLZ","59","0","MOUSE","8","GRENADE","7","1","2342",,,,,"0","2018-10-05 15:42:25","266052"
"AW1SWNQFPIUKF","cs_wg_rev_conf_v2_real1","3OB0CAO74HQF5UBUSQ1BHWJZ3RWYHE","40","0","SEAGULL","8","BASKET","8","0","1120",,,,,"0","2018-10-05 15:42:26","266053"
"A1RSDFFZIVE5BO","cs_wg_rev_conf_v2_real1","3SITXWYCNVAGECIYN25DC79S68VBX3","30","0","GROUND","8","DONKEY","1","0","1447",,,,,"0","2018-10-05 15:42:26","266054"
"AMV1E7FFPVAW4","cs_wg_rev_conf_v2_real1","35DR22AR5DLBBHEL89Q7UOBGIGI3X4","15","0","MOUSE","8","WIZARD","7","1","3333",,,,,"0","2018-10-05 15:42:26","266055"
"A2PU3C8EETKC3B","cs_wg_rev_conf_v2_real1","3IOEN3P9S7K2IZGAKI3Y6IJZNS561L","97","0","AIRBAG","9","ACROBAT","10","0","1056",,,,,"0","2018-10-05 15:42:27","266056"
"A1L8ZQ4A13OGWX","cs_wg_rev_conf_v2_real1","3Q5ZZ9ZEVOGOAV0HEK28TMS753085R","40","0","BAKER","15","MOUSE","8","0","759",,,,,"0","2018-10-05 15:42:27","266057"
"A189V9652OVX56","cs_wg_rev_conf_v2_real1","3RGU30DZTA9B2JH6XNGLZEC779KJMC","19","0","WHISKER","1","MARKET","15","1","1976",,,,,"0","2018-10-05 15:42:27","266058"
"A2TZA6QIDOHF0R","cs_wg_rev_conf_v2_real1","3ZAK8W07I4FNDLLTKHX18JE5LMHU08","6","0","POTATO","7","NAPKIN","15","1","1998",,,,,"0","2018-10-05 15:42:28","266059"
"AW1SWNQFPIUKF","cs_wg_rev_conf_v2_real1","3OB0CAO74HQF5UBUSQ1BHWJZ3RWYHE","41","0","MARKET","15","PALACE","7","0","765",,,,,"0","2018-10-05 15:42:28","266060"
"A1L8ZQ4A13OGWX","cs_wg_rev_conf_v2_real1","3Q5ZZ9ZEVOGOAV0HEK28TMS753085R","41","0","BAKER","15","MOUSE","8","0","594",,,,,"0","2018-10-05 15:42:29","266061"
"A2PU3C8EETKC3B","cs_wg_rev_conf_v2_real1","3IOEN3P9S7K2IZGAKI3Y6IJZNS561L","98","0","CHICKEN","1","AIRBAG","9","1","628",,,,,"0","2018-10-05 15:42:29","266062"
"AW1SWNQFPIUKF","cs_wg_rev_conf_v2_real1","3OB0CAO74HQF5UBUSQ1BHWJZ3RWYHE","42","0","MARKET","15","SEAGULL","8","0","692",,,,,"0","2018-10-05 15:42:30","266063"
"AMV1E7FFPVAW4","cs_wg_rev_conf_v2_real1","35DR22AR5DLBBHEL89Q7UOBGIGI3X4","16","0","DONKEY","8","COOKIE","1","0","2052",,,,,"0","2018-10-05 15:42:31","266064"
"A3314BF7U2F55U","cs_wg_rev_conf_v2_real1","30BUDKLTXDW5JWA8RNO8LWOTG60E5Y","1","0","NAPKIN","8","BAKER","1","0","6024",,,,,"1","2018-10-05 15:42:31","266065"
"A2PU3C8EETKC3B","cs_wg_rev_conf_v2_real1","3IOEN3P9S7K2IZGAKI3Y6IJZNS561L","99","0","CANCER","10","MOUSE","8","1","481",,,,,"0","2018-10-05 15:42:31","266066"
"A1NIPJZWXW7ZKM","cs_wg_rev_conf_v2_real1","3U5NZHP4LR3LWGJT135S45QNZMUHP4","6","0","JAGUAR","8","WHISKER","8","0","10055",,,,,"1","2018-10-05 15:42:31","266067"
"A1L8ZQ4A13OGWX","cs_wg_rev_conf_v2_real1","3Q5ZZ9ZEVOGOAV0HEK28TMS753085R","42","0","BAKER","15","COOKIE","1","0","1010",,,,,"0","2018-10-05 15:42:32","266068"
"A2TZA6QIDOHF0R","cs_wg_rev_conf_v2_real1","3ZAK8W07I4FNDLLTKHX18JE5LMHU08","7","0","VOLCANO","6","SEAGULL","8","0","1904",,,,,"0","2018-10-05 15:42:32","266069"
"A189V9652OVX56","cs_wg_rev_conf_v2_real1","3RGU30DZTA9B2JH6XNGLZEC779KJMC","20","0","PELICAN","7","MARKET","15","1","3005",,,,,"0","2018-10-05 15:42:33","266070"
"A2PU3C8EETKC3B","cs_wg_rev_conf_v2_real1","3IOEN3P9S7K2IZGAKI3Y6IJZNS561L","100","0","CANCER","10","LIZARD","6","0","194",,,,,"0","2018-10-05 15:42:33","266071"
"A1RSDFFZIVE5BO","cs_wg_rev_conf_v2_real1","3SITXWYCNVAGECIYN25DC79S68VBX3","31","0","BICYCLE","7","MONKEY","8","0","5686",,,,,"0","2018-10-05 15:42:34","266072"
"AW1SWNQFPIUKF","cs_wg_rev_conf_v2_real1","3OB0CAO74HQF5UBUSQ1BHWJZ3RWYHE","43","0","PALACE","7","BASKET","8","0","2430",,,,,"0","2018-10-05 15:42:34","266073"
"AMV1E7FFPVAW4","cs_wg_rev_conf_v2_real1","35DR22AR5DLBBHEL89Q7UOBGIGI3X4","17","0","COOKIE","1","MOUSE","8","1","1931",,,,,"0","2018-10-05 15:42:35","266074"
"A2PU3C8EETKC3B","cs_wg_rev_conf_v2_real1","3IOEN3P9S7K2IZGAKI3Y6IJZNS561L","101","0","BAKER","15","MOUSE","8","0","371",,,,,"0","2018-10-05 15:42:35","266075"
"A1L8ZQ4A13OGWX","cs_wg_rev_conf_v2_real1","3Q5ZZ9ZEVOGOAV0HEK28TMS753085R","43","0","BAKER","15","CANCER","7","0","1418",,,,,"0","2018-10-05 15:42:36","266076"
"A39IM5JAY95JH3","cs_wg_rev_conf_v2_real1","358010RM5EUVNQG4SJWDDJ3Z90BXVV","3","0","ROCKET","1","AIRBAG","10","1","4561",,,,,"0","2018-10-05 15:42:36","266077"
"AW1SWNQFPIUKF","cs_wg_rev_conf_v2_real1","3OB0CAO74HQF5UBUSQ1BHWJZ3RWYHE","44","0","BASKET","8","PALACE","7","1","1223",,,,,"0","2018-10-05 15:42:37","266078"
"A3314BF7U2F55U","cs_wg_rev_conf_v2_real1","30BUDKLTXDW5JWA8RNO8LWOTG60E5Y","2","0","NAPKIN","8","VOLCANO","7","0","1776",,,,,"0","2018-10-05 15:42:37","266079"
"A2TZA6QIDOHF0R","cs_wg_rev_conf_v2_real1","3ZAK8W07I4FNDLLTKHX18JE5LMHU08","8","0","TOMATO","6","AVOCADO","10","1","2260",,,,,"0","2018-10-05 15:42:37","266080"
"A2PU3C8EETKC3B","cs_wg_rev_conf_v2_real1","3IOEN3P9S7K2IZGAKI3Y6IJZNS561L","102","0","CHICKEN","1","GRENADE","6","1","801",,,,,"0","2018-10-05 15:42:38","266081"
"A189V9652OVX56","cs_wg_rev_conf_v2_real1","3RGU30DZTA9B2JH6XNGLZEC779KJMC","21","0","HOCKEY","8","MARKET","15","1","1690",,,,,"0","2018-10-05 15:42:38","266082"
"A1RSDFFZIVE5BO","cs_wg_rev_conf_v2_real1","3SITXWYCNVAGECIYN25DC79S68VBX3","32","0","DONKEY","1","WHISKER","15","1","2100",,,,,"0","2018-10-05 15:42:38","266083"
"A1NIPJZWXW7ZKM","cs_wg_rev_conf_v2_real1","3U5NZHP4LR3LWGJT135S45QNZMUHP4","7","0","WHISKER","8","BUCKET","15","1","4404",,,,,"1","2018-10-05 15:42:38","266084"
"A1L8ZQ4A13OGWX","cs_wg_rev_conf_v2_real1","3Q5ZZ9ZEVOGOAV0HEK28TMS753085R","44","0","BAKER","15","PUMPKIN","8","0","1649",,,,,"0","2018-10-05 15:42:39","266085"
"AMV1E7FFPVAW4","cs_wg_rev_conf_v2_real1","35DR22AR5DLBBHEL89Q7UOBGIGI3X4","18","0","COOKIE","1","BASKET","15","1","1335",,,,,"0","2018-10-05 15:42:39","266086"
"AW1SWNQFPIUKF","cs_wg_rev_conf_v2_real1","3OB0CAO74HQF5UBUSQ1BHWJZ3RWYHE","45","0","MARKET","15","PALACE","7","0","676",,,,,"0","2018-10-05 15:42:39","266087"
"A2PU3C8EETKC3B","cs_wg_rev_conf_v2_real1","3IOEN3P9S7K2IZGAKI3Y6IJZNS561L","103","0","MONKEY","8","LIZARD","6","1","397",,,,,"0","2018-10-05 15:42:40","266088"
"A39IM5JAY95JH3","cs_wg_rev_conf_v2_real1","358010RM5EUVNQG4SJWDDJ3Z90BXVV","4","0","VOLCANO","7","PELICAN","7","1","2300",,,,,"0","2018-10-05 15:42:41","266089"
"A2PU3C8EETKC3B","cs_wg_rev_conf_v2_real1","3IOEN3P9S7K2IZGAKI3Y6IJZNS561L","104","0","BICYCLE","7","WIZARD","9","0","1",,,,,"0","2018-10-05 15:42:42","266090"
"AW1SWNQFPIUKF","cs_wg_rev_conf_v2_real1","3OB0CAO74HQF5UBUSQ1BHWJZ3RWYHE","46","0","HOCKEY","1","BASKET","8","0","1303",,,,,"0","2018-10-05 15:42:42","266091"
"A2TZA6QIDOHF0R","cs_wg_rev_conf_v2_real1","3ZAK8W07I4FNDLLTKHX18JE5LMHU08","9","0","NAPKIN","15","VOLCANO","6","0","2052",,,,,"0","2018-10-05 15:42:42","266092"
"A1RSDFFZIVE5BO","cs_wg_rev_conf_v2_real1","3SITXWYCNVAGECIYN25DC79S68VBX3","33","0","GROUND","8","WHISKER","15","1","1566",,,,,"0","2018-10-05 15:42:43","266093"
"A1L8ZQ4A13OGWX","cs_wg_rev_conf_v2_real1","3Q5ZZ9ZEVOGOAV0HEK28TMS753085R","45","0","PUMPKIN","8","BAKER","15","1","1661",,,,,"0","2018-10-05 15:42:43","266094"
"A2PU3C8EETKC3B","cs_wg_rev_conf_v2_real1","3IOEN3P9S7K2IZGAKI3Y6IJZNS561L","105","0","CHICKEN","1","WIZARD","9","0","788",,,,,"0","2018-10-05 15:42:44","266095"
"A189V9652OVX56","cs_wg_rev_conf_v2_real1","3RGU30DZTA9B2JH6XNGLZEC779KJMC","22","0","HOCKEY","8","SEAGULL","8","0","2371",,,,,"0","2018-10-05 15:42:45","266096"
"A1NIPJZWXW7ZKM","cs_wg_rev_conf_v2_real1","3U5NZHP4LR3LWGJT135S45QNZMUHP4","8","0","JAGUAR","8","BUCKET","15","1","4147",,,,,"0","2018-10-05 15:42:45","266097"
"AW1SWNQFPIUKF","cs_wg_rev_conf_v2_real1","3OB0CAO74HQF5UBUSQ1BHWJZ3RWYHE","47","0","HOCKEY","1","BASKET","8","1","1693",,,,,"0","2018-10-05 15:42:45","266098"
"A1L8ZQ4A13OGWX","cs_wg_rev_conf_v2_real1","3Q5ZZ9ZEVOGOAV0HEK28TMS753085R","46","0","CANCER","7","PUMPKIN","8","1","1560",,,,,"0","2018-10-05 15:42:46","266099"
"A3314BF7U2F55U","cs_wg_rev_conf_v2_real1","30BUDKLTXDW5JWA8RNO8LWOTG60E5Y","3","0","VOLCANO","7","NAPKIN","8","1","5792",,,,,"1","2018-10-05 15:42:47","266100"
"AMV1E7FFPVAW4","cs_wg_rev_conf_v2_real1","35DR22AR5DLBBHEL89Q7UOBGIGI3X4","19","0","DONKEY","8","WIZARD","7","0","6189",,,,,"0","2018-10-05 15:42:47","266101"
"A2PU3C8EETKC3B","cs_wg_rev_conf_v2_real1","3IOEN3P9S7K2IZGAKI3Y6IJZNS561L","106","0","PELICAN","7","ACROBAT","10","0","1347",,,,,"0","2018-10-05 15:42:47","266102"
"A1RSDFFZIVE5BO","cs_wg_rev_conf_v2_real1","3SITXWYCNVAGECIYN25DC79S68VBX3","34","0","MONKEY","8","BICYCLE","7","1","2731",,,,,"0","2018-10-05 15:42:47","266103"
"AW1SWNQFPIUKF","cs_wg_rev_conf_v2_real1","3OB0CAO74HQF5UBUSQ1BHWJZ3RWYHE","48","0","HOCKEY","1","MARKET","15","1","1046",,,,,"0","2018-10-05 15:42:48","266104"
"A2TZA6QIDOHF0R","cs_wg_rev_conf_v2_real1","3ZAK8W07I4FNDLLTKHX18JE5LMHU08","10","0","AVOCADO","10","ACROBAT","10","1","2640",,,,,"0","2018-10-05 15:42:49","266105"
"A189V9652OVX56","cs_wg_rev_conf_v2_real1","3RGU30DZTA9B2JH6XNGLZEC779KJMC","23","0","MARKET","15","HOCKEY","8","0","1922",,,,,"0","2018-10-05 15:42:49","266106"
"A2PU3C8EETKC3B","cs_wg_rev_conf_v2_real1","3IOEN3P9S7K2IZGAKI3Y6IJZNS561L","107","0","WIZARD","9","PELICAN","7","1","410",,,,,"0","2018-10-05 15:42:49","266107"
"A1L8ZQ4A13OGWX","cs_wg_rev_conf_v2_real1","3Q5ZZ9ZEVOGOAV0HEK28TMS753085R","47","0","PUMPKIN","8","MOUSE","8","0","1931",,,,,"0","2018-10-05 15:42:50","266108"
"AW1SWNQFPIUKF","cs_wg_rev_conf_v2_real1","3OB0CAO74HQF5UBUSQ1BHWJZ3RWYHE","49","0","PALACE","7","BASKET","8","0","1540",,,,,"0","2018-10-05 15:42:51","266109"
"AMV1E7FFPVAW4","cs_wg_rev_conf_v2_real1","35DR22AR5DLBBHEL89Q7UOBGIGI3X4","20","0","WIZARD","7","BASKET","15","1","1793",,,,,"0","2018-10-05 15:42:51","266110"
"A2PU3C8EETKC3B","cs_wg_rev_conf_v2_real1","3IOEN3P9S7K2IZGAKI3Y6IJZNS561L","108","0","CHICKEN","1","CANCER","10","0","475",,,,,"0","2018-10-05 15:42:51","266111"
"A189V9652OVX56","cs_wg_rev_conf_v2_real1","3RGU30DZTA9B2JH6XNGLZEC779KJMC","24","0","HOCKEY","8","WHISKER","1","0","2018",,,,,"0","2018-10-05 15:42:53","266112"
"A2PU3C8EETKC3B","cs_wg_rev_conf_v2_real1","3IOEN3P9S7K2IZGAKI3Y6IJZNS561L","109","0","GRENADE","6","AIRBAG","9","1","337",,,,,"0","2018-10-05 15:42:54","266113"
"A1L8ZQ4A13OGWX","cs_wg_rev_conf_v2_real1","3Q5ZZ9ZEVOGOAV0HEK28TMS753085R","48","0","BAKER","15","COOKIE","1","0","1030",,,,,"0","2018-10-05 15:42:54","266114"
"AW1SWNQFPIUKF","cs_wg_rev_conf_v2_real1","3OB0CAO74HQF5UBUSQ1BHWJZ3RWYHE","50","0","MARKET","15","HOCKEY","1","0","1085",,,,,"0","2018-10-05 15:42:54","266115"
"A1NIPJZWXW7ZKM","cs_wg_rev_conf_v2_real1","3U5NZHP4LR3LWGJT135S45QNZMUHP4","9","0","LIZARD","7","JAGUAR","8","1","6877",,,,,"1","2018-10-05 15:42:54","266116"
"A19D2W1PR68NO","cs_wg_rev_conf_v2_real1","31QTRG6Q2TE7IB9IB39GQ5LQPI6YPJ","0","0","GRENADE","7","HOCKEY","8","0","4291",,,,,"0","2018-10-05 15:42:55","266117"
"AMV1E7FFPVAW4","cs_wg_rev_conf_v2_real1","35DR22AR5DLBBHEL89Q7UOBGIGI3X4","21","0","COOKIE","1","WIZARD","7","1","2374",,,,,"0","2018-10-05 15:42:55","266118"
"A3314BF7U2F55U","cs_wg_rev_conf_v2_real1","30BUDKLTXDW5JWA8RNO8LWOTG60E5Y","4","0","BAKER","1","VOLCANO","7","1","6008",,,,,"1","2018-10-05 15:42:56","266119"
"A2PU3C8EETKC3B","cs_wg_rev_conf_v2_real1","3IOEN3P9S7K2IZGAKI3Y6IJZNS561L","110","0","LIZARD","6","GRENADE","6","1","699",,,,,"0","2018-10-05 15:42:56","266120"
"A1RSDFFZIVE5BO","cs_wg_rev_conf_v2_real1","3SITXWYCNVAGECIYN25DC79S68VBX3","35","0","MONKEY","8","GROUND","8","0","3707",,,,,"0","2018-10-05 15:42:56","266121"
"A2TZA6QIDOHF0R","cs_wg_rev_conf_v2_real1","3ZAK8W07I4FNDLLTKHX18JE5LMHU08","11","0","TOMATO","6","PELICAN","7","1","4471",,,,,"0","2018-10-05 15:42:56","266122"
"A189V9652OVX56","cs_wg_rev_conf_v2_real1","3RGU30DZTA9B2JH6XNGLZEC779KJMC","25","0","SEAGULL","8","MARKET","15","1","1784",,,,,"0","2018-10-05 15:42:57","266123"
"AW1SWNQFPIUKF","cs_wg_rev_conf_v2_real1","3OB0CAO74HQF5UBUSQ1BHWJZ3RWYHE","51","0","SEAGULL","8","PALACE","7","0","1370",,,,,"0","2018-10-05 15:42:57","266124"
"A1L8ZQ4A13OGWX","cs_wg_rev_conf_v2_real1","3Q5ZZ9ZEVOGOAV0HEK28TMS753085R","49","0","CANCER","7","COOKIE","1","0","1840",,,,,"0","2018-10-05 15:42:57","266125"
"A2PU3C8EETKC3B","cs_wg_rev_conf_v2_real1","3IOEN3P9S7K2IZGAKI3Y6IJZNS561L","111","0","MONKEY","8","CHICKEN","1","0","188",,,,,"0","2018-10-05 15:42:58","266126"
"A1NIPJZWXW7ZKM","cs_wg_rev_conf_v2_real1","3U5NZHP4LR3LWGJT135S45QNZMUHP4","10","0","BUCKET","15","WHISKER","8","0","2567",,,,,"0","2018-10-05 15:42:59","266127"
"AW1SWNQFPIUKF","cs_wg_rev_conf_v2_real1","3OB0CAO74HQF5UBUSQ1BHWJZ3RWYHE","52","0","PALACE","7","BASKET","8","1","1455",,,,,"0","2018-10-05 15:43:00","266128"
"A2PU3C8EETKC3B","cs_wg_rev_conf_v2_real1","3IOEN3P9S7K2IZGAKI3Y6IJZNS561L","112","0","LIZARD","6","AIRBAG","9","0","441",,,,,"0","2018-10-05 15:43:00","266129"
"A1L8ZQ4A13OGWX","cs_wg_rev_conf_v2_real1","3Q5ZZ9ZEVOGOAV0HEK28TMS753085R","50","0","COOKIE","1","PUMPKIN","8","1","1319",,,,,"0","2018-10-05 15:43:00","266130"
"A189V9652OVX56","cs_wg_rev_conf_v2_real1","3RGU30DZTA9B2JH6XNGLZEC779KJMC","26","0","MARKET","15","SEAGULL","8","0","1555",,,,,"0","2018-10-05 15:43:00","266131"
"A2TZA6QIDOHF0R","cs_wg_rev_conf_v2_real1","3ZAK8W07I4FNDLLTKHX18JE5LMHU08","12","0","POTATO","7","PELICAN","7","1","2343",,,,,"0","2018-10-05 15:43:01","266132"
"AMV1E7FFPVAW4","cs_wg_rev_conf_v2_real1","35DR22AR5DLBBHEL89Q7UOBGIGI3X4","22","0","WIZARD","7","MOUSE","8","1","4364",,,,,"0","2018-10-05 15:43:02","266133"
"A1NIPJZWXW7ZKM","cs_wg_rev_conf_v2_real1","3U5NZHP4LR3LWGJT135S45QNZMUHP4","11","0","BUCKET","15","LIZARD","7","0","1055",,,,,"0","2018-10-05 15:43:02","266134"
"AW1SWNQFPIUKF","cs_wg_rev_conf_v2_real1","3OB0CAO74HQF5UBUSQ1BHWJZ3RWYHE","53","0","SEAGULL","8","BASKET","8","0","1944",,,,,"0","2018-10-05 15:43:03","266135"
"A2PU3C8EETKC3B","cs_wg_rev_conf_v2_real1","3IOEN3P9S7K2IZGAKI3Y6IJZNS561L","113","0","MONKEY","8","GRENADE","6","1","1643",,,,,"0","2018-10-05 15:43:03","266136"
"A1L8ZQ4A13OGWX","cs_wg_rev_conf_v2_real1","3Q5ZZ9ZEVOGOAV0HEK28TMS753085R","51","0","COOKIE","1","BAKER","15","1","1421",,,,,"0","2018-10-05 15:43:04","266137"
"A189V9652OVX56","cs_wg_rev_conf_v2_real1","3RGU30DZTA9B2JH6XNGLZEC779KJMC","27","0","SEAGULL","8","WHISKER","1","0","1696",,,,,"0","2018-10-05 15:43:05","266138"
"AMV1E7FFPVAW4","cs_wg_rev_conf_v2_real1","35DR22AR5DLBBHEL89Q7UOBGIGI3X4","23","0","MOUSE","8","WIZARD","7","0","1656",,,,,"0","2018-10-05 15:43:05","266139"
"AW1SWNQFPIUKF","cs_wg_rev_conf_v2_real1","3OB0CAO74HQF5UBUSQ1BHWJZ3RWYHE","54","0","SEAGULL","8","PALACE","7","0","710",,,,,"0","2018-10-05 15:43:05","266140"
"A2PU3C8EETKC3B","cs_wg_rev_conf_v2_real1","3IOEN3P9S7K2IZGAKI3Y6IJZNS561L","114","0","MONKEY","8","BAKER","15","0","51",,,,,"0","2018-10-05 15:43:05","266141"
"A1L8ZQ4A13OGWX","cs_wg_rev_conf_v2_real1","3Q5ZZ9ZEVOGOAV0HEK28TMS753085R","52","0","BAKER","15","PUMPKIN","8","0","643",,,,,"0","2018-10-05 15:43:06","266142"
"A3314BF7U2F55U","cs_wg_rev_conf_v2_real1","30BUDKLTXDW5JWA8RNO8LWOTG60E5Y","5","0","VOLCANO","7","SEAGULL","8","1","8370",,,,,"1","2018-10-05 15:43:06","266143"
"A19D2W1PR68NO","cs_wg_rev_conf_v2_real1","31QTRG6Q2TE7IB9IB39GQ5LQPI6YPJ","1","0","PUMPKIN","1","HOCKEY","8","1","4103",,,,,"0","2018-10-05 15:43:06","266144"
"A2TZA6QIDOHF0R","cs_wg_rev_conf_v2_real1","3ZAK8W07I4FNDLLTKHX18JE5LMHU08","13","0","AIRBAG","9","ROCKET","8","1","3473",,,,,"0","2018-10-05 15:43:07","266145"
"A1NIPJZWXW7ZKM","cs_wg_rev_conf_v2_real1","3U5NZHP4LR3LWGJT135S45QNZMUHP4","12","0","LIZARD","7","PUMPKIN","1","0","3174",,,,,"0","2018-10-05 15:43:08","266146"
"A2PU3C8EETKC3B","cs_wg_rev_conf_v2_real1","3IOEN3P9S7K2IZGAKI3Y6IJZNS561L","115","0","MONKEY","8","PELICAN","7","1","843",,,,,"0","2018-10-05 15:43:08","266147"
"AMV1E7FFPVAW4","cs_wg_rev_conf_v2_real1","35DR22AR5DLBBHEL89Q7UOBGIGI3X4","24","0","MOUSE","8","WIZARD","7","0","1014",,,,,"0","2018-10-05 15:43:08","266148"
"AW1SWNQFPIUKF","cs_wg_rev_conf_v2_real1","3OB0CAO74HQF5UBUSQ1BHWJZ3RWYHE","55","0","BASKET","8","SEAGULL","8","1","1366",,,,,"0","2018-10-05 15:43:08","266149"
"A1L8ZQ4A13OGWX","cs_wg_rev_conf_v2_real1","3Q5ZZ9ZEVOGOAV0HEK28TMS753085R","53","0","PUMPKIN","8","CANCER","7","0","1261",,,,,"0","2018-10-05 15:43:09","266150"
"A189V9652OVX56","cs_wg_rev_conf_v2_real1","3RGU30DZTA9B2JH6XNGLZEC779KJMC","28","0","HOCKEY","8","MARKET","15","1","2736",,,,,"0","2018-10-05 15:43:10","266151"
"A2PU3C8EETKC3B","cs_wg_rev_conf_v2_real1","3IOEN3P9S7K2IZGAKI3Y6IJZNS561L","116","0","WIZARD","9","AIRBAG","9","0","659",,,,,"0","2018-10-05 15:43:10","266152"
"AW1SWNQFPIUKF","cs_wg_rev_conf_v2_real1","3OB0CAO74HQF5UBUSQ1BHWJZ3RWYHE","56","0","SEAGULL","8","HOCKEY","1","0","954",,,,,"0","2018-10-05 15:43:11","266153"
"AMV1E7FFPVAW4","cs_wg_rev_conf_v2_real1","35DR22AR5DLBBHEL89Q7UOBGIGI3X4","25","0","MOUSE","8","COOKIE","1","0","1393",,,,,"0","2018-10-05 15:43:11","266154"
"A2PU3C8EETKC3B","cs_wg_rev_conf_v2_real1","3IOEN3P9S7K2IZGAKI3Y6IJZNS561L","117","0","LIZARD","6","CHICKEN","1","1","186",,,,,"0","2018-10-05 15:43:12","266155"
"A39IM5JAY95JH3","cs_wg_rev_conf_v2_real1","358010RM5EUVNQG4SJWDDJ3Z90BXVV","5","0","SEAGULL","8","BANANA","9","1","28505",,,,,"1","2018-10-05 15:43:12","266156"
"A1L8ZQ4A13OGWX","cs_wg_rev_conf_v2_real1","3Q5ZZ9ZEVOGOAV0HEK28TMS753085R","54","0","COOKIE","1","PUMPKIN","8","1","1431",,,,,"0","2018-10-05 15:43:12","266157"
"A1NIPJZWXW7ZKM","cs_wg_rev_conf_v2_real1","3U5NZHP4LR3LWGJT135S45QNZMUHP4","13","0","LIZARD","7","BUCKET","15","1","2754",,,,,"0","2018-10-05 15:43:13","266158"
"AW1SWNQFPIUKF","cs_wg_rev_conf_v2_real1","3OB0CAO74HQF5UBUSQ1BHWJZ3RWYHE","57","0","HOCKEY","1","MARKET","15","1","1069",,,,,"0","2018-10-05 15:43:13","266159"
"A189V9652OVX56","cs_wg_rev_conf_v2_real1","3RGU30DZTA9B2JH6XNGLZEC779KJMC","29","0","WHISKER","1","SEAGULL","8","1","1860",,,,,"0","2018-10-05 15:43:14","266160"
"A19D2W1PR68NO","cs_wg_rev_conf_v2_real1","31QTRG6Q2TE7IB9IB39GQ5LQPI6YPJ","2","0","PUMPKIN","1","HOCKEY","8","1","4443",,,,,"0","2018-10-05 15:43:14","266161"
"A3314BF7U2F55U","cs_wg_rev_conf_v2_real1","30BUDKLTXDW5JWA8RNO8LWOTG60E5Y","6","0","BAKER","1","BASKET","15","1","4334",,,,,"1","2018-10-05 15:43:14","266162"
"A2PU3C8EETKC3B","cs_wg_rev_conf_v2_real1","3IOEN3P9S7K2IZGAKI3Y6IJZNS561L","118","0","ACROBAT","10","PELICAN","7","0","186",,,,,"0","2018-10-05 15:43:14","266163"
"A2TZA6QIDOHF0R","cs_wg_rev_conf_v2_real1","3ZAK8W07I4FNDLLTKHX18JE5LMHU08","14","0","AVOCADO","10","NAPKIN","15","1","4372",,,,,"0","2018-10-05 15:43:15","266164"
"AMV1E7FFPVAW4","cs_wg_rev_conf_v2_real1","35DR22AR5DLBBHEL89Q7UOBGIGI3X4","26","0","WIZARD","7","BASKET","15","1","1855",,,,,"0","2018-10-05 15:43:15","266165"
"AW1SWNQFPIUKF","cs_wg_rev_conf_v2_real1","3OB0CAO74HQF5UBUSQ1BHWJZ3RWYHE","58","0","MARKET","15","BASKET","8","0","684",,,,,"0","2018-10-05 15:43:15","266166"
"A2PU3C8EETKC3B","cs_wg_rev_conf_v2_real1","3IOEN3P9S7K2IZGAKI3Y6IJZNS561L","119","0","BAKER","15","WIZARD","9","1","747",,,,,"0","2018-10-05 15:43:16","266167"
"A1L8ZQ4A13OGWX","cs_wg_rev_conf_v2_real1","3Q5ZZ9ZEVOGOAV0HEK28TMS753085R","55","0","CANCER","7","MOUSE","8","1","1478",,,,,"0","2018-10-05 15:43:17","266168"
"A189V9652OVX56","cs_wg_rev_conf_v2_real1","3RGU30DZTA9B2JH6XNGLZEC779KJMC","30","0","PELICAN","7","WHISKER","1","0","1743",,,,,"0","2018-10-05 15:43:17","266169"
"AW1SWNQFPIUKF","cs_wg_rev_conf_v2_real1","3OB0CAO74HQF5UBUSQ1BHWJZ3RWYHE","59","0","HOCKEY","1","SEAGULL","8","1","1277",,,,,"0","2018-10-05 15:43:18","266170"
"A2TZA6QIDOHF0R","cs_wg_rev_conf_v2_real1","3ZAK8W07I4FNDLLTKHX18JE5LMHU08","15","0","ACROBAT","10","NAPKIN","15","1","1711",,,,,"0","2018-10-05 15:43:19","266171"
"A1RSDFFZIVE5BO","cs_wg_rev_conf_v2_real1","3SITXWYCNVAGECIYN25DC79S68VBX3","36","0","WHISKER","15","MONKEY","8","0","20112",,,,,"0","2018-10-05 15:43:19","266172"
"A1NIPJZWXW7ZKM","cs_wg_rev_conf_v2_real1","3U5NZHP4LR3LWGJT135S45QNZMUHP4","14","0","BUCKET","15","WHISKER","8","0","3106",,,,,"0","2018-10-05 15:43:19","266173"
"A2PU3C8EETKC3B","cs_wg_rev_conf_v2_real1","3IOEN3P9S7K2IZGAKI3Y6IJZNS561L","120","0","PELICAN","7","AIRBAG","9","0","1071",,,,,"0","2018-10-05 15:43:19","266174"
"A1L8ZQ4A13OGWX","cs_wg_rev_conf_v2_real1","3Q5ZZ9ZEVOGOAV0HEK28TMS753085R","56","0","MOUSE","8","CANCER","7","0","2280",,,,,"0","2018-10-05 15:43:21","266175"
"A189V9652OVX56","cs_wg_rev_conf_v2_real1","3RGU30DZTA9B2JH6XNGLZEC779KJMC","31","0","MARKET","15","PELICAN","7","0","1312",,,,,"0","2018-10-05 15:43:21","266176"
"AMV1E7FFPVAW4","cs_wg_rev_conf_v2_real1","35DR22AR5DLBBHEL89Q7UOBGIGI3X4","27","0","DONKEY","8","MOUSE","8","1","4329",,,,,"0","2018-10-05 15:43:21","266177"
"A2PU3C8EETKC3B","cs_wg_rev_conf_v2_real1","3IOEN3P9S7K2IZGAKI3Y6IJZNS561L","121","0","MOUSE","8","AIRBAG","9","1","199",,,,,"0","2018-10-05 15:43:21","266178"
"A19D2W1PR68NO","cs_wg_rev_conf_v2_real1","31QTRG6Q2TE7IB9IB39GQ5LQPI6YPJ","3","0","HOCKEY","8","SCUBA","8","0","3564",,,,,"0","2018-10-05 15:43:23","266179"
"A2PU3C8EETKC3B","cs_wg_rev_conf_v2_real1","3IOEN3P9S7K2IZGAKI3Y6IJZNS561L","122","0","BICYCLE","7","LIZARD","6","1","53",,,,,"0","2018-10-05 15:43:23","266180"
"A3314BF7U2F55U","cs_wg_rev_conf_v2_real1","30BUDKLTXDW5JWA8RNO8LWOTG60E5Y","7","0","NAPKIN","8","VOLCANO","7","0","5220",,,,,"1","2018-10-05 15:43:23","266181"
"A1L8ZQ4A13OGWX","cs_wg_rev_conf_v2_real1","3Q5ZZ9ZEVOGOAV0HEK28TMS753085R","57","0","BAKER","15","CANCER","7","0","739",,,,,"0","2018-10-05 15:43:24","266182"
"A1NIPJZWXW7ZKM","cs_wg_rev_conf_v2_real1","3U5NZHP4LR3LWGJT135S45QNZMUHP4","15","0","WHISKER","8","PUMPKIN","1","0","2501",,,,,"0","2018-10-05 15:43:24","266183"
"A2TZA6QIDOHF0R","cs_wg_rev_conf_v2_real1","3ZAK8W07I4FNDLLTKHX18JE5LMHU08","16","0","TOMATO","6","ROCKET","8","1","2509",,,,,"0","2018-10-05 15:43:24","266184"
"A2PU3C8EETKC3B","cs_wg_rev_conf_v2_real1","3IOEN3P9S7K2IZGAKI3Y6IJZNS561L","123","0","GRENADE","6","CHICKEN","1","0","547",,,,,"0","2018-10-05 15:43:26","266185"
"A189V9652OVX56","cs_wg_rev_conf_v2_real1","3RGU30DZTA9B2JH6XNGLZEC779KJMC","32","0","HOCKEY","8","PELICAN","7","1","2961",,,,,"0","2018-10-05 15:43:26","266186"
"AMV1E7FFPVAW4","cs_wg_rev_conf_v2_real1","35DR22AR5DLBBHEL89Q7UOBGIGI3X4","28","0","DONKEY","8","BASKET","15","1","1672",,,,,"0","2018-10-05 15:43:26","266187"
"A1L8ZQ4A13OGWX","cs_wg_rev_conf_v2_real1","3Q5ZZ9ZEVOGOAV0HEK28TMS753085R","58","0","BAKER","15","CANCER","7","0","1328",,,,,"0","2018-10-05 15:43:27","266188"
"A2PU3C8EETKC3B","cs_wg_rev_conf_v2_real1","3IOEN3P9S7K2IZGAKI3Y6IJZNS561L","124","0","WIZARD","9","BICYCLE","7","1","848",,,,,"0","2018-10-05 15:43:28","266189"
"A39IM5JAY95JH3","cs_wg_rev_conf_v2_real1","358010RM5EUVNQG4SJWDDJ3Z90BXVV","6","0","VOLCANO","7","AIRBAG","10","0","3159",,,,,"0","2018-10-05 15:43:29","266190"
"A1NIPJZWXW7ZKM","cs_wg_rev_conf_v2_real1","3U5NZHP4LR3LWGJT135S45QNZMUHP4","16","0","WHISKER","8","BUCKET","15","1","3150",,,,,"0","2018-10-05 15:43:29","266191"
"A2TZA6QIDOHF0R","cs_wg_rev_conf_v2_real1","3ZAK8W07I4FNDLLTKHX18JE5LMHU08","17","0","VOLCANO","6","CANCER","9","0","2597",,,,,"0","2018-10-05 15:43:29","266192"
"A189V9652OVX56","cs_wg_rev_conf_v2_real1","3RGU30DZTA9B2JH6XNGLZEC779KJMC","33","0","SEAGULL","8","MARKET","15","1","1737",,,,,"0","2018-10-05 15:43:30","266193"
"A2PU3C8EETKC3B","cs_wg_rev_conf_v2_real1","3IOEN3P9S7K2IZGAKI3Y6IJZNS561L","125","0","LIZARD","6","ACROBAT","10","0","354",,,,,"0","2018-10-05 15:43:30","266194"
"AMV1E7FFPVAW4","cs_wg_rev_conf_v2_real1","35DR22AR5DLBBHEL89Q7UOBGIGI3X4","29","0","COOKIE","1","DONKEY","8","1","1950",,,,,"0","2018-10-05 15:43:31","266195"
"A19D2W1PR68NO","cs_wg_rev_conf_v2_real1","31QTRG6Q2TE7IB9IB39GQ5LQPI6YPJ","4","0","SCUBA","8","HOCKEY","8","0","4279",,,,,"0","2018-10-05 15:43:31","266196"
"A1L8ZQ4A13OGWX","cs_wg_rev_conf_v2_real1","3Q5ZZ9ZEVOGOAV0HEK28TMS753085R","59","0","MOUSE","8","CANCER","7","0","2379",,,,,"0","2018-10-05 15:43:32","266197"
"A3314BF7U2F55U","cs_wg_rev_conf_v2_real1","30BUDKLTXDW5JWA8RNO8LWOTG60E5Y","8","0","NAPKIN","8","SEAGULL","8","0","6105",,,,,"1","2018-10-05 15:43:32","266198"
"A2PU3C8EETKC3B","cs_wg_rev_conf_v2_real1","3IOEN3P9S7K2IZGAKI3Y6IJZNS561L","126","0","BICYCLE","7","ACROBAT","10","1","774",,,,,"0","2018-10-05 15:43:33","266199"
"A189V9652OVX56","cs_wg_rev_conf_v2_real1","3RGU30DZTA9B2JH6XNGLZEC779KJMC","34","0","SEAGULL","8","WHISKER","1","0","1787",,,,,"0","2018-10-05 15:43:34","266200"
"A2PU3C8EETKC3B","cs_wg_rev_conf_v2_real1","3IOEN3P9S7K2IZGAKI3Y6IJZNS561L","127","0","LIZARD","6","BAKER","15","1","628",,,,,"0","2018-10-05 15:43:35","266201"
"AYKL9152PTHND","cs_wg_rev_conf_v2_real1","37ZHEEHM6WNHW28UQWM90PYSGN373D","0","0","ROCKET","8","PELICAN","10","0","7969",,,,,"0","2018-10-05 15:43:36","266202"
"A2TZA6QIDOHF0R","cs_wg_rev_conf_v2_real1","3ZAK8W07I4FNDLLTKHX18JE5LMHU08","18","0","SEAGULL","8","BUCKET","1","1","2636",,,,,"0","2018-10-05 15:43:36","266203"
"A1RSDFFZIVE5BO","cs_wg_rev_conf_v2_real1","3SITXWYCNVAGECIYN25DC79S68VBX3","37","0","DONKEY","1","GROUND","8","1","15475",,,,,"0","2018-10-05 15:43:37","266204"
"A2PU3C8EETKC3B","cs_wg_rev_conf_v2_real1","3IOEN3P9S7K2IZGAKI3Y6IJZNS561L","128","0","WIZARD","9","ACROBAT","10","0","682",,,,,"0","2018-10-05 15:43:37","266205"
"AMV1E7FFPVAW4","cs_wg_rev_conf_v2_real1","35DR22AR5DLBBHEL89Q7UOBGIGI3X4","30","0","MOUSE","8","DONKEY","8","1","4580",,,,,"0","2018-10-05 15:43:37","266206"
"A3314BF7U2F55U","cs_wg_rev_conf_v2_real1","30BUDKLTXDW5JWA8RNO8LWOTG60E5Y","9","0","BAKER","1","SEAGULL","8","1","2943",,,,,"0","2018-10-05 15:43:37","266207"
"A189V9652OVX56","cs_wg_rev_conf_v2_real1","3RGU30DZTA9B2JH6XNGLZEC779KJMC","35","0","MARKET","15","PELICAN","7","0","1944",,,,,"0","2018-10-05 15:43:38","266208"
"A39IM5JAY95JH3","cs_wg_rev_conf_v2_real1","358010RM5EUVNQG4SJWDDJ3Z90BXVV","7","0","SEAGULL","8","ROCKET","1","0","2203",,,,,"0","2018-10-05 15:43:38","266209"
"A19D2W1PR68NO","cs_wg_rev_conf_v2_real1","31QTRG6Q2TE7IB9IB39GQ5LQPI6YPJ","5","0","GRENADE","7","SCUBA","8","1","4908",,,,,"0","2018-10-05 15:43:39","266210"
"A2PU3C8EETKC3B","cs_wg_rev_conf_v2_real1","3IOEN3P9S7K2IZGAKI3Y6IJZNS561L","129","0","LIZARD","6","MONKEY","8","0","712",,,,,"0","2018-10-05 15:43:40","266211"
"AMV1E7FFPVAW4","cs_wg_rev_conf_v2_real1","35DR22AR5DLBBHEL89Q7UOBGIGI3X4","31","0","BASKET","15","MOUSE","8","0","1081",,,,,"0","2018-10-05 15:43:40","266212"
"A1RSDFFZIVE5BO","cs_wg_rev_conf_v2_real1","3SITXWYCNVAGECIYN25DC79S68VBX3","38","0","MONKEY","8","GROUND","8","1","1110",,,,,"0","2018-10-05 15:43:40","266213"
"A2TZA6QIDOHF0R","cs_wg_rev_conf_v2_real1","3ZAK8W07I4FNDLLTKHX18JE5LMHU08","19","0","POTATO","7","VOLCANO","6","1","3051",,,,,"0","2018-10-05 15:43:41","266214"
"A189V9652OVX56","cs_wg_rev_conf_v2_real1","3RGU30DZTA9B2JH6XNGLZEC779KJMC","36","0","PELICAN","7","SEAGULL","8","1","2354",,,,,"0","2018-10-05 15:43:42","266215"
"A1NIPJZWXW7ZKM","cs_wg_rev_conf_v2_real1","3U5NZHP4LR3LWGJT135S45QNZMUHP4","17","0","WHISKER","8","LIZARD","7","0","10308",,,,,"0","2018-10-05 15:43:42","266216"
"A2PU3C8EETKC3B","cs_wg_rev_conf_v2_real1","3IOEN3P9S7K2IZGAKI3Y6IJZNS561L","130","0","BAKER","15","ACROBAT","10","0","1674",,,,,"0","2018-10-05 15:43:44","266217"
"A3314BF7U2F55U","cs_wg_rev_conf_v2_real1","30BUDKLTXDW5JWA8RNO8LWOTG60E5Y","10","0","VOLCANO","7","NAPKIN","8","1","5265",,,,,"0","2018-10-05 15:43:45","266218"
"A1RSDFFZIVE5BO","cs_wg_rev_conf_v2_real1","3SITXWYCNVAGECIYN25DC79S68VBX3","39","0","WHISKER","15","BICYCLE","7","0","2580",,,,,"0","2018-10-05 15:43:46","266219"
"A2TZA6QIDOHF0R","cs_wg_rev_conf_v2_real1","3ZAK8W07I4FNDLLTKHX18JE5LMHU08","20","0","BUCKET","1","PELICAN","7","1","2750",,,,,"0","2018-10-05 15:43:46","266220"
"A19D2W1PR68NO","cs_wg_rev_conf_v2_real1","31QTRG6Q2TE7IB9IB39GQ5LQPI6YPJ","6","0","CRICKET","15","GRENADE","7","1","2566",,,,,"0","2018-10-05 15:43:46","266221"
"A2PU3C8EETKC3B","cs_wg_rev_conf_v2_real1","3IOEN3P9S7K2IZGAKI3Y6IJZNS561L","131","0","CANCER","10","GRENADE","6","0","1229",,,,,"0","2018-10-05 15:43:46","266222"
"A189V9652OVX56","cs_wg_rev_conf_v2_real1","3RGU30DZTA9B2JH6XNGLZEC779KJMC","37","0","MARKET","15","HOCKEY","8","0","2199",,,,,"0","2018-10-05 15:43:47","266223"
"AYKL9152PTHND","cs_wg_rev_conf_v2_real1","37ZHEEHM6WNHW28UQWM90PYSGN373D","1","0","MOUSE","8","ACROBAT","7","1","4028",,,,,"0","2018-10-05 15:43:47","266224"
"AMV1E7FFPVAW4","cs_wg_rev_conf_v2_real1","35DR22AR5DLBBHEL89Q7UOBGIGI3X4","32","0","WIZARD","7","DONKEY","8","1","6144",,,,,"0","2018-10-05 15:43:49","266225"
"A1RSDFFZIVE5BO","cs_wg_rev_conf_v2_real1","3SITXWYCNVAGECIYN25DC79S68VBX3","40","0","BICYCLE","7","MONKEY","8","1","1420",,,,,"0","2018-10-05 15:43:49","266226"
"A39IM5JAY95JH3","cs_wg_rev_conf_v2_real1","358010RM5EUVNQG4SJWDDJ3Z90BXVV","8","0","AIRBAG","10","MARKET","15","0","3903",,,,,"0","2018-10-05 15:43:50","266227"
"A1NIPJZWXW7ZKM","cs_wg_rev_conf_v2_real1","3U5NZHP4LR3LWGJT135S45QNZMUHP4","18","0","JAGUAR","8","WHISKER","8","0","5817",,,,,"1","2018-10-05 15:43:51","266228"
"A189V9652OVX56","cs_wg_rev_conf_v2_real1","3RGU30DZTA9B2JH6XNGLZEC779KJMC","38","0","WHISKER","1","HOCKEY","8","1","1942",,,,,"0","2018-10-05 15:43:51","266229"
"A3314BF7U2F55U","cs_wg_rev_conf_v2_real1","30BUDKLTXDW5JWA8RNO8LWOTG60E5Y","11","0","BAKER","1","NAPKIN","8","1","3782",,,,,"0","2018-10-05 15:43:51","266230"
"A19D2W1PR68NO","cs_wg_rev_conf_v2_real1","31QTRG6Q2TE7IB9IB39GQ5LQPI6YPJ","7","0","GRENADE","7","CRICKET","15","1","3189",,,,,"0","2018-10-05 15:43:53","266231"
"AMV1E7FFPVAW4","cs_wg_rev_conf_v2_real1","35DR22AR5DLBBHEL89Q7UOBGIGI3X4","33","0","DONKEY","8","WIZARD","7","0","2882",,,,,"0","2018-10-05 15:43:54","266232"
"A2TZA6QIDOHF0R","cs_wg_rev_conf_v2_real1","3ZAK8W07I4FNDLLTKHX18JE5LMHU08","21","0","NAPKIN","15","POTATO","7","0","4050",,,,,"0","2018-10-05 15:43:54","266233"
"A189V9652OVX56","cs_wg_rev_conf_v2_real1","3RGU30DZTA9B2JH6XNGLZEC779KJMC","39","0","MARKET","15","HOCKEY","8","0","1985",,,,,"0","2018-10-05 15:43:55","266234"
