"subject","version","assignmentId","trial","trial_type","word","value","alt","value2","choice","rt","resp","resp2","resp3","resp4","used_hint","stamp","id"
"A1AR5OZLXIF9","cs_wg_rev_conf_pilot1","3F0BG9B9MPOIC55IFHFZQJU5L397YK","0","0","PUMPKIN","1","CRICKET","15","1","8029",,,,,"1","2018-09-27 13:18:30","226666"
"A1AR5OZLXIF9","cs_wg_rev_conf_pilot1","3F0BG9B9MPOIC55IFHFZQJU5L397YK","1","0","CRICKET","15","PUMPKIN","1","0","3736",,,,,"1","2018-09-27 13:18:36","226667"
"A1AR5OZLXIF9","cs_wg_rev_conf_pilot1","3F0BG9B9MPOIC55IFHFZQJU5L397YK","2","0","CRICKET","15","ARCADE","6","0","897",,,,,"0","2018-09-27 13:18:39","226668"
"A1AR5OZLXIF9","cs_wg_rev_conf_pilot1","3F0BG9B9MPOIC55IFHFZQJU5L397YK","3","0","PICTURE","6","ARCADE","6","1","2209",,,,,"0","2018-09-27 13:18:43","226669"
"A1AR5OZLXIF9","cs_wg_rev_conf_pilot1","3F0BG9B9MPOIC55IFHFZQJU5L397YK","4","0","MONKEY","8","PUMPKIN","1","0","1776",,,,,"0","2018-09-27 13:18:46","226670"
"A1AR5OZLXIF9","cs_wg_rev_conf_pilot1","3F0BG9B9MPOIC55IFHFZQJU5L397YK","5","0","PUMPKIN","1","PICTURE","6","0","1800",,,,,"0","2018-09-27 13:18:50","226671"
"A1AR5OZLXIF9","cs_wg_rev_conf_pilot1","3F0BG9B9MPOIC55IFHFZQJU5L397YK","6","0","PUMPKIN","1","PICTURE","6","1","1297",,,,,"0","2018-09-27 13:18:53","226672"
"A1AR5OZLXIF9","cs_wg_rev_conf_pilot1","3F0BG9B9MPOIC55IFHFZQJU5L397YK","7","0","ARCADE","6","PICTURE","6","1","825",,,,,"0","2018-09-27 13:18:55","226673"
"A1AR5OZLXIF9","cs_wg_rev_conf_pilot1","3F0BG9B9MPOIC55IFHFZQJU5L397YK","8","0","ARCADE","6","CRICKET","15","1","1191",,,,,"0","2018-09-27 13:18:57","226674"
"A1AR5OZLXIF9","cs_wg_rev_conf_pilot1","3F0BG9B9MPOIC55IFHFZQJU5L397YK","9","0","PICTURE","6","CRICKET","15","1","615",,,,,"0","2018-09-27 13:18:59","226675"
"A1AR5OZLXIF9","cs_wg_rev_conf_pilot1","3F0BG9B9MPOIC55IFHFZQJU5L397YK","10","0","ARCADE","6","PICTURE","6","1","2127",,,,,"0","2018-09-27 13:19:03","226676"
"A1AR5OZLXIF9","cs_wg_rev_conf_pilot1","3F0BG9B9MPOIC55IFHFZQJU5L397YK","11","0","MONKEY","8","PUMPKIN","1","1","1105",,,,,"0","2018-09-27 13:19:05","226677"
"A1AR5OZLXIF9","cs_wg_rev_conf_pilot1","3F0BG9B9MPOIC55IFHFZQJU5L397YK","12","0","PUMPKIN","1","ARCADE","6","1","712",,,,,"0","2018-09-27 13:19:07","226678"
"A1AR5OZLXIF9","cs_wg_rev_conf_pilot1","3F0BG9B9MPOIC55IFHFZQJU5L397YK","13","0","PUMPKIN","1","MONKEY","8","1","992",,,,,"0","2018-09-27 13:19:09","226679"
"A1AR5OZLXIF9","cs_wg_rev_conf_pilot1","3F0BG9B9MPOIC55IFHFZQJU5L397YK","14","0","CRICKET","15","PUMPKIN","1","0","976",,,,,"0","2018-09-27 13:19:12","226680"
"A1AR5OZLXIF9","cs_wg_rev_conf_pilot1","3F0BG9B9MPOIC55IFHFZQJU5L397YK","15","0","PICTURE","6","ARCADE","6","1","1457",,,,,"0","2018-09-27 13:19:14","226681"
"A1AR5OZLXIF9","cs_wg_rev_conf_pilot1","3F0BG9B9MPOIC55IFHFZQJU5L397YK","16","0","PICTURE","6","MONKEY","8","1","976",,,,,"0","2018-09-27 13:19:17","226682"
"A1AR5OZLXIF9","cs_wg_rev_conf_pilot1","3F0BG9B9MPOIC55IFHFZQJU5L397YK","17","0","PICTURE","6","PUMPKIN","1","0","1362",,,,,"0","2018-09-27 13:19:20","226683"
"A1AR5OZLXIF9","cs_wg_rev_conf_pilot1","3F0BG9B9MPOIC55IFHFZQJU5L397YK","18","0","PICTURE","6","PUMPKIN","1","0","633",,,,,"0","2018-09-27 13:19:22","226684"
"A1AR5OZLXIF9","cs_wg_rev_conf_pilot1","3F0BG9B9MPOIC55IFHFZQJU5L397YK","19","0","MONKEY","8","PICTURE","6","0","1093",,,,,"0","2018-09-27 13:19:24","226685"
"A1AR5OZLXIF9","cs_wg_rev_conf_pilot1","3F0BG9B9MPOIC55IFHFZQJU5L397YK","20","0","ARCADE","6","MONKEY","8","1","681",,,,,"0","2018-09-27 13:19:26","226686"
"A1AR5OZLXIF9","cs_wg_rev_conf_pilot1","3F0BG9B9MPOIC55IFHFZQJU5L397YK","21","0","PUMPKIN","1","ARCADE","6","0","921",,,,,"0","2018-09-27 13:19:28","226687"
"A1AR5OZLXIF9","cs_wg_rev_conf_pilot1","3F0BG9B9MPOIC55IFHFZQJU5L397YK","22","0","ARCADE","6","PUMPKIN","1","0","777",,,,,"0","2018-09-27 13:19:30","226688"
"A1AR5OZLXIF9","cs_wg_rev_conf_pilot1","3F0BG9B9MPOIC55IFHFZQJU5L397YK","23","0","CRICKET","15","ARCADE","6","0","736",,,,,"0","2018-09-27 13:19:32","226689"
"A1AR5OZLXIF9","cs_wg_rev_conf_pilot1","3F0BG9B9MPOIC55IFHFZQJU5L397YK","24","0","MONKEY","8","CRICKET","15","1","745",,,,,"0","2018-09-27 13:19:34","226690"
"A1AR5OZLXIF9","cs_wg_rev_conf_pilot1","3F0BG9B9MPOIC55IFHFZQJU5L397YK","25","0","ARCADE","6","PICTURE","6","0","1944",,,,,"0","2018-09-27 13:19:37","226691"
"A1DBCHREMYNOVT","cs_wg_rev_conf_pilot1","3B1NLC6UGZX7WKOIHXNAJ5EMG1OPGA","0","0","POTATO","7","SMOKER","8","1","19887",,,,,"1","2018-09-27 13:19:38","226692"
"A1AR5OZLXIF9","cs_wg_rev_conf_pilot1","3F0BG9B9MPOIC55IFHFZQJU5L397YK","26","0","PUMPKIN","1","CRICKET","15","1","1066",,,,,"0","2018-09-27 13:19:40","226693"
"A1AR5OZLXIF9","cs_wg_rev_conf_pilot1","3F0BG9B9MPOIC55IFHFZQJU5L397YK","27","0","CRICKET","15","ARCADE","6","0","753",,,,,"0","2018-09-27 13:19:42","226694"
"A1AR5OZLXIF9","cs_wg_rev_conf_pilot1","3F0BG9B9MPOIC55IFHFZQJU5L397YK","28","0","PUMPKIN","1","ARCADE","6","1","1345",,,,,"0","2018-09-27 13:19:45","226695"
"A1AR5OZLXIF9","cs_wg_rev_conf_pilot1","3F0BG9B9MPOIC55IFHFZQJU5L397YK","29","0","ARCADE","6","CRICKET","15","0","681",,,,,"0","2018-09-27 13:19:47","226696"
"A1DBCHREMYNOVT","cs_wg_rev_conf_pilot1","3B1NLC6UGZX7WKOIHXNAJ5EMG1OPGA","1","0","TOMATO","6","CANCER","7","1","6482",,,,,"1","2018-09-27 13:19:48","226697"
"A1AR5OZLXIF9","cs_wg_rev_conf_pilot1","3F0BG9B9MPOIC55IFHFZQJU5L397YK","30","0","MONKEY","8","PUMPKIN","1","1","1048",,,,,"0","2018-09-27 13:19:49","226698"
"A1AR5OZLXIF9","cs_wg_rev_conf_pilot1","3F0BG9B9MPOIC55IFHFZQJU5L397YK","31","0","MONKEY","8","ARCADE","6","0","609",,,,,"0","2018-09-27 13:19:51","226699"
"A1AR5OZLXIF9","cs_wg_rev_conf_pilot1","3F0BG9B9MPOIC55IFHFZQJU5L397YK","32","0","CRICKET","15","PICTURE","6","0","513",,,,,"0","2018-09-27 13:19:52","226700"
"A1AR5OZLXIF9","cs_wg_rev_conf_pilot1","3F0BG9B9MPOIC55IFHFZQJU5L397YK","33","0","PICTURE","6","MONKEY","8","1","616",,,,,"0","2018-09-27 13:19:54","226701"
"A1DBCHREMYNOVT","cs_wg_rev_conf_pilot1","3B1NLC6UGZX7WKOIHXNAJ5EMG1OPGA","2","0","BAMBOO","5","BICYCLE","5","1","4622",,,,,"1","2018-09-27 13:19:55","226702"
"A1AR5OZLXIF9","cs_wg_rev_conf_pilot1","3F0BG9B9MPOIC55IFHFZQJU5L397YK","34","0","PICTURE","6","CRICKET","15","1","896",,,,,"0","2018-09-27 13:19:56","226703"
"A1AR5OZLXIF9","cs_wg_rev_conf_pilot1","3F0BG9B9MPOIC55IFHFZQJU5L397YK","35","0","MONKEY","8","PICTURE","6","0","609",,,,,"0","2018-09-27 13:19:58","226704"
"A2R9VWNAOREXQ7","cs_wg_rev_conf_pilot1","3E4GGUZ1T8SG6ZJV5QXDLKYMC8E2K4","0","0","AIRBAG","6","GARBAGE","7","1","7810",,,,,"1","2018-09-27 13:20:01","226705"
"A1AR5OZLXIF9","cs_wg_rev_conf_pilot1","3F0BG9B9MPOIC55IFHFZQJU5L397YK","36","0","PICTURE","6","ARCADE","6","0","1120",,,,,"0","2018-09-27 13:20:01","226706"
"A1DBCHREMYNOVT","cs_wg_rev_conf_pilot1","3B1NLC6UGZX7WKOIHXNAJ5EMG1OPGA","3","0","MONKEY","15","GARBAGE","6","0","4175",,,,,"1","2018-09-27 13:20:02","226707"
"A1AR5OZLXIF9","cs_wg_rev_conf_pilot1","3F0BG9B9MPOIC55IFHFZQJU5L397YK","37","0","MONKEY","8","CRICKET","15","1","985",,,,,"0","2018-09-27 13:20:03","226708"
"A1DBCHREMYNOVT","cs_wg_rev_conf_pilot1","3B1NLC6UGZX7WKOIHXNAJ5EMG1OPGA","4","0","TOMATO","6","POTATO","7","1","2954",,,,,"1","2018-09-27 13:20:07","226709"
"A1AR5OZLXIF9","cs_wg_rev_conf_pilot1","3F0BG9B9MPOIC55IFHFZQJU5L397YK","38","0","PUMPKIN","1","MONKEY","8","1","3170",,,,,"0","2018-09-27 13:20:08","226710"
"A1AR5OZLXIF9","cs_wg_rev_conf_pilot1","3F0BG9B9MPOIC55IFHFZQJU5L397YK","39","0","CRICKET","15","MONKEY","8","0","833",,,,,"0","2018-09-27 13:20:10","226711"
"A2R9VWNAOREXQ7","cs_wg_rev_conf_pilot1","3E4GGUZ1T8SG6ZJV5QXDLKYMC8E2K4","1","0","CHICKEN","8","GRENADE","5","0","5470",,,,,"1","2018-09-27 13:20:10","226712"
"A1AR5OZLXIF9","cs_wg_rev_conf_pilot1","3F0BG9B9MPOIC55IFHFZQJU5L397YK","40","0","CRICKET","15","MONKEY","8","0","441",,,,,"0","2018-09-27 13:20:12","226713"
"A1DBCHREMYNOVT","cs_wg_rev_conf_pilot1","3B1NLC6UGZX7WKOIHXNAJ5EMG1OPGA","5","0","GARBAGE","6","PALACE","7","1","3800",,,,,"1","2018-09-27 13:20:13","226714"
"A1AR5OZLXIF9","cs_wg_rev_conf_pilot1","3F0BG9B9MPOIC55IFHFZQJU5L397YK","41","0","PUMPKIN","1","PICTURE","6","0","1185",,,,,"0","2018-09-27 13:20:14","226715"
"A2R9VWNAOREXQ7","cs_wg_rev_conf_pilot1","3E4GGUZ1T8SG6ZJV5QXDLKYMC8E2K4","2","0","GARBAGE","7","AIRBAG","6","0","4045",,,,,"1","2018-09-27 13:20:17","226716"
"A9MYSUUW9EU9N","cs_wg_rev_conf_pilot1","3SNLUL3WO4O0AHAF9AJK636TKZ2ULH","0","0","PUMPKIN","15","BAMBOO","6","0","16700",,,,,"1","2018-09-27 13:20:18","226717"
"A1AR5OZLXIF9","cs_wg_rev_conf_pilot1","3F0BG9B9MPOIC55IFHFZQJU5L397YK","42","0","PUMPKIN","1","MONKEY","8","1","1969",,,,,"0","2018-09-27 13:20:18","226718"
"A1AR5OZLXIF9","cs_wg_rev_conf_pilot1","3F0BG9B9MPOIC55IFHFZQJU5L397YK","43","0","PUMPKIN","1","CRICKET","15","1","874",,,,,"0","2018-09-27 13:20:20","226719"
"A1DBCHREMYNOVT","cs_wg_rev_conf_pilot1","3B1NLC6UGZX7WKOIHXNAJ5EMG1OPGA","6","0","POTATO","7","PALACE","7","1","4295",,,,,"1","2018-09-27 13:20:20","226720"
"A1AR5OZLXIF9","cs_wg_rev_conf_pilot1","3F0BG9B9MPOIC55IFHFZQJU5L397YK","44","0","ARCADE","6","PUMPKIN","1","0","1272",,,,,"0","2018-09-27 13:20:22","226721"
"A2R9VWNAOREXQ7","cs_wg_rev_conf_pilot1","3E4GGUZ1T8SG6ZJV5QXDLKYMC8E2K4","3","0","VOLCANO","7","COWBOY","5","0","2783",,,,,"1","2018-09-27 13:20:23","226722"
"A9MYSUUW9EU9N","cs_wg_rev_conf_pilot1","3SNLUL3WO4O0AHAF9AJK636TKZ2ULH","1","0","PUMPKIN","15","BASKET","1","0","4197",,,,,"1","2018-09-27 13:20:24","226723"
"A1AR5OZLXIF9","cs_wg_rev_conf_pilot1","3F0BG9B9MPOIC55IFHFZQJU5L397YK","45","0","CRICKET","15","PUMPKIN","1","0","710",,,,,"0","2018-09-27 13:20:24","226724"
"A1DBCHREMYNOVT","cs_wg_rev_conf_pilot1","3B1NLC6UGZX7WKOIHXNAJ5EMG1OPGA","7","0","BAMBOO","5","PICKLE","1","0","2820",,,,,"1","2018-09-27 13:20:25","226725"
"A1AR5OZLXIF9","cs_wg_rev_conf_pilot1","3F0BG9B9MPOIC55IFHFZQJU5L397YK","46","0","MONKEY","8","PICTURE","6","0","840",,,,,"0","2018-09-27 13:20:27","226726"
"A1PBSK32TV6H45","cs_wg_rev_conf_pilot1","345LHZDEDXTJUDKQ34FKAHCCKDC3UD","0","0","CHICKEN","1","SPATULA","6","0","10822",,,,,"0","2018-09-27 13:20:27","226727"
"A1AR5OZLXIF9","cs_wg_rev_conf_pilot1","3F0BG9B9MPOIC55IFHFZQJU5L397YK","47","0","ARCADE","6","CRICKET","15","1","616",,,,,"0","2018-09-27 13:20:28","226728"
"A5I193MWA21PS","cs_wg_rev_conf_pilot1","3PEIJLRY6TU82FG9IT19ZLMDCONXW5","0","0","BUCKET","8","BLANKET","15","1","7252",,,,,"1","2018-09-27 13:20:29","226729"
"A1DBCHREMYNOVT","cs_wg_rev_conf_pilot1","3B1NLC6UGZX7WKOIHXNAJ5EMG1OPGA","8","0","ACROBAT","5","PICKLE","1","0","2268",,,,,"1","2018-09-27 13:20:29","226730"
"A2R9VWNAOREXQ7","cs_wg_rev_conf_pilot1","3E4GGUZ1T8SG6ZJV5QXDLKYMC8E2K4","4","0","PICTURE","6","AIRBAG","6","0","4193",,,,,"1","2018-09-27 13:20:29","226731"
"A1PBSK32TV6H45","cs_wg_rev_conf_pilot1","345LHZDEDXTJUDKQ34FKAHCCKDC3UD","1","0","COWBOY","7","BAMBOO","6","0","710",,,,,"0","2018-09-27 13:20:30","226732"
"A1AR5OZLXIF9","cs_wg_rev_conf_pilot1","3F0BG9B9MPOIC55IFHFZQJU5L397YK","48","0","ARCADE","6","PUMPKIN","1","0","1505",,,,,"0","2018-09-27 13:20:32","226733"
"A1PBSK32TV6H45","cs_wg_rev_conf_pilot1","345LHZDEDXTJUDKQ34FKAHCCKDC3UD","2","0","CHICKEN","1","BASKET","15","1","1936",,,,,"0","2018-09-27 13:20:34","226734"
"A1AR5OZLXIF9","cs_wg_rev_conf_pilot1","3F0BG9B9MPOIC55IFHFZQJU5L397YK","49","0","ARCADE","6","MONKEY","8","1","720",,,,,"0","2018-09-27 13:20:34","226735"
"A1DBCHREMYNOVT","cs_wg_rev_conf_pilot1","3B1NLC6UGZX7WKOIHXNAJ5EMG1OPGA","9","0","PICKLE","1","BAMBOO","5","1","3287",,,,,"1","2018-09-27 13:20:35","226736"
"A2R9VWNAOREXQ7","cs_wg_rev_conf_pilot1","3E4GGUZ1T8SG6ZJV5QXDLKYMC8E2K4","5","0","GARBAGE","7","ISLAND","7","0","3530",,,,,"1","2018-09-27 13:20:36","226737"
"A1AR5OZLXIF9","cs_wg_rev_conf_pilot1","3F0BG9B9MPOIC55IFHFZQJU5L397YK","50","0","MONKEY","8","ARCADE","6","0","530",,,,,"0","2018-09-27 13:20:36","226738"
"A5I193MWA21PS","cs_wg_rev_conf_pilot1","3PEIJLRY6TU82FG9IT19ZLMDCONXW5","1","0","PENGUIN","6","BAMBOO","6","0","4016",,,,,"1","2018-09-27 13:20:36","226739"
"A9MYSUUW9EU9N","cs_wg_rev_conf_pilot1","3SNLUL3WO4O0AHAF9AJK636TKZ2ULH","2","0","SPATULA","6","JACKET","8","1","7978",,,,,"1","2018-09-27 13:20:36","226740"
"A1PBSK32TV6H45","cs_wg_rev_conf_pilot1","345LHZDEDXTJUDKQ34FKAHCCKDC3UD","3","0","BASKET","15","COWBOY","7","1","607",,,,,"0","2018-09-27 13:20:37","226741"
"A1ZCKK5SH4WACZ","cs_wg_rev_conf_pilot1","3TEM0PF1Q5Y1WJA7YM7CYJAHV1XD0I","0","0","CANCER","7","SMOKER","15","1","7394",,,,,"0","2018-09-27 13:20:37","226742"
"A1AR5OZLXIF9","cs_wg_rev_conf_pilot1","3F0BG9B9MPOIC55IFHFZQJU5L397YK","51","0","PICTURE","6","PUMPKIN","1","0","1577",,,,,"0","2018-09-27 13:20:39","226743"
"A1PBSK32TV6H45","cs_wg_rev_conf_pilot1","345LHZDEDXTJUDKQ34FKAHCCKDC3UD","4","0","ACROBAT","7","PEBBLE","7","0","458",,,,,"0","2018-09-27 13:20:40","226744"
"A1HOBE19VQET60","cs_wg_rev_conf_pilot1","3G5F9DBFOPYY10GPNFERAXF5HP2VH0","0","0","JACKET","1","RABBIT","7","0","9887",,,,,"0","2018-09-27 13:20:40","226745"
"A1DBCHREMYNOVT","cs_wg_rev_conf_pilot1","3B1NLC6UGZX7WKOIHXNAJ5EMG1OPGA","10","0","BAMBOO","5","ACROBAT","5","0","3224",,,,,"1","2018-09-27 13:20:40","226746"
"A1AR5OZLXIF9","cs_wg_rev_conf_pilot1","3F0BG9B9MPOIC55IFHFZQJU5L397YK","52","0","CRICKET","15","PICTURE","6","0","664",,,,,"0","2018-09-27 13:20:41","226747"
"A3K4JTRUZQD096","cs_wg_rev_conf_pilot1","3AMW0RGHOD3D6C5441059PNJHDAPNI","0","0","LIZARD","6","BANANA","7","1","7100",,,,,"0","2018-09-27 13:20:41","226748"
"A2R9VWNAOREXQ7","cs_wg_rev_conf_pilot1","3E4GGUZ1T8SG6ZJV5QXDLKYMC8E2K4","6","0","RABBIT","6","GARBAGE","7","1","3874",,,,,"1","2018-09-27 13:20:42","226749"
"A5I193MWA21PS","cs_wg_rev_conf_pilot1","3PEIJLRY6TU82FG9IT19ZLMDCONXW5","2","0","BLANKET","15","MONKEY","1","0","3685",,,,,"1","2018-09-27 13:20:42","226750"
"A1AR5OZLXIF9","cs_wg_rev_conf_pilot1","3F0BG9B9MPOIC55IFHFZQJU5L397YK","53","0","CRICKET","15","PICTURE","6","0","360",,,,,"0","2018-09-27 13:20:43","226751"
"A1PBSK32TV6H45","cs_wg_rev_conf_pilot1","345LHZDEDXTJUDKQ34FKAHCCKDC3UD","5","0","SQUARE","6","ACROBAT","7","1","1210",,,,,"0","2018-09-27 13:20:43","226752"
"A3DZ46U9XRLVBI","cs_wg_rev_conf_pilot1","39LNWE0K4UXYKG29O7M7ENE13V8UI3","0","0","GARBAGE","5","CANCER","7","1","8439",,,,,"1","2018-09-27 13:20:43","226753"
"A1AR5OZLXIF9","cs_wg_rev_conf_pilot1","3F0BG9B9MPOIC55IFHFZQJU5L397YK","54","0","PICTURE","6","MONKEY","8","1","544",,,,,"0","2018-09-27 13:20:44","226754"
"A1PBSK32TV6H45","cs_wg_rev_conf_pilot1","345LHZDEDXTJUDKQ34FKAHCCKDC3UD","6","0","CANCER","5","BAMBOO","6","0","267",,,,,"0","2018-09-27 13:20:45","226755"
"A9MYSUUW9EU9N","cs_wg_rev_conf_pilot1","3SNLUL3WO4O0AHAF9AJK636TKZ2ULH","3","0","SPATULA","6","PUMPKIN","15","1","6045",,,,,"1","2018-09-27 13:20:45","226756"
"A1ZCKK5SH4WACZ","cs_wg_rev_conf_pilot1","3TEM0PF1Q5Y1WJA7YM7CYJAHV1XD0I","1","0","BANQUET","6","BLANKET","8","0","3846",,,,,"0","2018-09-27 13:20:46","226757"
"A1HOBE19VQET60","cs_wg_rev_conf_pilot1","3G5F9DBFOPYY10GPNFERAXF5HP2VH0","1","0","PUMPKIN","8","PELICAN","7","0","3521",,,,,"0","2018-09-27 13:20:46","226758"
"A1DBCHREMYNOVT","cs_wg_rev_conf_pilot1","3B1NLC6UGZX7WKOIHXNAJ5EMG1OPGA","11","0","POTATO","7","GARBAGE","6","0","4391",,,,,"1","2018-09-27 13:20:47","226759"
"A1AR5OZLXIF9","cs_wg_rev_conf_pilot1","3F0BG9B9MPOIC55IFHFZQJU5L397YK","55","0","CRICKET","15","MONKEY","8","0","1169",,,,,"0","2018-09-27 13:20:47","226760"
"A1PBSK32TV6H45","cs_wg_rev_conf_pilot1","345LHZDEDXTJUDKQ34FKAHCCKDC3UD","7","0","GARBAGE","5","SQUARE","6","1","356",,,,,"0","2018-09-27 13:20:47","226761"
"A2R9VWNAOREXQ7","cs_wg_rev_conf_pilot1","3E4GGUZ1T8SG6ZJV5QXDLKYMC8E2K4","7","0","CHICKEN","8","RABBIT","6","0","3474",,,,,"1","2018-09-27 13:20:48","226762"
"A1AR5OZLXIF9","cs_wg_rev_conf_pilot1","3F0BG9B9MPOIC55IFHFZQJU5L397YK","56","0","MONKEY","8","ARCADE","6","0","688",,,,,"0","2018-09-27 13:20:49","226763"
"A1PBSK32TV6H45","cs_wg_rev_conf_pilot1","345LHZDEDXTJUDKQ34FKAHCCKDC3UD","8","0","ACROBAT","7","SPATULA","6","1","333",,,,,"0","2018-09-27 13:20:49","226764"
"A5I193MWA21PS","cs_wg_rev_conf_pilot1","3PEIJLRY6TU82FG9IT19ZLMDCONXW5","3","0","MONKEY","1","BUCKET","8","1","4459",,,,,"1","2018-09-27 13:20:50","226765"
"A3DZ46U9XRLVBI","cs_wg_rev_conf_pilot1","39LNWE0K4UXYKG29O7M7ENE13V8UI3","1","0","ARCADE","7","SUNBURN","6","0","3858",,,,,"1","2018-09-27 13:20:50","226766"
"A1AR5OZLXIF9","cs_wg_rev_conf_pilot1","3F0BG9B9MPOIC55IFHFZQJU5L397YK","57","0","PICTURE","6","CRICKET","15","1","817",,,,,"0","2018-09-27 13:20:51","226767"
"A9MYSUUW9EU9N","cs_wg_rev_conf_pilot1","3SNLUL3WO4O0AHAF9AJK636TKZ2ULH","4","0","SPATULA","6","BAMBOO","6","0","4866",,,,,"1","2018-09-27 13:20:52","226768"
"A3K4JTRUZQD096","cs_wg_rev_conf_pilot1","3AMW0RGHOD3D6C5441059PNJHDAPNI","1","0","ACROBAT","5","BANQUET","6","0","4683",,,,,"0","2018-09-27 13:20:52","226769"
"A1PBSK32TV6H45","cs_wg_rev_conf_pilot1","345LHZDEDXTJUDKQ34FKAHCCKDC3UD","9","0","ISLAND","5","PUMPKIN","8","1","364",,,,,"0","2018-09-27 13:20:52","226770"
"A1DBCHREMYNOVT","cs_wg_rev_conf_pilot1","3B1NLC6UGZX7WKOIHXNAJ5EMG1OPGA","12","0","GARBAGE","6","BAMBOO","5","0","2824",,,,,"1","2018-09-27 13:20:52","226771"
"A1HOBE19VQET60","cs_wg_rev_conf_pilot1","3G5F9DBFOPYY10GPNFERAXF5HP2VH0","2","0","PUMPKIN","8","BAMBOO","6","1","2850",,,,,"0","2018-09-27 13:20:52","226772"
"A2T79473SWZ0L6","cs_wg_rev_conf_pilot1","3IKZ72A5B4H1FZGAQY40XV9FF7OFN6","0","0","BLANKET","15","BASKET","8","0","12075",,,,,"1","2018-09-27 13:20:53","226773"
"A1AR5OZLXIF9","cs_wg_rev_conf_pilot1","3F0BG9B9MPOIC55IFHFZQJU5L397YK","58","0","MONKEY","8","CRICKET","15","0","505",,,,,"0","2018-09-27 13:20:53","226774"
"A1PBSK32TV6H45","cs_wg_rev_conf_pilot1","345LHZDEDXTJUDKQ34FKAHCCKDC3UD","10","0","COWBOY","7","SPATULA","6","0","323",,,,,"0","2018-09-27 13:20:54","226775"
"A2R9VWNAOREXQ7","cs_wg_rev_conf_pilot1","3E4GGUZ1T8SG6ZJV5QXDLKYMC8E2K4","8","0","PALACE","5","COWBOY","5","0","3392",,,,,"1","2018-09-27 13:20:54","226776"
"A1ZCKK5SH4WACZ","cs_wg_rev_conf_pilot1","3TEM0PF1Q5Y1WJA7YM7CYJAHV1XD0I","2","0","SQUARE","5","GARBAGE","7","0","5817",,,,,"0","2018-09-27 13:20:55","226777"
"A1PBSK32TV6H45","cs_wg_rev_conf_pilot1","345LHZDEDXTJUDKQ34FKAHCCKDC3UD","11","0","SPATULA","6","PUMPKIN","8","1","625",,,,,"0","2018-09-27 13:20:56","226778"
"A1AR5OZLXIF9","cs_wg_rev_conf_pilot1","3F0BG9B9MPOIC55IFHFZQJU5L397YK","59","0","ARCADE","6","MONKEY","8","1","1045",,,,,"0","2018-09-27 13:20:56","226779"
"A5I193MWA21PS","cs_wg_rev_conf_pilot1","3PEIJLRY6TU82FG9IT19ZLMDCONXW5","4","0","BLANKET","15","MONKEY","1","0","4520",,,,,"1","2018-09-27 13:20:56","226780"
"A1DBCHREMYNOVT","cs_wg_rev_conf_pilot1","3B1NLC6UGZX7WKOIHXNAJ5EMG1OPGA","13","0","PALACE","7","TOMATO","6","0","3106",,,,,"1","2018-09-27 13:20:57","226781"
"A3DZ46U9XRLVBI","cs_wg_rev_conf_pilot1","39LNWE0K4UXYKG29O7M7ENE13V8UI3","2","0","AVOCADO","5","CANCER","7","1","4953",,,,,"1","2018-09-27 13:20:58","226782"
"A9MYSUUW9EU9N","cs_wg_rev_conf_pilot1","3SNLUL3WO4O0AHAF9AJK636TKZ2ULH","5","0","BAMBOO","6","JACKET","8","1","3872",,,,,"1","2018-09-27 13:20:58","226783"
"A1HOBE19VQET60","cs_wg_rev_conf_pilot1","3G5F9DBFOPYY10GPNFERAXF5HP2VH0","3","0","PICTURE","6","PUMPKIN","8","1","2618",,,,,"0","2018-09-27 13:20:58","226784"
"A1PBSK32TV6H45","cs_wg_rev_conf_pilot1","345LHZDEDXTJUDKQ34FKAHCCKDC3UD","12","0","PEBBLE","7","CANCER","5","0","425",,,,,"0","2018-09-27 13:20:59","226785"
"A2R9VWNAOREXQ7","cs_wg_rev_conf_pilot1","3E4GGUZ1T8SG6ZJV5QXDLKYMC8E2K4","9","0","AIRBAG","6","PICTURE","6","0","2868",,,,,"1","2018-09-27 13:20:59","226786"
"A3K4JTRUZQD096","cs_wg_rev_conf_pilot1","3AMW0RGHOD3D6C5441059PNJHDAPNI","2","0","BANANA","7","ARCADE","5","0","3160",,,,,"0","2018-09-27 13:20:59","226787"
"A3GJ5C141DP5EQ","cs_wg_rev_conf_pilot1","3I0BTBYZAXM4UU5YUIUQB4KIDP30YD","0","0","PUMPKIN","8","CHICKEN","15","1","9352",,,,,"1","2018-09-27 13:21:00","226788"
"A1PBSK32TV6H45","cs_wg_rev_conf_pilot1","345LHZDEDXTJUDKQ34FKAHCCKDC3UD","13","0","CANCER","5","CHICKEN","1","1","111",,,,,"0","2018-09-27 13:21:00","226789"
"A1ZCKK5SH4WACZ","cs_wg_rev_conf_pilot1","3TEM0PF1Q5Y1WJA7YM7CYJAHV1XD0I","3","0","SMOKER","15","AVOCADO","7","0","2935",,,,,"0","2018-09-27 13:21:02","226790"
"A1DBCHREMYNOVT","cs_wg_rev_conf_pilot1","3B1NLC6UGZX7WKOIHXNAJ5EMG1OPGA","14","0","SMOKER","8","MONKEY","15","1","2800",,,,,"1","2018-09-27 13:21:02","226791"
"A1HOBE19VQET60","cs_wg_rev_conf_pilot1","3G5F9DBFOPYY10GPNFERAXF5HP2VH0","4","0","LIZARD","6","PUMPKIN","8","1","1925",,,,,"0","2018-09-27 13:21:02","226792"
"A1PBSK32TV6H45","cs_wg_rev_conf_pilot1","345LHZDEDXTJUDKQ34FKAHCCKDC3UD","14","0","CHICKEN","1","SQUARE","6","0","290",,,,,"0","2018-09-27 13:21:03","226793"
"A2T79473SWZ0L6","cs_wg_rev_conf_pilot1","3IKZ72A5B4H1FZGAQY40XV9FF7OFN6","1","0","PENGUIN","6","BUCKET","1","0","5992",,,,,"1","2018-09-27 13:21:03","226794"
"A33VERUJLZ8H6P","cs_wg_rev_conf_pilot1","3QILPRALQ5WS0K6NIKYUN3STS3AN8W","0","0","BUCKET","15","SUNBURN","6","1","6265",,,,,"0","2018-09-27 13:21:03","226795"
"A5I193MWA21PS","cs_wg_rev_conf_pilot1","3PEIJLRY6TU82FG9IT19ZLMDCONXW5","5","0","MONKEY","1","BUCKET","8","1","5013",,,,,"0","2018-09-27 13:21:04","226796"
"A1PBSK32TV6H45","cs_wg_rev_conf_pilot1","345LHZDEDXTJUDKQ34FKAHCCKDC3UD","15","0","BAMBOO","6","SQUARE","6","0","287",,,,,"0","2018-09-27 13:21:05","226797"
"A2R9VWNAOREXQ7","cs_wg_rev_conf_pilot1","3E4GGUZ1T8SG6ZJV5QXDLKYMC8E2K4","10","0","VOLCANO","7","RABBIT","6","0","2817",,,,,"1","2018-09-27 13:21:05","226798"
"A3K4JTRUZQD096","cs_wg_rev_conf_pilot1","3AMW0RGHOD3D6C5441059PNJHDAPNI","3","0","CANCER","6","LIZARD","6","1","3100",,,,,"0","2018-09-27 13:21:05","226799"
"A1PBSK32TV6H45","cs_wg_rev_conf_pilot1","345LHZDEDXTJUDKQ34FKAHCCKDC3UD","16","0","PUMPKIN","8","BAMBOO","6","0","310",,,,,"0","2018-09-27 13:21:07","226800"
"A1APRIR2E2D5YZ","cs_wg_rev_conf_pilot1","3OJSZ2ATDSXKAHVY4FA2FMWCQY5572","0","0","ARCADE","7","TURKEY","15","0","6907",,,,,"0","2018-09-27 13:21:07","226801"
"A3DZ46U9XRLVBI","cs_wg_rev_conf_pilot1","39LNWE0K4UXYKG29O7M7ENE13V8UI3","3","0","TOMATO","6","CANCER","7","1","4045",,,,,"1","2018-09-27 13:21:07","226802"
"A1DBCHREMYNOVT","cs_wg_rev_conf_pilot1","3B1NLC6UGZX7WKOIHXNAJ5EMG1OPGA","15","0","SMOKER","8","BICYCLE","5","0","3714",,,,,"1","2018-09-27 13:21:08","226803"
"A1HOBE19VQET60","cs_wg_rev_conf_pilot1","3G5F9DBFOPYY10GPNFERAXF5HP2VH0","5","0","JACKET","1","PUMPKIN","8","1","3239",,,,,"0","2018-09-27 13:21:08","226804"
"A1PBSK32TV6H45","cs_wg_rev_conf_pilot1","345LHZDEDXTJUDKQ34FKAHCCKDC3UD","17","0","CANCER","5","ACROBAT","7","0","651",,,,,"0","2018-09-27 13:21:09","226805"
"A2T79473SWZ0L6","cs_wg_rev_conf_pilot1","3IKZ72A5B4H1FZGAQY40XV9FF7OFN6","2","0","BLANKET","15","VOLCANO","6","0","3551",,,,,"1","2018-09-27 13:21:09","226806"
"A33VERUJLZ8H6P","cs_wg_rev_conf_pilot1","3QILPRALQ5WS0K6NIKYUN3STS3AN8W","1","0","CHICKEN","1","POTATO","6","1","3516",,,,,"0","2018-09-27 13:21:10","226807"
"A5I193MWA21PS","cs_wg_rev_conf_pilot1","3PEIJLRY6TU82FG9IT19ZLMDCONXW5","6","0","MONKEY","1","BLANKET","15","1","2627",,,,,"0","2018-09-27 13:21:10","226808"
"A2R9VWNAOREXQ7","cs_wg_rev_conf_pilot1","3E4GGUZ1T8SG6ZJV5QXDLKYMC8E2K4","11","0","PICTURE","6","BUCKET","1","0","2560",,,,,"1","2018-09-27 13:21:10","226809"
"A1ZCKK5SH4WACZ","cs_wg_rev_conf_pilot1","3TEM0PF1Q5Y1WJA7YM7CYJAHV1XD0I","4","0","BUCKET","1","RABBIT","5","1","5970",,,,,"1","2018-09-27 13:21:11","226810"
"A3K4JTRUZQD096","cs_wg_rev_conf_pilot1","3AMW0RGHOD3D6C5441059PNJHDAPNI","4","0","ACROBAT","5","TOMATO","5","0","2873",,,,,"0","2018-09-27 13:21:11","226811"
"A1PBSK32TV6H45","cs_wg_rev_conf_pilot1","345LHZDEDXTJUDKQ34FKAHCCKDC3UD","18","0","PUMPKIN","8","SQUARE","6","1","306",,,,,"0","2018-09-27 13:21:11","226812"
"A1DBCHREMYNOVT","cs_wg_rev_conf_pilot1","3B1NLC6UGZX7WKOIHXNAJ5EMG1OPGA","16","0","PALACE","7","PICKLE","1","0","3063",,,,,"1","2018-09-27 13:21:13","226813"
"A3GJ5C141DP5EQ","cs_wg_rev_conf_pilot1","3I0BTBYZAXM4UU5YUIUQB4KIDP30YD","1","0","PUMPKIN","8","PENGUIN","6","0","10332",,,,,"1","2018-09-27 13:21:13","226814"
"A1PBSK32TV6H45","cs_wg_rev_conf_pilot1","345LHZDEDXTJUDKQ34FKAHCCKDC3UD","19","0","BASKET","15","GARBAGE","5","0","293",,,,,"0","2018-09-27 13:21:13","226815"
"A3DZ46U9XRLVBI","cs_wg_rev_conf_pilot1","39LNWE0K4UXYKG29O7M7ENE13V8UI3","4","0","SUNBURN","6","COMPANY","6","0","4179",,,,,"1","2018-09-27 13:21:14","226816"
"A9MYSUUW9EU9N","cs_wg_rev_conf_pilot1","3SNLUL3WO4O0AHAF9AJK636TKZ2ULH","6","0","JACKET","8","BAMBOO","6","0","14686",,,,,"1","2018-09-27 13:21:14","226817"
"A1HOBE19VQET60","cs_wg_rev_conf_pilot1","3G5F9DBFOPYY10GPNFERAXF5HP2VH0","6","0","POTATO","7","VOLCANO","5","1","4716",,,,,"0","2018-09-27 13:21:15","226818"
"A1PBSK32TV6H45","cs_wg_rev_conf_pilot1","345LHZDEDXTJUDKQ34FKAHCCKDC3UD","20","0","PEBBLE","7","BASKET","15","0","266",,,,,"0","2018-09-27 13:21:15","226819"
"A1APRIR2E2D5YZ","cs_wg_rev_conf_pilot1","3OJSZ2ATDSXKAHVY4FA2FMWCQY5572","1","0","ARCADE","7","SPATULA","6","0","5003",,,,,"0","2018-09-27 13:21:16","226820"
"A33VERUJLZ8H6P","cs_wg_rev_conf_pilot1","3QILPRALQ5WS0K6NIKYUN3STS3AN8W","2","0","GRENADE","5","CANCER","7","1","3631",,,,,"0","2018-09-27 13:21:16","226821"
"A2R9VWNAOREXQ7","cs_wg_rev_conf_pilot1","3E4GGUZ1T8SG6ZJV5QXDLKYMC8E2K4","12","0","COWBOY","5","AIRBAG","6","1","3266",,,,,"1","2018-09-27 13:21:16","226822"
"A1ZCKK5SH4WACZ","cs_wg_rev_conf_pilot1","3TEM0PF1Q5Y1WJA7YM7CYJAHV1XD0I","5","0","BLANKET","8","COMPANY","6","0","2998",,,,,"0","2018-09-27 13:21:17","226823"
"A3K4JTRUZQD096","cs_wg_rev_conf_pilot1","3AMW0RGHOD3D6C5441059PNJHDAPNI","5","0","BANANA","7","PALACE","7","0","3029",,,,,"0","2018-09-27 13:21:17","226824"
"A5I193MWA21PS","cs_wg_rev_conf_pilot1","3PEIJLRY6TU82FG9IT19ZLMDCONXW5","7","0","PENGUIN","6","BAMBOO","6","0","4324",,,,,"1","2018-09-27 13:21:17","226825"
"A1PBSK32TV6H45","cs_wg_rev_conf_pilot1","345LHZDEDXTJUDKQ34FKAHCCKDC3UD","21","0","BASKET","15","CHICKEN","1","0","333",,,,,"0","2018-09-27 13:21:18","226826"
"A1DBCHREMYNOVT","cs_wg_rev_conf_pilot1","3B1NLC6UGZX7WKOIHXNAJ5EMG1OPGA","17","0","CANCER","7","POTATO","7","1","4237",,,,,"1","2018-09-27 13:21:19","226827"
"A2T79473SWZ0L6","cs_wg_rev_conf_pilot1","3IKZ72A5B4H1FZGAQY40XV9FF7OFN6","3","0","BUCKET","1","BLANKET","15","1","8403",,,,,"1","2018-09-27 13:21:20","226828"
"A3GJ5C141DP5EQ","cs_wg_rev_conf_pilot1","3I0BTBYZAXM4UU5YUIUQB4KIDP30YD","2","0","PUMPKIN","8","PALACE","6","0","4142",,,,,"1","2018-09-27 13:21:20","226829"
"A9MYSUUW9EU9N","cs_wg_rev_conf_pilot1","3SNLUL3WO4O0AHAF9AJK636TKZ2ULH","7","0","BASKET","1","SPATULA","6","1","3045",,,,,"1","2018-09-27 13:21:20","226830"
"A1PBSK32TV6H45","cs_wg_rev_conf_pilot1","345LHZDEDXTJUDKQ34FKAHCCKDC3UD","22","0","GARBAGE","5","CANCER","5","1","586",,,,,"0","2018-09-27 13:21:20","226831"
"A1HOBE19VQET60","cs_wg_rev_conf_pilot1","3G5F9DBFOPYY10GPNFERAXF5HP2VH0","7","0","JACKET","1","VOLCANO","5","1","3131",,,,,"0","2018-09-27 13:21:21","226832"
"A2R9VWNAOREXQ7","cs_wg_rev_conf_pilot1","3E4GGUZ1T8SG6ZJV5QXDLKYMC8E2K4","13","0","CHICKEN","8","COWBOY","5","0","2538",,,,,"1","2018-09-27 13:21:21","226833"
"A1ZCKK5SH4WACZ","cs_wg_rev_conf_pilot1","3TEM0PF1Q5Y1WJA7YM7CYJAHV1XD0I","6","0","GARBAGE","7","BANQUET","6","0","1924",,,,,"0","2018-09-27 13:21:21","226834"
"A5I193MWA21PS","cs_wg_rev_conf_pilot1","3PEIJLRY6TU82FG9IT19ZLMDCONXW5","8","0","BUCKET","8","PENGUIN","6","0","2611",,,,,"0","2018-09-27 13:21:21","226835"
"A33VERUJLZ8H6P","cs_wg_rev_conf_pilot1","3QILPRALQ5WS0K6NIKYUN3STS3AN8W","3","0","GRENADE","5","CHICKEN","1","0","2580",,,,,"0","2018-09-27 13:21:22","226836"
"A3K4JTRUZQD096","cs_wg_rev_conf_pilot1","3AMW0RGHOD3D6C5441059PNJHDAPNI","6","0","ACROBAT","5","PALACE","7","0","2221",,,,,"0","2018-09-27 13:21:22","226837"
"A1APRIR2E2D5YZ","cs_wg_rev_conf_pilot1","3OJSZ2ATDSXKAHVY4FA2FMWCQY5572","2","0","PICKLE","1","BAMBOO","7","1","3157",,,,,"0","2018-09-27 13:21:22","226838"
"A3DZ46U9XRLVBI","cs_wg_rev_conf_pilot1","39LNWE0K4UXYKG29O7M7ENE13V8UI3","5","0","CRICKET","1","GARBAGE","5","1","5523",,,,,"1","2018-09-27 13:21:22","226839"
"A1PBSK32TV6H45","cs_wg_rev_conf_pilot1","345LHZDEDXTJUDKQ34FKAHCCKDC3UD","23","0","SPATULA","6","SQUARE","6","1","607",,,,,"0","2018-09-27 13:21:22","226840"
"A1DBCHREMYNOVT","cs_wg_rev_conf_pilot1","3B1NLC6UGZX7WKOIHXNAJ5EMG1OPGA","18","0","SMOKER","8","PALACE","7","0","3823",,,,,"1","2018-09-27 13:21:25","226841"
"A1PBSK32TV6H45","cs_wg_rev_conf_pilot1","345LHZDEDXTJUDKQ34FKAHCCKDC3UD","24","0","ISLAND","5","BASKET","15","0","661",,,,,"0","2018-09-27 13:21:25","226842"
"A1HOBE19VQET60","cs_wg_rev_conf_pilot1","3G5F9DBFOPYY10GPNFERAXF5HP2VH0","8","0","PELICAN","7","VOLCANO","5","1","1894",,,,,"0","2018-09-27 13:21:25","226843"
"A9MYSUUW9EU9N","cs_wg_rev_conf_pilot1","3SNLUL3WO4O0AHAF9AJK636TKZ2ULH","8","0","BAMBOO","6","JACKET","8","1","2278",,,,,"0","2018-09-27 13:21:25","226844"
"A3GJ5C141DP5EQ","cs_wg_rev_conf_pilot1","3I0BTBYZAXM4UU5YUIUQB4KIDP30YD","3","0","PALACE","6","CHICKEN","15","1","3874",,,,,"1","2018-09-27 13:21:26","226845"
"A1ZCKK5SH4WACZ","cs_wg_rev_conf_pilot1","3TEM0PF1Q5Y1WJA7YM7CYJAHV1XD0I","7","0","SMOKER","15","BUCKET","1","0","1834",,,,,"0","2018-09-27 13:21:26","226846"
"A2R9VWNAOREXQ7","cs_wg_rev_conf_pilot1","3E4GGUZ1T8SG6ZJV5QXDLKYMC8E2K4","14","0","GARBAGE","7","PALACE","5","0","2855",,,,,"1","2018-09-27 13:21:26","226847"
"A5I193MWA21PS","cs_wg_rev_conf_pilot1","3PEIJLRY6TU82FG9IT19ZLMDCONXW5","9","0","BLANKET","15","BUCKET","8","0","2018",,,,,"0","2018-09-27 13:21:27","226848"
"A1PBSK32TV6H45","cs_wg_rev_conf_pilot1","345LHZDEDXTJUDKQ34FKAHCCKDC3UD","25","0","ACROBAT","7","CANCER","5","1","406",,,,,"0","2018-09-27 13:21:27","226849"
"AT3CZ2VR5A5U1","cs_wg_rev_conf_pilot1","32ZKVD547FO4YEBK3DYP5RKOVS5B34","0","0","BLANKET","15","TOMATO","7","0","5389",,,,,"1","2018-09-27 13:21:27","226850"
"A33VERUJLZ8H6P","cs_wg_rev_conf_pilot1","3QILPRALQ5WS0K6NIKYUN3STS3AN8W","4","0","SUNBURN","6","AIRBAG","7","0","2884",,,,,"0","2018-09-27 13:21:27","226851"
"A3K4JTRUZQD096","cs_wg_rev_conf_pilot1","3AMW0RGHOD3D6C5441059PNJHDAPNI","7","0","PICKLE","15","ACROBAT","5","1","2499",,,,,"0","2018-09-27 13:21:28","226852"
"A1APRIR2E2D5YZ","cs_wg_rev_conf_pilot1","3OJSZ2ATDSXKAHVY4FA2FMWCQY5572","3","0","SQUARE","5","BAMBOO","7","0","3569",,,,,"0","2018-09-27 13:21:28","226853"
"A3DZ46U9XRLVBI","cs_wg_rev_conf_pilot1","39LNWE0K4UXYKG29O7M7ENE13V8UI3","6","0","GARBAGE","5","COMPANY","6","1","4065",,,,,"1","2018-09-27 13:21:29","226854"
"A1PBSK32TV6H45","cs_wg_rev_conf_pilot1","345LHZDEDXTJUDKQ34FKAHCCKDC3UD","26","0","SQUARE","6","CHICKEN","1","1","267",,,,,"0","2018-09-27 13:21:29","226855"
"A1HOBE19VQET60","cs_wg_rev_conf_pilot1","3G5F9DBFOPYY10GPNFERAXF5HP2VH0","9","0","BAMBOO","6","LIZARD","6","0","2170",,,,,"0","2018-09-27 13:21:29","226856"
"A9MYSUUW9EU9N","cs_wg_rev_conf_pilot1","3SNLUL3WO4O0AHAF9AJK636TKZ2ULH","9","0","BASKET","1","JACKET","8","1","2525",,,,,"1","2018-09-27 13:21:30","226857"
"A1DBCHREMYNOVT","cs_wg_rev_conf_pilot1","3B1NLC6UGZX7WKOIHXNAJ5EMG1OPGA","19","0","GARBAGE","6","CANCER","7","1","3230",,,,,"1","2018-09-27 13:21:30","226858"
"A1ZCKK5SH4WACZ","cs_wg_rev_conf_pilot1","3TEM0PF1Q5Y1WJA7YM7CYJAHV1XD0I","8","0","RABBIT","5","BUCKET","1","0","1717",,,,,"0","2018-09-27 13:21:31","226859"
"A1PBSK32TV6H45","cs_wg_rev_conf_pilot1","345LHZDEDXTJUDKQ34FKAHCCKDC3UD","27","0","CHICKEN","1","ACROBAT","7","1","304",,,,,"0","2018-09-27 13:21:31","226860"
"A2R9VWNAOREXQ7","cs_wg_rev_conf_pilot1","3E4GGUZ1T8SG6ZJV5QXDLKYMC8E2K4","15","0","RABBIT","6","VOLCANO","7","1","2391",,,,,"1","2018-09-27 13:21:31","226861"
"A5I193MWA21PS","cs_wg_rev_conf_pilot1","3PEIJLRY6TU82FG9IT19ZLMDCONXW5","10","0","BUCKET","8","MONKEY","1","0","1637",,,,,"0","2018-09-27 13:21:31","226862"
"A2T79473SWZ0L6","cs_wg_rev_conf_pilot1","3IKZ72A5B4H1FZGAQY40XV9FF7OFN6","4","0","BASKET","8","VOLCANO","6","0","5684",,,,,"1","2018-09-27 13:21:32","226863"
"AT3CZ2VR5A5U1","cs_wg_rev_conf_pilot1","32ZKVD547FO4YEBK3DYP5RKOVS5B34","1","0","ISLAND","7","PICKLE","1","0","3008",,,,,"1","2018-09-27 13:21:32","226864"
"A3GJ5C141DP5EQ","cs_wg_rev_conf_pilot1","3I0BTBYZAXM4UU5YUIUQB4KIDP30YD","4","0","CHICKEN","15","PUMPKIN","8","0","3937",,,,,"1","2018-09-27 13:21:32","226865"
"A33VERUJLZ8H6P","cs_wg_rev_conf_pilot1","3QILPRALQ5WS0K6NIKYUN3STS3AN8W","5","0","BUCKET","15","POTATO","6","1","2630",,,,,"0","2018-09-27 13:21:33","226866"
"A1PBSK32TV6H45","cs_wg_rev_conf_pilot1","345LHZDEDXTJUDKQ34FKAHCCKDC3UD","28","0","CANCER","5","SPATULA","6","1","317",,,,,"0","2018-09-27 13:21:33","226867"
"A9MYSUUW9EU9N","cs_wg_rev_conf_pilot1","3SNLUL3WO4O0AHAF9AJK636TKZ2ULH","10","0","BASKET","1","PUMPKIN","15","1","1497",,,,,"0","2018-09-27 13:21:33","226868"
"A1HOBE19VQET60","cs_wg_rev_conf_pilot1","3G5F9DBFOPYY10GPNFERAXF5HP2VH0","10","0","PUMPKIN","8","BLANKET","15","0","1901",,,,,"0","2018-09-27 13:21:34","226869"
"A3K4JTRUZQD096","cs_wg_rev_conf_pilot1","3AMW0RGHOD3D6C5441059PNJHDAPNI","8","0","AIRBAG","7","BLANKET","8","1","3228",,,,,"0","2018-09-27 13:21:34","226870"
"A1DBCHREMYNOVT","cs_wg_rev_conf_pilot1","3B1NLC6UGZX7WKOIHXNAJ5EMG1OPGA","20","0","POTATO","7","COSTUME","6","0","2996",,,,,"1","2018-09-27 13:21:35","226871"
"A1PBSK32TV6H45","cs_wg_rev_conf_pilot1","345LHZDEDXTJUDKQ34FKAHCCKDC3UD","29","0","COWBOY","7","GARBAGE","5","1","461",,,,,"0","2018-09-27 13:21:35","226872"
"A1APRIR2E2D5YZ","cs_wg_rev_conf_pilot1","3OJSZ2ATDSXKAHVY4FA2FMWCQY5572","4","0","TURKEY","15","CRICKET","8","0","2937",,,,,"0","2018-09-27 13:21:35","226873"
"A1ZCKK5SH4WACZ","cs_wg_rev_conf_pilot1","3TEM0PF1Q5Y1WJA7YM7CYJAHV1XD0I","9","0","BLANKET","8","CANCER","7","0","2347",,,,,"0","2018-09-27 13:21:36","226874"
"A2R9VWNAOREXQ7","cs_wg_rev_conf_pilot1","3E4GGUZ1T8SG6ZJV5QXDLKYMC8E2K4","16","0","BUCKET","1","RABBIT","6","1","2689",,,,,"1","2018-09-27 13:21:36","226875"
"A2T79473SWZ0L6","cs_wg_rev_conf_pilot1","3IKZ72A5B4H1FZGAQY40XV9FF7OFN6","5","0","BLANKET","15","BASKET","8","0","3046",,,,,"1","2018-09-27 13:21:37","226876"
"A9MYSUUW9EU9N","cs_wg_rev_conf_pilot1","3SNLUL3WO4O0AHAF9AJK636TKZ2ULH","11","0","BASKET","1","JACKET","8","1","1303",,,,,"0","2018-09-27 13:21:37","226877"
"A1PBSK32TV6H45","cs_wg_rev_conf_pilot1","345LHZDEDXTJUDKQ34FKAHCCKDC3UD","30","0","BASKET","15","PUMPKIN","8","1","289",,,,,"0","2018-09-27 13:21:37","226878"
"A2YJ0H0QAAQC8N","cs_wg_rev_conf_pilot1","3VP0C6EFSGXZEO2ZD4MWQA72HIB6MU","0","0","TURKEY","15","SQUARE","6","0","16474",,,,,"1","2018-09-27 13:21:37","226879"
"AT3CZ2VR5A5U1","cs_wg_rev_conf_pilot1","32ZKVD547FO4YEBK3DYP5RKOVS5B34","2","0","BLANKET","15","SQUARE","5","0","3028",,,,,"1","2018-09-27 13:21:37","226880"
"A3FOZW3TFS6KMN","cs_wg_rev_conf_pilot1","3Q8GYXHFEP3QMYQUVWIDV8OQR9W5CV","0","0","TURKEY","8","PENGUIN","6","0","8045",,,,,"1","2018-09-27 13:21:37","226881"
"A5I193MWA21PS","cs_wg_rev_conf_pilot1","3PEIJLRY6TU82FG9IT19ZLMDCONXW5","11","0","PENGUIN","6","BUCKET","8","1","3754",,,,,"0","2018-09-27 13:21:38","226882"
"A1HOBE19VQET60","cs_wg_rev_conf_pilot1","3G5F9DBFOPYY10GPNFERAXF5HP2VH0","11","0","PELICAN","7","BLANKET","15","1","2109",,,,,"0","2018-09-27 13:21:38","226883"
"A33VERUJLZ8H6P","cs_wg_rev_conf_pilot1","3QILPRALQ5WS0K6NIKYUN3STS3AN8W","6","0","POTATO","6","PALACE","6","1","3406",,,,,"0","2018-09-27 13:21:39","226884"
"A1APRIR2E2D5YZ","cs_wg_rev_conf_pilot1","3OJSZ2ATDSXKAHVY4FA2FMWCQY5572","5","0","TURKEY","15","PICKLE","1","0","1367",,,,,"0","2018-09-27 13:21:39","226885"
"A1PBSK32TV6H45","cs_wg_rev_conf_pilot1","345LHZDEDXTJUDKQ34FKAHCCKDC3UD","31","0","PUMPKIN","8","PEBBLE","7","0","339",,,,,"0","2018-09-27 13:21:39","226886"
"A1DBCHREMYNOVT","cs_wg_rev_conf_pilot1","3B1NLC6UGZX7WKOIHXNAJ5EMG1OPGA","21","0","BICYCLE","5","ACROBAT","5","0","2947",,,,,"1","2018-09-27 13:21:40","226887"
"A3K4JTRUZQD096","cs_wg_rev_conf_pilot1","3AMW0RGHOD3D6C5441059PNJHDAPNI","9","0","BANQUET","6","ARCADE","5","0","2992",,,,,"0","2018-09-27 13:21:40","226888"
"A9MYSUUW9EU9N","cs_wg_rev_conf_pilot1","3SNLUL3WO4O0AHAF9AJK636TKZ2ULH","12","0","BASKET","1","BAMBOO","6","1","1804",,,,,"0","2018-09-27 13:21:41","226889"
"A3DZ46U9XRLVBI","cs_wg_rev_conf_pilot1","39LNWE0K4UXYKG29O7M7ENE13V8UI3","7","0","AVOCADO","5","SUNBURN","6","1","3978",,,,,"1","2018-09-27 13:21:41","226890"
"A2R9VWNAOREXQ7","cs_wg_rev_conf_pilot1","3E4GGUZ1T8SG6ZJV5QXDLKYMC8E2K4","17","0","COWBOY","5","CHICKEN","8","1","2734",,,,,"1","2018-09-27 13:21:41","226891"
"A1PBSK32TV6H45","cs_wg_rev_conf_pilot1","345LHZDEDXTJUDKQ34FKAHCCKDC3UD","32","0","PEBBLE","7","ACROBAT","7","0","283",,,,,"0","2018-09-27 13:21:42","226892"
"AT3CZ2VR5A5U1","cs_wg_rev_conf_pilot1","32ZKVD547FO4YEBK3DYP5RKOVS5B34","3","0","PALACE","6","JACKET","8","1","2662",,,,,"1","2018-09-27 13:21:42","226893"
"A1HOBE19VQET60","cs_wg_rev_conf_pilot1","3G5F9DBFOPYY10GPNFERAXF5HP2VH0","12","0","LIZARD","6","BANANA","5","1","1814",,,,,"0","2018-09-27 13:21:42","226894"
"A1ZCKK5SH4WACZ","cs_wg_rev_conf_pilot1","3TEM0PF1Q5Y1WJA7YM7CYJAHV1XD0I","10","0","COWBOY","6","AVOCADO","7","1","5000",,,,,"1","2018-09-27 13:21:43","226895"
"A1PBSK32TV6H45","cs_wg_rev_conf_pilot1","345LHZDEDXTJUDKQ34FKAHCCKDC3UD","33","0","BAMBOO","6","BASKET","15","1","295",,,,,"0","2018-09-27 13:21:44","226896"
"A2VC1UC5Q0E9PO","cs_wg_rev_conf_pilot1","3YZ8UPK3VTN77DG9WXQL3KG6QQOUC1","0","0","BANQUET","6","CRICKET","1","0","7628",,,,,"0","2018-09-27 13:21:44","226897"
"A3FOZW3TFS6KMN","cs_wg_rev_conf_pilot1","3Q8GYXHFEP3QMYQUVWIDV8OQR9W5CV","1","0","BANANA","7","PENGUIN","6","0","4592",,,,,"1","2018-09-27 13:21:44","226898"
"A33VERUJLZ8H6P","cs_wg_rev_conf_pilot1","3QILPRALQ5WS0K6NIKYUN3STS3AN8W","7","0","AIRBAG","7","BUCKET","15","0","2679",,,,,"0","2018-09-27 13:21:44","226899"
"A3K4JTRUZQD096","cs_wg_rev_conf_pilot1","3AMW0RGHOD3D6C5441059PNJHDAPNI","10","0","PICKLE","15","BUCKET","1","0","2097",,,,,"0","2018-09-27 13:21:45","226900"
"A5I193MWA21PS","cs_wg_rev_conf_pilot1","3PEIJLRY6TU82FG9IT19ZLMDCONXW5","12","0","PENGUIN","6","BLANKET","15","1","3135",,,,,"0","2018-09-27 13:21:45","226901"
"A3GJ5C141DP5EQ","cs_wg_rev_conf_pilot1","3I0BTBYZAXM4UU5YUIUQB4KIDP30YD","5","0","PENGUIN","6","BUCKET","1","0","10472",,,,,"1","2018-09-27 13:21:45","226902"
"A9MYSUUW9EU9N","cs_wg_rev_conf_pilot1","3SNLUL3WO4O0AHAF9AJK636TKZ2ULH","13","0","BAMBOO","6","BASKET","1","0","2564",,,,,"0","2018-09-27 13:21:45","226903"
"A1APRIR2E2D5YZ","cs_wg_rev_conf_pilot1","3OJSZ2ATDSXKAHVY4FA2FMWCQY5572","6","0","BAMBOO","7","POTATO","5","1","3345",,,,,"0","2018-09-27 13:21:45","226904"
"A1PBSK32TV6H45","cs_wg_rev_conf_pilot1","345LHZDEDXTJUDKQ34FKAHCCKDC3UD","34","0","GARBAGE","5","BAMBOO","6","1","96",,,,,"0","2018-09-27 13:21:46","226905"
"A2R9VWNAOREXQ7","cs_wg_rev_conf_pilot1","3E4GGUZ1T8SG6ZJV5QXDLKYMC8E2K4","18","0","GARBAGE","7","RABBIT","6","0","2281",,,,,"1","2018-09-27 13:21:46","226906"
"AT3CZ2VR5A5U1","cs_wg_rev_conf_pilot1","32ZKVD547FO4YEBK3DYP5RKOVS5B34","4","0","TOMATO","7","SQUARE","5","0","1783",,,,,"1","2018-09-27 13:21:46","226907"
"A1HOBE19VQET60","cs_wg_rev_conf_pilot1","3G5F9DBFOPYY10GPNFERAXF5HP2VH0","13","0","PEBBLE","5","BANANA","5","1","1754",,,,,"0","2018-09-27 13:21:46","226908"
"A1DBCHREMYNOVT","cs_wg_rev_conf_pilot1","3B1NLC6UGZX7WKOIHXNAJ5EMG1OPGA","22","0","ACROBAT","5","COSTUME","6","1","4446",,,,,"1","2018-09-27 13:21:47","226909"
"A2T79473SWZ0L6","cs_wg_rev_conf_pilot1","3IKZ72A5B4H1FZGAQY40XV9FF7OFN6","6","0","PENGUIN","6","BASKET","8","1","6009",,,,,"1","2018-09-27 13:21:47","226910"
"A1PBSK32TV6H45","cs_wg_rev_conf_pilot1","345LHZDEDXTJUDKQ34FKAHCCKDC3UD","35","0","ACROBAT","7","COWBOY","7","0","255",,,,,"0","2018-09-27 13:21:48","226911"
"A1ZCKK5SH4WACZ","cs_wg_rev_conf_pilot1","3TEM0PF1Q5Y1WJA7YM7CYJAHV1XD0I","11","0","SQUARE","5","BUCKET","1","0","2319",,,,,"0","2018-09-27 13:21:48","226912"
"A9MYSUUW9EU9N","cs_wg_rev_conf_pilot1","3SNLUL3WO4O0AHAF9AJK636TKZ2ULH","14","0","PUMPKIN","15","BAMBOO","6","0","988",,,,,"0","2018-09-27 13:21:48","226913"
"A3DZ46U9XRLVBI","cs_wg_rev_conf_pilot1","39LNWE0K4UXYKG29O7M7ENE13V8UI3","8","0","LIZARD","7","GARBAGE","5","0","4684",,,,,"1","2018-09-27 13:21:48","226914"
"A3K4JTRUZQD096","cs_wg_rev_conf_pilot1","3AMW0RGHOD3D6C5441059PNJHDAPNI","11","0","LIZARD","6","TOMATO","5","1","2081",,,,,"0","2018-09-27 13:21:49","226915"
"A2R9VWNAOREXQ7","cs_wg_rev_conf_pilot1","3E4GGUZ1T8SG6ZJV5QXDLKYMC8E2K4","19","0","AIRBAG","6","PALACE","5","0","2025",,,,,"1","2018-09-27 13:21:50","226916"
"A1HOBE19VQET60","cs_wg_rev_conf_pilot1","3G5F9DBFOPYY10GPNFERAXF5HP2VH0","14","0","BANANA","5","JACKET","1","0","2060",,,,,"0","2018-09-27 13:21:50","226917"
"A1PBSK32TV6H45","cs_wg_rev_conf_pilot1","345LHZDEDXTJUDKQ34FKAHCCKDC3UD","36","0","ACROBAT","7","ISLAND","5","1","967",,,,,"0","2018-09-27 13:21:50","226918"
"A5I193MWA21PS","cs_wg_rev_conf_pilot1","3PEIJLRY6TU82FG9IT19ZLMDCONXW5","13","0","BAMBOO","6","BLANKET","15","1","2065",,,,,"0","2018-09-27 13:21:51","226919"
"A3GJ5C141DP5EQ","cs_wg_rev_conf_pilot1","3I0BTBYZAXM4UU5YUIUQB4KIDP30YD","6","0","PENGUIN","6","PALACE","6","0","2630",,,,,"1","2018-09-27 13:21:51","226920"
"A1APRIR2E2D5YZ","cs_wg_rev_conf_pilot1","3OJSZ2ATDSXKAHVY4FA2FMWCQY5572","7","0","ARCADE","7","AIRBAG","5","1","2337",,,,,"0","2018-09-27 13:21:51","226921"
"AT3CZ2VR5A5U1","cs_wg_rev_conf_pilot1","32ZKVD547FO4YEBK3DYP5RKOVS5B34","5","0","SQUARE","5","RABBIT","7","1","3245",,,,,"1","2018-09-27 13:21:51","226922"
"A3FOZW3TFS6KMN","cs_wg_rev_conf_pilot1","3Q8GYXHFEP3QMYQUVWIDV8OQR9W5CV","2","0","ISLAND","7","PENGUIN","6","0","4922",,,,,"1","2018-09-27 13:21:51","226923"
"A9MYSUUW9EU9N","cs_wg_rev_conf_pilot1","3SNLUL3WO4O0AHAF9AJK636TKZ2ULH","15","0","SPATULA","6","JACKET","8","1","1644",,,,,"0","2018-09-27 13:21:51","226924"
"A1517L56OPXUPV","cs_wg_rev_conf_pilot1","3EKVH9QMEY58STDLD9BQH73WSZHD22","0","0","GRENADE","6","TOMATO","7","0","3803",,,,,"0","2018-09-27 13:21:52","226925"
"A33VERUJLZ8H6P","cs_wg_rev_conf_pilot1","3QILPRALQ5WS0K6NIKYUN3STS3AN8W","8","0","AIRBAG","7","GARBAGE","5","0","4881",,,,,"0","2018-09-27 13:21:52","226926"
"A2T79473SWZ0L6","cs_wg_rev_conf_pilot1","3IKZ72A5B4H1FZGAQY40XV9FF7OFN6","7","0","VOLCANO","6","BUCKET","1","0","3426",,,,,"1","2018-09-27 13:21:52","226927"
"A1ZCKK5SH4WACZ","cs_wg_rev_conf_pilot1","3TEM0PF1Q5Y1WJA7YM7CYJAHV1XD0I","12","0","BANANA","5","GARBAGE","7","1","2292",,,,,"0","2018-09-27 13:21:52","226928"
"A1DBCHREMYNOVT","cs_wg_rev_conf_pilot1","3B1NLC6UGZX7WKOIHXNAJ5EMG1OPGA","23","0","SMOKER","8","POTATO","7","0","4006",,,,,"1","2018-09-27 13:21:52","226929"
"A1PBSK32TV6H45","cs_wg_rev_conf_pilot1","345LHZDEDXTJUDKQ34FKAHCCKDC3UD","37","0","SPATULA","6","CANCER","5","0","307",,,,,"0","2018-09-27 13:21:53","226930"
"A1HOBE19VQET60","cs_wg_rev_conf_pilot1","3G5F9DBFOPYY10GPNFERAXF5HP2VH0","15","0","BAMBOO","6","PUMPKIN","8","1","1696",,,,,"0","2018-09-27 13:21:54","226931"
"A3K4JTRUZQD096","cs_wg_rev_conf_pilot1","3AMW0RGHOD3D6C5441059PNJHDAPNI","12","0","BLANKET","8","TOMATO","5","0","2533",,,,,"0","2018-09-27 13:21:54","226932"
"A1PBSK32TV6H45","cs_wg_rev_conf_pilot1","345LHZDEDXTJUDKQ34FKAHCCKDC3UD","38","0","BAMBOO","6","ACROBAT","7","1","348",,,,,"0","2018-09-27 13:21:55","226933"
"A9MYSUUW9EU9N","cs_wg_rev_conf_pilot1","3SNLUL3WO4O0AHAF9AJK636TKZ2ULH","16","0","JACKET","8","PUMPKIN","15","1","1165",,,,,"0","2018-09-27 13:21:55","226934"
"AT3CZ2VR5A5U1","cs_wg_rev_conf_pilot1","32ZKVD547FO4YEBK3DYP5RKOVS5B34","6","0","SQUARE","5","JACKET","8","1","2558",,,,,"1","2018-09-27 13:21:56","226935"
"A3GJ5C141DP5EQ","cs_wg_rev_conf_pilot1","3I0BTBYZAXM4UU5YUIUQB4KIDP30YD","7","0","PENGUIN","6","CHICKEN","15","1","2834",,,,,"0","2018-09-27 13:21:56","226936"
"A2VC1UC5Q0E9PO","cs_wg_rev_conf_pilot1","3YZ8UPK3VTN77DG9WXQL3KG6QQOUC1","1","0","BANQUET","6","BLANKET","15","0","3020",,,,,"0","2018-09-27 13:21:56","226937"
"A1PBSK32TV6H45","cs_wg_rev_conf_pilot1","345LHZDEDXTJUDKQ34FKAHCCKDC3UD","39","0","ACROBAT","7","BAMBOO","6","0","293",,,,,"0","2018-09-27 13:21:56","226938"
"A3DZ46U9XRLVBI","cs_wg_rev_conf_pilot1","39LNWE0K4UXYKG29O7M7ENE13V8UI3","9","0","CHICKEN","8","COMPANY","6","0","4870",,,,,"1","2018-09-27 13:21:57","226939"
"A1ZCKK5SH4WACZ","cs_wg_rev_conf_pilot1","3TEM0PF1Q5Y1WJA7YM7CYJAHV1XD0I","13","0","BANQUET","6","CANCER","7","0","2016",,,,,"0","2018-09-27 13:21:57","226940"
"A1517L56OPXUPV","cs_wg_rev_conf_pilot1","3EKVH9QMEY58STDLD9BQH73WSZHD22","1","0","PUMPKIN","15","GRENADE","6","0","1357",,,,,"0","2018-09-27 13:21:57","226941"
"A1HOBE19VQET60","cs_wg_rev_conf_pilot1","3G5F9DBFOPYY10GPNFERAXF5HP2VH0","16","0","BAMBOO","6","JACKET","1","0","1638",,,,,"0","2018-09-27 13:21:57","226942"
"A1APRIR2E2D5YZ","cs_wg_rev_conf_pilot1","3OJSZ2ATDSXKAHVY4FA2FMWCQY5572","8","0","SPATULA","6","TURKEY","15","1","2347",,,,,"0","2018-09-27 13:21:58","226943"
"A1DBCHREMYNOVT","cs_wg_rev_conf_pilot1","3B1NLC6UGZX7WKOIHXNAJ5EMG1OPGA","24","0","PALACE","7","SMOKER","8","1","3383",,,,,"1","2018-09-27 13:21:58","226944"
"A3FOZW3TFS6KMN","cs_wg_rev_conf_pilot1","3Q8GYXHFEP3QMYQUVWIDV8OQR9W5CV","3","0","BAMBOO","5","PELICAN","7","1","4554",,,,,"1","2018-09-27 13:21:58","226945"
"A1PBSK32TV6H45","cs_wg_rev_conf_pilot1","345LHZDEDXTJUDKQ34FKAHCCKDC3UD","40","0","ISLAND","5","SQUARE","6","1","332",,,,,"0","2018-09-27 13:21:58","226946"
"A33VERUJLZ8H6P","cs_wg_rev_conf_pilot1","3QILPRALQ5WS0K6NIKYUN3STS3AN8W","9","0","GARBAGE","5","AIRBAG","7","1","3464",,,,,"0","2018-09-27 13:21:58","226947"
"A2T79473SWZ0L6","cs_wg_rev_conf_pilot1","3IKZ72A5B4H1FZGAQY40XV9FF7OFN6","8","0","VOLCANO","6","BUCKET","1","0","4367",,,,,"1","2018-09-27 13:21:59","226948"
"A3K4JTRUZQD096","cs_wg_rev_conf_pilot1","3AMW0RGHOD3D6C5441059PNJHDAPNI","13","0","PICKLE","15","PALACE","7","0","1866",,,,,"0","2018-09-27 13:21:59","226949"
"A9MYSUUW9EU9N","cs_wg_rev_conf_pilot1","3SNLUL3WO4O0AHAF9AJK636TKZ2ULH","17","0","BASKET","1","JACKET","8","1","2202",,,,,"0","2018-09-27 13:21:59","226950"
"A5I193MWA21PS","cs_wg_rev_conf_pilot1","3PEIJLRY6TU82FG9IT19ZLMDCONXW5","14","0","MONKEY","1","PENGUIN","6","1","5786",,,,,"1","2018-09-27 13:21:59","226951"
"A3GJ5C141DP5EQ","cs_wg_rev_conf_pilot1","3I0BTBYZAXM4UU5YUIUQB4KIDP30YD","8","0","CHICKEN","15","PENGUIN","6","0","1678",,,,,"0","2018-09-27 13:21:59","226952"
"A2YJ0H0QAAQC8N","cs_wg_rev_conf_pilot1","3VP0C6EFSGXZEO2ZD4MWQA72HIB6MU","1","0","SQUARE","6","CHICKEN","8","0","20082",,,,,"1","2018-09-27 13:22:00","226953"
"A1PBSK32TV6H45","cs_wg_rev_conf_pilot1","345LHZDEDXTJUDKQ34FKAHCCKDC3UD","41","0","ISLAND","5","PEBBLE","7","0","334",,,,,"0","2018-09-27 13:22:00","226954"
"AT3CZ2VR5A5U1","cs_wg_rev_conf_pilot1","32ZKVD547FO4YEBK3DYP5RKOVS5B34","7","0","BLANKET","15","SUNBURN","6","0","2279",,,,,"1","2018-09-27 13:22:00","226955"
"A1HOBE19VQET60","cs_wg_rev_conf_pilot1","3G5F9DBFOPYY10GPNFERAXF5HP2VH0","17","0","PEBBLE","5","PICTURE","6","0","1823",,,,,"0","2018-09-27 13:22:01","226956"
"A1PBSK32TV6H45","cs_wg_rev_conf_pilot1","345LHZDEDXTJUDKQ34FKAHCCKDC3UD","42","0","BAMBOO","6","COWBOY","7","1","334",,,,,"0","2018-09-27 13:22:02","226957"
"A1ZCKK5SH4WACZ","cs_wg_rev_conf_pilot1","3TEM0PF1Q5Y1WJA7YM7CYJAHV1XD0I","14","0","BUCKET","1","COWBOY","6","1","2093",,,,,"0","2018-09-27 13:22:02","226958"
"A1DBCHREMYNOVT","cs_wg_rev_conf_pilot1","3B1NLC6UGZX7WKOIHXNAJ5EMG1OPGA","25","0","GARBAGE","6","ACROBAT","5","0","2236",,,,,"1","2018-09-27 13:22:02","226959"
"A2R9VWNAOREXQ7","cs_wg_rev_conf_pilot1","3E4GGUZ1T8SG6ZJV5QXDLKYMC8E2K4","20","0","RABBIT","6","ISLAND","7","1","7184",,,,,"1","2018-09-27 13:22:03","226960"
"A1PBSK32TV6H45","cs_wg_rev_conf_pilot1","345LHZDEDXTJUDKQ34FKAHCCKDC3UD","43","0","ISLAND","5","GARBAGE","5","1","311",,,,,"0","2018-09-27 13:22:03","226961"
"A3K4JTRUZQD096","cs_wg_rev_conf_pilot1","3AMW0RGHOD3D6C5441059PNJHDAPNI","14","0","BLANKET","8","ACROBAT","5","0","2354",,,,,"0","2018-09-27 13:22:04","226962"
"A2T79473SWZ0L6","cs_wg_rev_conf_pilot1","3IKZ72A5B4H1FZGAQY40XV9FF7OFN6","9","0","PENGUIN","6","BLANKET","15","1","3214",,,,,"1","2018-09-27 13:22:04","226963"
"A3DZ46U9XRLVBI","cs_wg_rev_conf_pilot1","39LNWE0K4UXYKG29O7M7ENE13V8UI3","10","0","CANCER","7","BANANA","5","0","4730",,,,,"1","2018-09-27 13:22:04","226964"
"A2HW4UCKTT6JP2","cs_wg_rev_conf_pilot1","3YOH7BII098P3QHXT0HONPVX967KVU","0","0","PENGUIN","6","SMOKER","15","1","12512",,,,,"1","2018-09-27 13:22:04","226965"
"A33VERUJLZ8H6P","cs_wg_rev_conf_pilot1","3QILPRALQ5WS0K6NIKYUN3STS3AN8W","10","0","PALACE","6","GARBAGE","5","1","3854",,,,,"0","2018-09-27 13:22:04","226966"
"A1517L56OPXUPV","cs_wg_rev_conf_pilot1","3EKVH9QMEY58STDLD9BQH73WSZHD22","2","0","BASKET","8","TOMATO","7","1","3437",,,,,"0","2018-09-27 13:22:05","226967"
"AT3CZ2VR5A5U1","cs_wg_rev_conf_pilot1","32ZKVD547FO4YEBK3DYP5RKOVS5B34","8","0","ARCADE","5","BLANKET","15","1","2909",,,,,"1","2018-09-27 13:22:05","226968"
"A1PBSK32TV6H45","cs_wg_rev_conf_pilot1","345LHZDEDXTJUDKQ34FKAHCCKDC3UD","44","0","SPATULA","6","BASKET","15","1","297",,,,,"0","2018-09-27 13:22:05","226969"
"A1HOBE19VQET60","cs_wg_rev_conf_pilot1","3G5F9DBFOPYY10GPNFERAXF5HP2VH0","18","0","PUMPKIN","8","BANANA","5","0","1488",,,,,"0","2018-09-27 13:22:05","226970"
"A1ZCKK5SH4WACZ","cs_wg_rev_conf_pilot1","3TEM0PF1Q5Y1WJA7YM7CYJAHV1XD0I","15","0","SMOKER","15","BLANKET","8","0","1079",,,,,"0","2018-09-27 13:22:05","226971"
"A2VC1UC5Q0E9PO","cs_wg_rev_conf_pilot1","3YZ8UPK3VTN77DG9WXQL3KG6QQOUC1","2","0","COWBOY","6","BANQUET","6","1","5088",,,,,"0","2018-09-27 13:22:06","226972"
"A5I193MWA21PS","cs_wg_rev_conf_pilot1","3PEIJLRY6TU82FG9IT19ZLMDCONXW5","15","0","BUCKET","8","BAMBOO","6","0","3977",,,,,"1","2018-09-27 13:22:06","226973"
"A3GJ5C141DP5EQ","cs_wg_rev_conf_pilot1","3I0BTBYZAXM4UU5YUIUQB4KIDP30YD","9","0","PUMPKIN","8","PALACE","6","0","4238",,,,,"0","2018-09-27 13:22:06","226974"
"A1DBCHREMYNOVT","cs_wg_rev_conf_pilot1","3B1NLC6UGZX7WKOIHXNAJ5EMG1OPGA","26","0","GARBAGE","6","SMOKER","8","1","2346",,,,,"1","2018-09-27 13:22:06","226975"
"A3FOZW3TFS6KMN","cs_wg_rev_conf_pilot1","3Q8GYXHFEP3QMYQUVWIDV8OQR9W5CV","4","0","VOLCANO","5","GARBAGE","6","1","6797",,,,,"1","2018-09-27 13:22:06","226976"
"A9MYSUUW9EU9N","cs_wg_rev_conf_pilot1","3SNLUL3WO4O0AHAF9AJK636TKZ2ULH","18","0","BAMBOO","6","SPATULA","6","1","4825",,,,,"1","2018-09-27 13:22:07","226977"
"A1PBSK32TV6H45","cs_wg_rev_conf_pilot1","345LHZDEDXTJUDKQ34FKAHCCKDC3UD","45","0","COWBOY","7","PEBBLE","7","1","320",,,,,"0","2018-09-27 13:22:07","226978"
"A1APRIR2E2D5YZ","cs_wg_rev_conf_pilot1","3OJSZ2ATDSXKAHVY4FA2FMWCQY5572","9","0","POTATO","5","ARCADE","7","1","5343",,,,,"0","2018-09-27 13:22:07","226979"
"A1PBSK32TV6H45","cs_wg_rev_conf_pilot1","345LHZDEDXTJUDKQ34FKAHCCKDC3UD","46","0","GARBAGE","5","ISLAND","5","0","332",,,,,"0","2018-09-27 13:22:09","226980"
"AT3CZ2VR5A5U1","cs_wg_rev_conf_pilot1","32ZKVD547FO4YEBK3DYP5RKOVS5B34","9","0","JACKET","8","CANCER","5","0","1980",,,,,"1","2018-09-27 13:22:09","226981"
"A3K4JTRUZQD096","cs_wg_rev_conf_pilot1","3AMW0RGHOD3D6C5441059PNJHDAPNI","15","0","ARCADE","5","BLANKET","8","1","2696",,,,,"0","2018-09-27 13:22:09","226982"
"A33VERUJLZ8H6P","cs_wg_rev_conf_pilot1","3QILPRALQ5WS0K6NIKYUN3STS3AN8W","11","0","AIRBAG","7","PALACE","6","0","2019",,,,,"0","2018-09-27 13:22:09","226983"
"A9MYSUUW9EU9N","cs_wg_rev_conf_pilot1","3SNLUL3WO4O0AHAF9AJK636TKZ2ULH","19","0","PUMPKIN","15","BAMBOO","6","0","918",,,,,"0","2018-09-27 13:22:09","226984"
"A1HOBE19VQET60","cs_wg_rev_conf_pilot1","3G5F9DBFOPYY10GPNFERAXF5HP2VH0","19","0","BLANKET","15","PUMPKIN","8","0","1832",,,,,"0","2018-09-27 13:22:09","226985"
"A2R9VWNAOREXQ7","cs_wg_rev_conf_pilot1","3E4GGUZ1T8SG6ZJV5QXDLKYMC8E2K4","21","0","VOLCANO","7","GARBAGE","7","0","4162",,,,,"1","2018-09-27 13:22:09","226986"
"A1DBCHREMYNOVT","cs_wg_rev_conf_pilot1","3B1NLC6UGZX7WKOIHXNAJ5EMG1OPGA","27","0","MONKEY","15","PALACE","7","0","1203",,,,,"0","2018-09-27 13:22:10","226987"
"A3DZ46U9XRLVBI","cs_wg_rev_conf_pilot1","39LNWE0K4UXYKG29O7M7ENE13V8UI3","11","0","AVOCADO","5","TURKEY","15","1","3507",,,,,"1","2018-09-27 13:22:10","226988"
"A5I193MWA21PS","cs_wg_rev_conf_pilot1","3PEIJLRY6TU82FG9IT19ZLMDCONXW5","16","0","BLANKET","15","PENGUIN","6","0","1425",,,,,"0","2018-09-27 13:22:10","226989"
"A1PBSK32TV6H45","cs_wg_rev_conf_pilot1","345LHZDEDXTJUDKQ34FKAHCCKDC3UD","47","0","BAMBOO","6","CHICKEN","1","1","225",,,,,"0","2018-09-27 13:22:10","226990"
"A2T79473SWZ0L6","cs_wg_rev_conf_pilot1","3IKZ72A5B4H1FZGAQY40XV9FF7OFN6","10","0","BASKET","8","BLANKET","15","1","5489",,,,,"1","2018-09-27 13:22:11","226991"
"A9MYSUUW9EU9N","cs_wg_rev_conf_pilot1","3SNLUL3WO4O0AHAF9AJK636TKZ2ULH","20","0","PUMPKIN","15","JACKET","8","0","700",,,,,"0","2018-09-27 13:22:11","226992"
"A1APRIR2E2D5YZ","cs_wg_rev_conf_pilot1","3OJSZ2ATDSXKAHVY4FA2FMWCQY5572","10","0","TURKEY","15","BAMBOO","7","0","2477",,,,,"0","2018-09-27 13:22:12","226993"
"AT3CZ2VR5A5U1","cs_wg_rev_conf_pilot1","32ZKVD547FO4YEBK3DYP5RKOVS5B34","10","0","PICKLE","1","BLANKET","15","1","1411",,,,,"0","2018-09-27 13:22:12","226994"
"A1PBSK32TV6H45","cs_wg_rev_conf_pilot1","345LHZDEDXTJUDKQ34FKAHCCKDC3UD","48","0","BAMBOO","6","GARBAGE","5","0","292",,,,,"0","2018-09-27 13:22:12","226995"
"A1ZCKK5SH4WACZ","cs_wg_rev_conf_pilot1","3TEM0PF1Q5Y1WJA7YM7CYJAHV1XD0I","16","0","CANCER","7","BANANA","5","0","4610",,,,,"0","2018-09-27 13:22:12","226996"
"A2HW4UCKTT6JP2","cs_wg_rev_conf_pilot1","3YOH7BII098P3QHXT0HONPVX967KVU","1","0","SMOKER","15","GRENADE","6","0","6134",,,,,"1","2018-09-27 13:22:13","226997"
"A1517L56OPXUPV","cs_wg_rev_conf_pilot1","3EKVH9QMEY58STDLD9BQH73WSZHD22","3","0","BANANA","5","GRENADE","6","1","4975",,,,,"1","2018-09-27 13:22:13","226998"
"A2YJ0H0QAAQC8N","cs_wg_rev_conf_pilot1","3VP0C6EFSGXZEO2ZD4MWQA72HIB6MU","2","0","PICKLE","1","CHICKEN","8","1","10815",,,,,"1","2018-09-27 13:22:13","226999"
"A3GJ5C141DP5EQ","cs_wg_rev_conf_pilot1","3I0BTBYZAXM4UU5YUIUQB4KIDP30YD","10","0","PENGUIN","6","PUMPKIN","8","1","5024",,,,,"1","2018-09-27 13:22:13","227000"
"A1HOBE19VQET60","cs_wg_rev_conf_pilot1","3G5F9DBFOPYY10GPNFERAXF5HP2VH0","20","0","PUMPKIN","8","PEBBLE","5","0","2252",,,,,"0","2018-09-27 13:22:13","227001"
"A2R9VWNAOREXQ7","cs_wg_rev_conf_pilot1","3E4GGUZ1T8SG6ZJV5QXDLKYMC8E2K4","22","0","PALACE","5","BUCKET","1","0","2035",,,,,"1","2018-09-27 13:22:14","227002"
"A3K4JTRUZQD096","cs_wg_rev_conf_pilot1","3AMW0RGHOD3D6C5441059PNJHDAPNI","16","0","BANQUET","6","TOMATO","5","0","2571",,,,,"0","2018-09-27 13:22:14","227003"
"A9MYSUUW9EU9N","cs_wg_rev_conf_pilot1","3SNLUL3WO4O0AHAF9AJK636TKZ2ULH","21","0","JACKET","8","SPATULA","6","0","1197",,,,,"0","2018-09-27 13:22:14","227004"
"A3FOZW3TFS6KMN","cs_wg_rev_conf_pilot1","3Q8GYXHFEP3QMYQUVWIDV8OQR9W5CV","5","0","TURKEY","8","PUMPKIN","15","1","5040",,,,,"1","2018-09-27 13:22:14","227005"
"A1DBCHREMYNOVT","cs_wg_rev_conf_pilot1","3B1NLC6UGZX7WKOIHXNAJ5EMG1OPGA","28","0","PALACE","7","ACROBAT","5","0","2710",,,,,"1","2018-09-27 13:22:14","227006"
"A1PBSK32TV6H45","cs_wg_rev_conf_pilot1","345LHZDEDXTJUDKQ34FKAHCCKDC3UD","49","0","BASKET","15","SQUARE","6","1","532",,,,,"0","2018-09-27 13:22:14","227007"
"A2VC1UC5Q0E9PO","cs_wg_rev_conf_pilot1","3YZ8UPK3VTN77DG9WXQL3KG6QQOUC1","3","0","CRICKET","1","JACKET","8","0","2240",,,,,"0","2018-09-27 13:22:15","227008"
"A5I193MWA21PS","cs_wg_rev_conf_pilot1","3PEIJLRY6TU82FG9IT19ZLMDCONXW5","17","0","MONKEY","1","PENGUIN","6","1","1646",,,,,"0","2018-09-27 13:22:15","227009"
"A33VERUJLZ8H6P","cs_wg_rev_conf_pilot1","3QILPRALQ5WS0K6NIKYUN3STS3AN8W","12","0","PALACE","6","AIRBAG","7","0","3339",,,,,"0","2018-09-27 13:22:15","227010"
"A2T79473SWZ0L6","cs_wg_rev_conf_pilot1","3IKZ72A5B4H1FZGAQY40XV9FF7OFN6","11","0","BASKET","8","BLANKET","15","1","1977",,,,,"1","2018-09-27 13:22:15","227011"
"A1PBSK32TV6H45","cs_wg_rev_conf_pilot1","345LHZDEDXTJUDKQ34FKAHCCKDC3UD","50","0","COWBOY","7","ISLAND","5","0","298",,,,,"0","2018-09-27 13:22:16","227012"
"A1ZCKK5SH4WACZ","cs_wg_rev_conf_pilot1","3TEM0PF1Q5Y1WJA7YM7CYJAHV1XD0I","17","0","COWBOY","6","CANCER","7","0","1374",,,,,"0","2018-09-27 13:22:16","227013"
"AT3CZ2VR5A5U1","cs_wg_rev_conf_pilot1","32ZKVD547FO4YEBK3DYP5RKOVS5B34","11","0","TOMATO","7","ISLAND","7","0","2372",,,,,"1","2018-09-27 13:22:17","227014"
"A1517L56OPXUPV","cs_wg_rev_conf_pilot1","3EKVH9QMEY58STDLD9BQH73WSZHD22","4","0","BASKET","8","GRENADE","6","0","1938",,,,,"0","2018-09-27 13:22:17","227015"
"A3DZ46U9XRLVBI","cs_wg_rev_conf_pilot1","39LNWE0K4UXYKG29O7M7ENE13V8UI3","12","0","LIZARD","7","CANCER","7","1","4914",,,,,"1","2018-09-27 13:22:17","227016"
"AZ79FR04OLJx8","cs_wg_rev_conf_pilot1","39ZSFO5CA8XUFRMF6P77QOT1GAXUJF","0","0","CHICKEN","15","MONKEY","8","0","17910",,,,,"1","2018-09-27 13:22:18","227017"
"A1APRIR2E2D5YZ","cs_wg_rev_conf_pilot1","3OJSZ2ATDSXKAHVY4FA2FMWCQY5572","11","0","CRICKET","8","SQUARE","5","0","1861",,,,,"0","2018-09-27 13:22:18","227018"
"A1PBSK32TV6H45","cs_wg_rev_conf_pilot1","345LHZDEDXTJUDKQ34FKAHCCKDC3UD","51","0","CANCER","5","PUMPKIN","8","1","276",,,,,"0","2018-09-27 13:22:18","227019"
"A3K4JTRUZQD096","cs_wg_rev_conf_pilot1","3AMW0RGHOD3D6C5441059PNJHDAPNI","17","0","PALACE","7","BANQUET","6","0","2151",,,,,"0","2018-09-27 13:22:18","227020"
"A2T79473SWZ0L6","cs_wg_rev_conf_pilot1","3IKZ72A5B4H1FZGAQY40XV9FF7OFN6","12","0","BASKET","8","VOLCANO","6","0","1873",,,,,"1","2018-09-27 13:22:19","227021"
"A2YJ0H0QAAQC8N","cs_wg_rev_conf_pilot1","3VP0C6EFSGXZEO2ZD4MWQA72HIB6MU","3","0","TURKEY","15","PICKLE","1","0","3866",,,,,"0","2018-09-27 13:22:19","227022"
"A9MYSUUW9EU9N","cs_wg_rev_conf_pilot1","3SNLUL3WO4O0AHAF9AJK636TKZ2ULH","22","0","BASKET","1","BAMBOO","6","1","2197",,,,,"0","2018-09-27 13:22:19","227023"
"A33VERUJLZ8H6P","cs_wg_rev_conf_pilot1","3QILPRALQ5WS0K6NIKYUN3STS3AN8W","13","0","ACROBAT","7","AIRBAG","7","0","1887",,,,,"0","2018-09-27 13:22:19","227024"
"A1DBCHREMYNOVT","cs_wg_rev_conf_pilot1","3B1NLC6UGZX7WKOIHXNAJ5EMG1OPGA","29","0","ACROBAT","5","TOMATO","6","1","3007",,,,,"1","2018-09-27 13:22:19","227025"
"A2R9VWNAOREXQ7","cs_wg_rev_conf_pilot1","3E4GGUZ1T8SG6ZJV5QXDLKYMC8E2K4","23","0","CRICKET","15","COWBOY","5","0","3017",,,,,"1","2018-09-27 13:22:19","227026"
"A1HOBE19VQET60","cs_wg_rev_conf_pilot1","3G5F9DBFOPYY10GPNFERAXF5HP2VH0","21","0","VOLCANO","5","PUMPKIN","8","1","4468",,,,,"0","2018-09-27 13:22:20","227027"
"A1PBSK32TV6H45","cs_wg_rev_conf_pilot1","345LHZDEDXTJUDKQ34FKAHCCKDC3UD","52","0","COWBOY","7","SQUARE","6","0","302",,,,,"0","2018-09-27 13:22:20","227028"
"A5I193MWA21PS","cs_wg_rev_conf_pilot1","3PEIJLRY6TU82FG9IT19ZLMDCONXW5","18","0","MONKEY","1","BUCKET","8","1","1869",,,,,"0","2018-09-27 13:22:20","227029"
"A1517L56OPXUPV","cs_wg_rev_conf_pilot1","3EKVH9QMEY58STDLD9BQH73WSZHD22","5","0","TOMATO","7","COWBOY","6","0","751",,,,,"0","2018-09-27 13:22:20","227030"
"A1ZCKK5SH4WACZ","cs_wg_rev_conf_pilot1","3TEM0PF1Q5Y1WJA7YM7CYJAHV1XD0I","18","0","CANCER","7","COWBOY","6","0","1757",,,,,"0","2018-09-27 13:22:20","227031"
"A3GJ5C141DP5EQ","cs_wg_rev_conf_pilot1","3I0BTBYZAXM4UU5YUIUQB4KIDP30YD","11","0","PALACE","6","BUCKET","1","0","5479",,,,,"1","2018-09-27 13:22:21","227032"
"A3FOZW3TFS6KMN","cs_wg_rev_conf_pilot1","3Q8GYXHFEP3QMYQUVWIDV8OQR9W5CV","6","0","GARBAGE","6","COMPANY","5","0","4542",,,,,"1","2018-09-27 13:22:21","227033"
"A3SJNWELU5GK75","cs_wg_rev_conf_pilot1","3X08E93BHVJXPLH7QOFF1EAGRIW66K","0","0","BUCKET","8","PUMPKIN","1","0","14861",,,,,"1","2018-09-27 13:22:21","227034"
"AT3CZ2VR5A5U1","cs_wg_rev_conf_pilot1","32ZKVD547FO4YEBK3DYP5RKOVS5B34","12","0","SQUARE","5","GRENADE","6","1","2281",,,,,"1","2018-09-27 13:22:22","227035"
"A1PBSK32TV6H45","cs_wg_rev_conf_pilot1","345LHZDEDXTJUDKQ34FKAHCCKDC3UD","53","0","ACROBAT","7","SQUARE","6","1","93",,,,,"0","2018-09-27 13:22:22","227036"
"A9MYSUUW9EU9N","cs_wg_rev_conf_pilot1","3SNLUL3WO4O0AHAF9AJK636TKZ2ULH","23","0","BASKET","1","PUMPKIN","15","1","1355",,,,,"0","2018-09-27 13:22:22","227037"
"A1DBCHREMYNOVT","cs_wg_rev_conf_pilot1","3B1NLC6UGZX7WKOIHXNAJ5EMG1OPGA","30","0","MONKEY","15","ACROBAT","5","0","1202",,,,,"0","2018-09-27 13:22:23","227038"
"A33VERUJLZ8H6P","cs_wg_rev_conf_pilot1","3QILPRALQ5WS0K6NIKYUN3STS3AN8W","14","0","BUCKET","15","ACROBAT","7","0","1777",,,,,"0","2018-09-27 13:22:23","227039"
"A2VC1UC5Q0E9PO","cs_wg_rev_conf_pilot1","3YZ8UPK3VTN77DG9WXQL3KG6QQOUC1","4","0","JACKET","8","BLANKET","15","1","3322",,,,,"0","2018-09-27 13:22:23","227040"
"A1HOBE19VQET60","cs_wg_rev_conf_pilot1","3G5F9DBFOPYY10GPNFERAXF5HP2VH0","22","0","LIZARD","6","PEBBLE","5","0","1589",,,,,"0","2018-09-27 13:22:23","227041"
"A1PBSK32TV6H45","cs_wg_rev_conf_pilot1","345LHZDEDXTJUDKQ34FKAHCCKDC3UD","54","0","CANCER","5","ISLAND","5","1","233",,,,,"0","2018-09-27 13:22:23","227042"
"A3K4JTRUZQD096","cs_wg_rev_conf_pilot1","3AMW0RGHOD3D6C5441059PNJHDAPNI","18","0","AIRBAG","7","TOMATO","5","0","2489",,,,,"0","2018-09-27 13:22:23","227043"
"A3DZ46U9XRLVBI","cs_wg_rev_conf_pilot1","39LNWE0K4UXYKG29O7M7ENE13V8UI3","13","0","BANANA","5","AVOCADO","5","1","3499",,,,,"1","2018-09-27 13:22:24","227044"
"A2R9VWNAOREXQ7","cs_wg_rev_conf_pilot1","3E4GGUZ1T8SG6ZJV5QXDLKYMC8E2K4","24","0","ISLAND","7","CHICKEN","8","1","2343",,,,,"1","2018-09-27 13:22:24","227045"
"A2YJ0H0QAAQC8N","cs_wg_rev_conf_pilot1","3VP0C6EFSGXZEO2ZD4MWQA72HIB6MU","4","0","PICKLE","1","TURKEY","15","1","2779",,,,,"0","2018-09-27 13:22:24","227046"
"A1APRIR2E2D5YZ","cs_wg_rev_conf_pilot1","3OJSZ2ATDSXKAHVY4FA2FMWCQY5572","12","0","COMPANY","6","PICKLE","1","0","1644",,,,,"0","2018-09-27 13:22:25","227047"
"A9MYSUUW9EU9N","cs_wg_rev_conf_pilot1","3SNLUL3WO4O0AHAF9AJK636TKZ2ULH","24","0","SPATULA","6","JACKET","8","1","1471",,,,,"0","2018-09-27 13:22:25","227048"
"A1517L56OPXUPV","cs_wg_rev_conf_pilot1","3EKVH9QMEY58STDLD9BQH73WSZHD22","6","0","COWBOY","6","BANANA","5","0","2358",,,,,"1","2018-09-27 13:22:25","227049"
"A1PBSK32TV6H45","cs_wg_rev_conf_pilot1","345LHZDEDXTJUDKQ34FKAHCCKDC3UD","55","0","COWBOY","7","BASKET","15","1","301",,,,,"0","2018-09-27 13:22:25","227050"
"A1ZCKK5SH4WACZ","cs_wg_rev_conf_pilot1","3TEM0PF1Q5Y1WJA7YM7CYJAHV1XD0I","19","0","GARBAGE","7","BLANKET","8","0","2094",,,,,"0","2018-09-27 13:22:25","227051"
"AT3CZ2VR5A5U1","cs_wg_rev_conf_pilot1","32ZKVD547FO4YEBK3DYP5RKOVS5B34","13","0","CANCER","5","JACKET","8","1","2314",,,,,"1","2018-09-27 13:22:26","227052"
"A5I193MWA21PS","cs_wg_rev_conf_pilot1","3PEIJLRY6TU82FG9IT19ZLMDCONXW5","19","0","BAMBOO","6","BUCKET","8","1","2421",,,,,"0","2018-09-27 13:22:26","227053"
"A33VERUJLZ8H6P","cs_wg_rev_conf_pilot1","3QILPRALQ5WS0K6NIKYUN3STS3AN8W","15","0","BUCKET","15","GRENADE","5","0","1025",,,,,"0","2018-09-27 13:22:26","227054"
"A3GJ5C141DP5EQ","cs_wg_rev_conf_pilot1","3I0BTBYZAXM4UU5YUIUQB4KIDP30YD","12","0","PENGUIN","6","BUCKET","1","0","3809",,,,,"1","2018-09-27 13:22:26","227055"
"A2HW4UCKTT6JP2","cs_wg_rev_conf_pilot1","3YOH7BII098P3QHXT0HONPVX967KVU","2","0","CRICKET","1","PENGUIN","6","1","8472",,,,,"1","2018-09-27 13:22:26","227056"
"A1HOBE19VQET60","cs_wg_rev_conf_pilot1","3G5F9DBFOPYY10GPNFERAXF5HP2VH0","23","0","BLANKET","15","PELICAN","7","0","1818",,,,,"0","2018-09-27 13:22:27","227057"
"A1PBSK32TV6H45","cs_wg_rev_conf_pilot1","345LHZDEDXTJUDKQ34FKAHCCKDC3UD","56","0","GARBAGE","5","SPATULA","6","1","341",,,,,"0","2018-09-27 13:22:27","227058"
"A1DBCHREMYNOVT","cs_wg_rev_conf_pilot1","3B1NLC6UGZX7WKOIHXNAJ5EMG1OPGA","31","0","TOMATO","6","GARBAGE","6","0","2581",,,,,"1","2018-09-27 13:22:27","227059"
"A9MYSUUW9EU9N","cs_wg_rev_conf_pilot1","3SNLUL3WO4O0AHAF9AJK636TKZ2ULH","25","0","BAMBOO","6","PUMPKIN","15","1","891",,,,,"0","2018-09-27 13:22:27","227060"
"A1517L56OPXUPV","cs_wg_rev_conf_pilot1","3EKVH9QMEY58STDLD9BQH73WSZHD22","7","0","SMOKER","1","PUMPKIN","15","1","534",,,,,"0","2018-09-27 13:22:28","227061"
"A3FOZW3TFS6KMN","cs_wg_rev_conf_pilot1","3Q8GYXHFEP3QMYQUVWIDV8OQR9W5CV","7","0","GARBAGE","6","ISLAND","7","1","4974",,,,,"1","2018-09-27 13:22:28","227062"
"A3K4JTRUZQD096","cs_wg_rev_conf_pilot1","3AMW0RGHOD3D6C5441059PNJHDAPNI","19","0","LIZARD","6","ACROBAT","5","0","1997",,,,,"0","2018-09-27 13:22:28","227063"
"A1PBSK32TV6H45","cs_wg_rev_conf_pilot1","345LHZDEDXTJUDKQ34FKAHCCKDC3UD","57","0","ISLAND","5","BAMBOO","6","0","289",,,,,"0","2018-09-27 13:22:29","227064"
"A2R9VWNAOREXQ7","cs_wg_rev_conf_pilot1","3E4GGUZ1T8SG6ZJV5QXDLKYMC8E2K4","25","0","GARBAGE","7","GRENADE","5","0","2239",,,,,"1","2018-09-27 13:22:29","227065"
"A2T79473SWZ0L6","cs_wg_rev_conf_pilot1","3IKZ72A5B4H1FZGAQY40XV9FF7OFN6","13","0","BUCKET","1","BLANKET","15","1","3010",,,,,"1","2018-09-27 13:22:29","227066"
"A1V6MPL7396OE4","cs_wg_rev_conf_pilot1","3LYA37P8IQOAUCJROJQOMD1Q6ERBKF","0","0","MONKEY","15","POTATO","6","0","9169",,,,,"0","2018-09-27 13:22:29","227067"
"A5I193MWA21PS","cs_wg_rev_conf_pilot1","3PEIJLRY6TU82FG9IT19ZLMDCONXW5","20","0","PENGUIN","6","BLANKET","15","1","1269",,,,,"0","2018-09-27 13:22:29","227068"
"AT3CZ2VR5A5U1","cs_wg_rev_conf_pilot1","32ZKVD547FO4YEBK3DYP5RKOVS5B34","14","0","JACKET","8","ARCADE","5","0","1866",,,,,"1","2018-09-27 13:22:30","227069"
"A1APRIR2E2D5YZ","cs_wg_rev_conf_pilot1","3OJSZ2ATDSXKAHVY4FA2FMWCQY5572","13","0","AIRBAG","5","COMPANY","6","1","2084",,,,,"0","2018-09-27 13:22:30","227070"
"AZ79FR04OLJx8","cs_wg_rev_conf_pilot1","39ZSFO5CA8XUFRMF6P77QOT1GAXUJF","1","0","COSTUME","6","CHICKEN","15","1","7820",,,,,"1","2018-09-27 13:22:30","227071"
"A1ZCKK5SH4WACZ","cs_wg_rev_conf_pilot1","3TEM0PF1Q5Y1WJA7YM7CYJAHV1XD0I","20","0","GARBAGE","7","AVOCADO","7","0","1868",,,,,"0","2018-09-27 13:22:30","227072"
"A9MYSUUW9EU9N","cs_wg_rev_conf_pilot1","3SNLUL3WO4O0AHAF9AJK636TKZ2ULH","26","0","JACKET","8","PUMPKIN","15","1","1514",,,,,"0","2018-09-27 13:22:30","227073"
"A1PBSK32TV6H45","cs_wg_rev_conf_pilot1","345LHZDEDXTJUDKQ34FKAHCCKDC3UD","58","0","PEBBLE","7","SQUARE","6","1","293",,,,,"0","2018-09-27 13:22:30","227074"
"A33VERUJLZ8H6P","cs_wg_rev_conf_pilot1","3QILPRALQ5WS0K6NIKYUN3STS3AN8W","16","0","GARBAGE","5","ACROBAT","7","1","2238",,,,,"0","2018-09-27 13:22:30","227075"
"A2VC1UC5Q0E9PO","cs_wg_rev_conf_pilot1","3YZ8UPK3VTN77DG9WXQL3KG6QQOUC1","5","0","BLANKET","15","COWBOY","6","0","4427",,,,,"0","2018-09-27 13:22:30","227076"
"A1HOBE19VQET60","cs_wg_rev_conf_pilot1","3G5F9DBFOPYY10GPNFERAXF5HP2VH0","24","0","BLANKET","15","VOLCANO","5","0","1874",,,,,"0","2018-09-27 13:22:31","227077"
"A1DBCHREMYNOVT","cs_wg_rev_conf_pilot1","3B1NLC6UGZX7WKOIHXNAJ5EMG1OPGA","32","0","PICKLE","1","SMOKER","8","1","1821",,,,,"0","2018-09-27 13:22:31","227078"
"A1517L56OPXUPV","cs_wg_rev_conf_pilot1","3EKVH9QMEY58STDLD9BQH73WSZHD22","8","0","PUMPKIN","15","ISLAND","7","1","1480",,,,,"0","2018-09-27 13:22:31","227079"
"A10C3NA0KXOFDD","cs_wg_rev_conf_pilot1","3GLB5JMZFXWY7NLSCOWFJBXX2IMGDO","0","0","PUMPKIN","1","SPATULA","6","1","9835",,,,,"1","2018-09-27 13:22:31","227080"
"A1PBSK32TV6H45","cs_wg_rev_conf_pilot1","345LHZDEDXTJUDKQ34FKAHCCKDC3UD","59","0","CANCER","5","SQUARE","6","1","291",,,,,"0","2018-09-27 13:22:32","227081"
"A3GJ5C141DP5EQ","cs_wg_rev_conf_pilot1","3I0BTBYZAXM4UU5YUIUQB4KIDP30YD","13","0","PALACE","6","PENGUIN","6","0","3537",,,,,"1","2018-09-27 13:22:32","227082"
"A5I193MWA21PS","cs_wg_rev_conf_pilot1","3PEIJLRY6TU82FG9IT19ZLMDCONXW5","21","0","MONKEY","1","BAMBOO","6","1","1240",,,,,"0","2018-09-27 13:22:33","227083"
"A3SJNWELU5GK75","cs_wg_rev_conf_pilot1","3X08E93BHVJXPLH7QOFF1EAGRIW66K","1","0","PUMPKIN","1","BICYCLE","6","1","8683",,,,,"1","2018-09-27 13:22:33","227084"
"A9MYSUUW9EU9N","cs_wg_rev_conf_pilot1","3SNLUL3WO4O0AHAF9AJK636TKZ2ULH","27","0","JACKET","8","BAMBOO","6","0","1357",,,,,"0","2018-09-27 13:22:33","227085"
"A3K4JTRUZQD096","cs_wg_rev_conf_pilot1","3AMW0RGHOD3D6C5441059PNJHDAPNI","20","0","BUCKET","1","ARCADE","5","0","2552",,,,,"0","2018-09-27 13:22:33","227086"
"A1RO6JFAJZMGIU","cs_wg_rev_conf_pilot1","3LBXNTKX0RWXQJ31PIRHL1E2EN2X9F","0","0","SPATULA","6","PELICAN","7","1","15868",,,,,"1","2018-09-27 13:22:33","227087"
"A3DZ46U9XRLVBI","cs_wg_rev_conf_pilot1","39LNWE0K4UXYKG29O7M7ENE13V8UI3","14","0","GARBAGE","5","CRICKET","1","0","4171",,,,,"1","2018-09-27 13:22:33","227088"
"AT3CZ2VR5A5U1","cs_wg_rev_conf_pilot1","32ZKVD547FO4YEBK3DYP5RKOVS5B34","15","0","GRENADE","6","CANCER","5","0","1815",,,,,"1","2018-09-27 13:22:33","227089"
"A2T79473SWZ0L6","cs_wg_rev_conf_pilot1","3IKZ72A5B4H1FZGAQY40XV9FF7OFN6","14","0","BUCKET","1","VOLCANO","6","1","2687",,,,,"1","2018-09-27 13:22:33","227090"
"A2R9VWNAOREXQ7","cs_wg_rev_conf_pilot1","3E4GGUZ1T8SG6ZJV5QXDLKYMC8E2K4","26","0","PICTURE","6","PALACE","5","0","2221",,,,,"1","2018-09-27 13:22:33","227091"
"A1HOBE19VQET60","cs_wg_rev_conf_pilot1","3G5F9DBFOPYY10GPNFERAXF5HP2VH0","25","0","BANANA","5","PEBBLE","5","0","1471",,,,,"0","2018-09-27 13:22:34","227092"
"A1PBSK32TV6H45","cs_wg_rev_conf_pilot1","345LHZDEDXTJUDKQ34FKAHCCKDC3UD","60","0","SPATULA","6","GARBAGE","5","1","311",,,,,"0","2018-09-27 13:22:34","227093"
"A1APRIR2E2D5YZ","cs_wg_rev_conf_pilot1","3OJSZ2ATDSXKAHVY4FA2FMWCQY5572","14","0","BAMBOO","7","SQUARE","5","0","1589",,,,,"0","2018-09-27 13:22:34","227094"
"A2HW4UCKTT6JP2","cs_wg_rev_conf_pilot1","3YOH7BII098P3QHXT0HONPVX967KVU","3","0","SMOKER","15","BLANKET","8","0","5077",,,,,"1","2018-09-27 13:22:35","227095"
"A33VERUJLZ8H6P","cs_wg_rev_conf_pilot1","3QILPRALQ5WS0K6NIKYUN3STS3AN8W","17","0","ACROBAT","7","CANCER","7","0","2183",,,,,"0","2018-09-27 13:22:35","227096"
"A1ZCKK5SH4WACZ","cs_wg_rev_conf_pilot1","3TEM0PF1Q5Y1WJA7YM7CYJAHV1XD0I","21","0","COWBOY","6","BUCKET","1","0","1308",,,,,"0","2018-09-27 13:22:35","227097"
"A3FOZW3TFS6KMN","cs_wg_rev_conf_pilot1","3Q8GYXHFEP3QMYQUVWIDV8OQR9W5CV","8","0","BANANA","7","PUMPKIN","15","1","5623",,,,,"1","2018-09-27 13:22:35","227098"
"A1PBSK32TV6H45","cs_wg_rev_conf_pilot1","345LHZDEDXTJUDKQ34FKAHCCKDC3UD","61","0","SPATULA","6","CHICKEN","1","0","281",,,,,"0","2018-09-27 13:22:36","227099"
"A1V6MPL7396OE4","cs_wg_rev_conf_pilot1","3LYA37P8IQOAUCJROJQOMD1Q6ERBKF","1","0","SMOKER","1","CHICKEN","8","1","3778",,,,,"0","2018-09-27 13:22:36","227100"
"A2YJ0H0QAAQC8N","cs_wg_rev_conf_pilot1","3VP0C6EFSGXZEO2ZD4MWQA72HIB6MU","5","0","PICKLE","1","SUNBURN","6","1","9622",,,,,"1","2018-09-27 13:22:36","227101"
"A9MYSUUW9EU9N","cs_wg_rev_conf_pilot1","3SNLUL3WO4O0AHAF9AJK636TKZ2ULH","28","0","BASKET","1","BAMBOO","6","1","1644",,,,,"0","2018-09-27 13:22:36","227102"
"A1517L56OPXUPV","cs_wg_rev_conf_pilot1","3EKVH9QMEY58STDLD9BQH73WSZHD22","9","0","GRENADE","6","LIZARD","5","0","1841",,,,,"0","2018-09-27 13:22:36","227103"
"A1DBCHREMYNOVT","cs_wg_rev_conf_pilot1","3B1NLC6UGZX7WKOIHXNAJ5EMG1OPGA","33","0","CANCER","7","SMOKER","8","1","3240",,,,,"0","2018-09-27 13:22:36","227104"
"A2VC1UC5Q0E9PO","cs_wg_rev_conf_pilot1","3YZ8UPK3VTN77DG9WXQL3KG6QQOUC1","6","0","JACKET","8","BLANKET","15","1","1988",,,,,"0","2018-09-27 13:22:37","227105"
"A3GJ5C141DP5EQ","cs_wg_rev_conf_pilot1","3I0BTBYZAXM4UU5YUIUQB4KIDP30YD","14","0","BUCKET","1","PENGUIN","6","1","2606",,,,,"0","2018-09-27 13:22:37","227106"
"A2T79473SWZ0L6","cs_wg_rev_conf_pilot1","3IKZ72A5B4H1FZGAQY40XV9FF7OFN6","15","0","PENGUIN","6","BLANKET","15","1","1827",,,,,"1","2018-09-27 13:22:37","227107"
"A3K4JTRUZQD096","cs_wg_rev_conf_pilot1","3AMW0RGHOD3D6C5441059PNJHDAPNI","21","0","BUCKET","1","ACROBAT","5","1","1755",,,,,"0","2018-09-27 13:22:37","227108"
"A1PBSK32TV6H45","cs_wg_rev_conf_pilot1","345LHZDEDXTJUDKQ34FKAHCCKDC3UD","62","0","BAMBOO","6","CANCER","5","1","239",,,,,"0","2018-09-27 13:22:37","227109"
"A1HOBE19VQET60","cs_wg_rev_conf_pilot1","3G5F9DBFOPYY10GPNFERAXF5HP2VH0","26","0","BANANA","5","PUMPKIN","8","1","1484",,,,,"0","2018-09-27 13:22:37","227110"
"AT3CZ2VR5A5U1","cs_wg_rev_conf_pilot1","32ZKVD547FO4YEBK3DYP5RKOVS5B34","16","0","PICKLE","1","JACKET","8","1","2310",,,,,"1","2018-09-27 13:22:38","227111"
"A2R9VWNAOREXQ7","cs_wg_rev_conf_pilot1","3E4GGUZ1T8SG6ZJV5QXDLKYMC8E2K4","27","0","RABBIT","6","AIRBAG","6","0","2172",,,,,"1","2018-09-27 13:22:38","227112"
"A5I193MWA21PS","cs_wg_rev_conf_pilot1","3PEIJLRY6TU82FG9IT19ZLMDCONXW5","22","0","BUCKET","8","MONKEY","1","0","1784",,,,,"0","2018-09-27 13:22:38","227113"
"A33VERUJLZ8H6P","cs_wg_rev_conf_pilot1","3QILPRALQ5WS0K6NIKYUN3STS3AN8W","18","0","GRENADE","5","ACROBAT","7","0","1376",,,,,"0","2018-09-27 13:22:38","227114"
"A1PBSK32TV6H45","cs_wg_rev_conf_pilot1","345LHZDEDXTJUDKQ34FKAHCCKDC3UD","63","0","BAMBOO","6","PUMPKIN","8","1","321",,,,,"0","2018-09-27 13:22:39","227115"
"A1ZCKK5SH4WACZ","cs_wg_rev_conf_pilot1","3TEM0PF1Q5Y1WJA7YM7CYJAHV1XD0I","22","0","RABBIT","5","COMPANY","6","0","1422",,,,,"0","2018-09-27 13:22:39","227116"
"A3DZ46U9XRLVBI","cs_wg_rev_conf_pilot1","39LNWE0K4UXYKG29O7M7ENE13V8UI3","15","0","AVOCADO","5","COMPANY","6","1","3345",,,,,"1","2018-09-27 13:22:40","227117"
"A1PBSK32TV6H45","cs_wg_rev_conf_pilot1","345LHZDEDXTJUDKQ34FKAHCCKDC3UD","64","0","SPATULA","6","ISLAND","5","1","355",,,,,"0","2018-09-27 13:22:41","227118"
"A3SJNWELU5GK75","cs_wg_rev_conf_pilot1","3X08E93BHVJXPLH7QOFF1EAGRIW66K","2","0","BUCKET","8","PICTURE","6","0","5281",,,,,"1","2018-09-27 13:22:41","227119"
"A2T79473SWZ0L6","cs_wg_rev_conf_pilot1","3IKZ72A5B4H1FZGAQY40XV9FF7OFN6","16","0","BASKET","8","PENGUIN","6","0","1588",,,,,"1","2018-09-27 13:22:41","227120"
"A1HOBE19VQET60","cs_wg_rev_conf_pilot1","3G5F9DBFOPYY10GPNFERAXF5HP2VH0","27","0","RABBIT","7","BANANA","5","0","1408",,,,,"0","2018-09-27 13:22:41","227121"
"A9MYSUUW9EU9N","cs_wg_rev_conf_pilot1","3SNLUL3WO4O0AHAF9AJK636TKZ2ULH","29","0","BASKET","1","SPATULA","6","1","3214",,,,,"0","2018-09-27 13:22:41","227122"
"A2YJ0H0QAAQC8N","cs_wg_rev_conf_pilot1","3VP0C6EFSGXZEO2ZD4MWQA72HIB6MU","6","0","SUNBURN","6","PICKLE","1","0","3311",,,,,"0","2018-09-27 13:22:41","227123"
"A10C3NA0KXOFDD","cs_wg_rev_conf_pilot1","3GLB5JMZFXWY7NLSCOWFJBXX2IMGDO","1","0","SMOKER","15","PUMPKIN","1","0","6123",,,,,"1","2018-09-27 13:22:41","227124"
"A1APRIR2E2D5YZ","cs_wg_rev_conf_pilot1","3OJSZ2ATDSXKAHVY4FA2FMWCQY5572","15","0","AIRBAG","5","BAMBOO","7","1","4191",,,,,"0","2018-09-27 13:22:41","227125"
"A1DBCHREMYNOVT","cs_wg_rev_conf_pilot1","3B1NLC6UGZX7WKOIHXNAJ5EMG1OPGA","34","0","BAMBOO","5","CANCER","7","1","2988",,,,,"1","2018-09-27 13:22:41","227126"
"A1517L56OPXUPV","cs_wg_rev_conf_pilot1","3EKVH9QMEY58STDLD9BQH73WSZHD22","10","0","ISLAND","7","COWBOY","6","1","2663",,,,,"0","2018-09-27 13:22:41","227127"
"AZ79FR04OLJx8","cs_wg_rev_conf_pilot1","39ZSFO5CA8XUFRMF6P77QOT1GAXUJF","2","0","CHICKEN","15","COSTUME","6","0","7707",,,,,"1","2018-09-27 13:22:42","227128"
"A3K4JTRUZQD096","cs_wg_rev_conf_pilot1","3AMW0RGHOD3D6C5441059PNJHDAPNI","22","0","BANQUET","6","AIRBAG","7","1","2307",,,,,"0","2018-09-27 13:22:42","227129"
"A3FOZW3TFS6KMN","cs_wg_rev_conf_pilot1","3Q8GYXHFEP3QMYQUVWIDV8OQR9W5CV","9","0","TURKEY","8","CANCER","6","0","4351",,,,,"1","2018-09-27 13:22:42","227130"
"A1PBSK32TV6H45","cs_wg_rev_conf_pilot1","345LHZDEDXTJUDKQ34FKAHCCKDC3UD","65","0","BASKET","15","ISLAND","5","1","320",,,,,"0","2018-09-27 13:22:42","227131"
"A3GJ5C141DP5EQ","cs_wg_rev_conf_pilot1","3I0BTBYZAXM4UU5YUIUQB4KIDP30YD","15","0","PUMPKIN","8","PENGUIN","6","0","3563",,,,,"0","2018-09-27 13:22:42","227132"
"A1V6MPL7396OE4","cs_wg_rev_conf_pilot1","3LYA37P8IQOAUCJROJQOMD1Q6ERBKF","2","0","LIQUID","6","SMOKER","1","0","3670",,,,,"0","2018-09-27 13:22:42","227133"
"AT3CZ2VR5A5U1","cs_wg_rev_conf_pilot1","32ZKVD547FO4YEBK3DYP5RKOVS5B34","17","0","SUNBURN","6","CANCER","5","0","2259",,,,,"1","2018-09-27 13:22:42","227134"
"A33VERUJLZ8H6P","cs_wg_rev_conf_pilot1","3QILPRALQ5WS0K6NIKYUN3STS3AN8W","19","0","ACROBAT","7","BUCKET","15","1","1860",,,,,"0","2018-09-27 13:22:42","227135"
"A1ZCKK5SH4WACZ","cs_wg_rev_conf_pilot1","3TEM0PF1Q5Y1WJA7YM7CYJAHV1XD0I","23","0","BLANKET","8","SMOKER","15","1","1209",,,,,"0","2018-09-27 13:22:43","227136"
"A15935HVAR6XH","cs_wg_rev_conf_pilot1","3WETL7AQWT929YUB237C25KWLWJ53X","0","0","BLANKET","1","JACKET","8","1","21954",,,,,"1","2018-09-27 13:22:43","227137"
"A2R9VWNAOREXQ7","cs_wg_rev_conf_pilot1","3E4GGUZ1T8SG6ZJV5QXDLKYMC8E2K4","28","0","CHICKEN","8","CRICKET","15","1","2405",,,,,"1","2018-09-27 13:22:43","227138"
"A2FFNO6G4FEE2N","cs_wg_rev_conf_pilot1","3TAYZSBPLL9EUIW3AZ6FC6PWT2QS2A","0","0","PICKLE","15","PUMPKIN","1","0","6632",,,,,"1","2018-09-27 13:22:43","227139"
"A9MYSUUW9EU9N","cs_wg_rev_conf_pilot1","3SNLUL3WO4O0AHAF9AJK636TKZ2ULH","30","0","PUMPKIN","15","JACKET","8","0","1081",,,,,"0","2018-09-27 13:22:43","227140"
"A2T79473SWZ0L6","cs_wg_rev_conf_pilot1","3IKZ72A5B4H1FZGAQY40XV9FF7OFN6","17","0","BLANKET","15","PENGUIN","6","0","1534",,,,,"1","2018-09-27 13:22:44","227141"
"A1PBSK32TV6H45","cs_wg_rev_conf_pilot1","345LHZDEDXTJUDKQ34FKAHCCKDC3UD","66","0","SQUARE","6","GARBAGE","5","1","330",,,,,"0","2018-09-27 13:22:44","227142"
"A1HOBE19VQET60","cs_wg_rev_conf_pilot1","3G5F9DBFOPYY10GPNFERAXF5HP2VH0","28","0","RABBIT","7","VOLCANO","5","0","1262",,,,,"0","2018-09-27 13:22:44","227143"
"A5I193MWA21PS","cs_wg_rev_conf_pilot1","3PEIJLRY6TU82FG9IT19ZLMDCONXW5","23","0","BUCKET","8","BAMBOO","6","0","3237",,,,,"0","2018-09-27 13:22:44","227144"
"A1RO6JFAJZMGIU","cs_wg_rev_conf_pilot1","3LBXNTKX0RWXQJ31PIRHL1E2EN2X9F","1","0","POTATO","5","PEBBLE","5","1","9734",,,,,"1","2018-09-27 13:22:45","227145"
"A3K4JTRUZQD096","cs_wg_rev_conf_pilot1","3AMW0RGHOD3D6C5441059PNJHDAPNI","23","0","LIZARD","6","BANQUET","6","0","1727",,,,,"0","2018-09-27 13:22:45","227146"
"A1PBSK32TV6H45","cs_wg_rev_conf_pilot1","345LHZDEDXTJUDKQ34FKAHCCKDC3UD","67","0","BAMBOO","6","SPATULA","6","0","294",,,,,"0","2018-09-27 13:22:46","227147"
"A3DZ46U9XRLVBI","cs_wg_rev_conf_pilot1","39LNWE0K4UXYKG29O7M7ENE13V8UI3","16","0","ARCADE","7","AVOCADO","5","0","4141",,,,,"1","2018-09-27 13:22:46","227148"
"A3GJ5C141DP5EQ","cs_wg_rev_conf_pilot1","3I0BTBYZAXM4UU5YUIUQB4KIDP30YD","16","0","PALACE","6","PENGUIN","6","1","2039",,,,,"0","2018-09-27 13:22:46","227149"
"A2YJ0H0QAAQC8N","cs_wg_rev_conf_pilot1","3VP0C6EFSGXZEO2ZD4MWQA72HIB6MU","7","0","CHICKEN","8","PICKLE","1","0","3846",,,,,"0","2018-09-27 13:22:46","227150"
"A1DBCHREMYNOVT","cs_wg_rev_conf_pilot1","3B1NLC6UGZX7WKOIHXNAJ5EMG1OPGA","35","0","CANCER","7","PALACE","7","1","3161",,,,,"1","2018-09-27 13:22:46","227151"
"A9MYSUUW9EU9N","cs_wg_rev_conf_pilot1","3SNLUL3WO4O0AHAF9AJK636TKZ2ULH","31","0","JACKET","8","BASKET","1","0","2056",,,,,"0","2018-09-27 13:22:47","227152"
"A33VERUJLZ8H6P","cs_wg_rev_conf_pilot1","3QILPRALQ5WS0K6NIKYUN3STS3AN8W","20","0","CHICKEN","1","GARBAGE","5","1","2584",,,,,"0","2018-09-27 13:22:47","227153"
"A2T79473SWZ0L6","cs_wg_rev_conf_pilot1","3IKZ72A5B4H1FZGAQY40XV9FF7OFN6","18","0","BASKET","8","BUCKET","1","0","1669",,,,,"1","2018-09-27 13:22:47","227154"
"AT3CZ2VR5A5U1","cs_wg_rev_conf_pilot1","32ZKVD547FO4YEBK3DYP5RKOVS5B34","18","0","ARCADE","5","ISLAND","7","1","2576",,,,,"1","2018-09-27 13:22:47","227155"
"A1PBSK32TV6H45","cs_wg_rev_conf_pilot1","345LHZDEDXTJUDKQ34FKAHCCKDC3UD","68","0","ISLAND","5","CHICKEN","1","0","117",,,,,"0","2018-09-27 13:22:47","227156"
"A1HOBE19VQET60","cs_wg_rev_conf_pilot1","3G5F9DBFOPYY10GPNFERAXF5HP2VH0","29","0","PICTURE","6","BLANKET","15","1","1497",,,,,"0","2018-09-27 13:22:47","227157"
"A10C3NA0KXOFDD","cs_wg_rev_conf_pilot1","3GLB5JMZFXWY7NLSCOWFJBXX2IMGDO","2","0","ISLAND","6","SMOKER","15","1","3101",,,,,"1","2018-09-27 13:22:47","227158"
"A2R9VWNAOREXQ7","cs_wg_rev_conf_pilot1","3E4GGUZ1T8SG6ZJV5QXDLKYMC8E2K4","29","0","GARBAGE","7","COWBOY","5","0","2095",,,,,"1","2018-09-27 13:22:47","227159"
"A1ZCKK5SH4WACZ","cs_wg_rev_conf_pilot1","3TEM0PF1Q5Y1WJA7YM7CYJAHV1XD0I","24","0","CANCER","7","GARBAGE","7","0","3112",,,,,"0","2018-09-27 13:22:48","227160"
"A2HW4UCKTT6JP2","cs_wg_rev_conf_pilot1","3YOH7BII098P3QHXT0HONPVX967KVU","4","0","GRENADE","6","BLANKET","8","1","9920",,,,,"1","2018-09-27 13:22:48","227161"
"A1APRIR2E2D5YZ","cs_wg_rev_conf_pilot1","3OJSZ2ATDSXKAHVY4FA2FMWCQY5572","16","0","CRICKET","8","ARCADE","7","0","3682",,,,,"0","2018-09-27 13:22:48","227162"
"A1517L56OPXUPV","cs_wg_rev_conf_pilot1","3EKVH9QMEY58STDLD9BQH73WSZHD22","11","0","GRENADE","6","ISLAND","7","1","4211",,,,,"1","2018-09-27 13:22:48","227163"
"A3FOZW3TFS6KMN","cs_wg_rev_conf_pilot1","3Q8GYXHFEP3QMYQUVWIDV8OQR9W5CV","10","0","BAMBOO","5","BANANA","7","1","4667",,,,,"1","2018-09-27 13:22:48","227164"
"A2VC1UC5Q0E9PO","cs_wg_rev_conf_pilot1","3YZ8UPK3VTN77DG9WXQL3KG6QQOUC1","7","0","COWBOY","6","CRICKET","1","0","7012",,,,,"0","2018-09-27 13:22:49","227165"
"A9MYSUUW9EU9N","cs_wg_rev_conf_pilot1","3SNLUL3WO4O0AHAF9AJK636TKZ2ULH","32","0","PUMPKIN","15","JACKET","8","0","726",,,,,"0","2018-09-27 13:22:49","227166"
"A2FFNO6G4FEE2N","cs_wg_rev_conf_pilot1","3TAYZSBPLL9EUIW3AZ6FC6PWT2QS2A","1","0","BANQUET","6","TOMATO","6","0","3165",,,,,"1","2018-09-27 13:22:49","227167"
"A1PBSK32TV6H45","cs_wg_rev_conf_pilot1","345LHZDEDXTJUDKQ34FKAHCCKDC3UD","69","0","COWBOY","7","CANCER","5","0","299",,,,,"0","2018-09-27 13:22:49","227168"
"AI7UP9IEECATY","cs_wg_rev_conf_pilot1","3HMVI3QICJT41JQGQ1YQP93SIH8Y1D","0","0","MONKEY","15","PEBBLE","5","0","4381",,,,,"0","2018-09-27 13:22:49","227169"
"A3GJ5C141DP5EQ","cs_wg_rev_conf_pilot1","3I0BTBYZAXM4UU5YUIUQB4KIDP30YD","17","0","BUCKET","1","CHICKEN","15","1","1335",,,,,"0","2018-09-27 13:22:50","227170"
"A3K4JTRUZQD096","cs_wg_rev_conf_pilot1","3AMW0RGHOD3D6C5441059PNJHDAPNI","24","0","TOMATO","5","BUCKET","1","1","2004",,,,,"0","2018-09-27 13:22:50","227171"
"A5I193MWA21PS","cs_wg_rev_conf_pilot1","3PEIJLRY6TU82FG9IT19ZLMDCONXW5","24","0","BAMBOO","6","PENGUIN","6","1","2908",,,,,"0","2018-09-27 13:22:50","227172"
"A2YJ0H0QAAQC8N","cs_wg_rev_conf_pilot1","3VP0C6EFSGXZEO2ZD4MWQA72HIB6MU","8","0","PICKLE","1","CHICKEN","8","1","1668",,,,,"0","2018-09-27 13:22:50","227173"
"A1V6MPL7396OE4","cs_wg_rev_conf_pilot1","3LYA37P8IQOAUCJROJQOMD1Q6ERBKF","3","0","MONKEY","15","SMOKER","1","0","4997",,,,,"0","2018-09-27 13:22:50","227174"
"A2T79473SWZ0L6","cs_wg_rev_conf_pilot1","3IKZ72A5B4H1FZGAQY40XV9FF7OFN6","19","0","BASKET","8","PENGUIN","6","0","1435",,,,,"1","2018-09-27 13:22:50","227175"
"A1ZCKK5SH4WACZ","cs_wg_rev_conf_pilot1","3TEM0PF1Q5Y1WJA7YM7CYJAHV1XD0I","25","0","CANCER","7","SQUARE","5","0","1355",,,,,"0","2018-09-27 13:22:51","227176"
"A1PBSK32TV6H45","cs_wg_rev_conf_pilot1","345LHZDEDXTJUDKQ34FKAHCCKDC3UD","70","0","PEBBLE","7","ISLAND","5","0","112",,,,,"0","2018-09-27 13:22:51","227177"
"AT3CZ2VR5A5U1","cs_wg_rev_conf_pilot1","32ZKVD547FO4YEBK3DYP5RKOVS5B34","19","0","CANCER","5","RABBIT","7","1","2221",,,,,"1","2018-09-27 13:22:51","227178"
"A33VERUJLZ8H6P","cs_wg_rev_conf_pilot1","3QILPRALQ5WS0K6NIKYUN3STS3AN8W","21","0","ACROBAT","7","GARBAGE","5","1","2334",,,,,"0","2018-09-27 13:22:52","227179"
"A1HOBE19VQET60","cs_wg_rev_conf_pilot1","3G5F9DBFOPYY10GPNFERAXF5HP2VH0","30","0","LIZARD","6","RABBIT","7","1","2222",,,,,"0","2018-09-27 13:22:52","227180"
"A3DZ46U9XRLVBI","cs_wg_rev_conf_pilot1","39LNWE0K4UXYKG29O7M7ENE13V8UI3","17","0","TURKEY","15","CANCER","7","0","3980",,,,,"1","2018-09-27 13:22:52","227181"
"A9MYSUUW9EU9N","cs_wg_rev_conf_pilot1","3SNLUL3WO4O0AHAF9AJK636TKZ2ULH","33","0","JACKET","8","BASKET","1","0","2389",,,,,"0","2018-09-27 13:22:52","227182"
"A3GJ5C141DP5EQ","cs_wg_rev_conf_pilot1","3I0BTBYZAXM4UU5YUIUQB4KIDP30YD","18","0","CHICKEN","15","PENGUIN","6","0","1583",,,,,"0","2018-09-27 13:22:53","227183"
"A1PBSK32TV6H45","cs_wg_rev_conf_pilot1","345LHZDEDXTJUDKQ34FKAHCCKDC3UD","71","0","SQUARE","6","SPATULA","6","1","376",,,,,"0","2018-09-27 13:22:53","227184"
"A2R9VWNAOREXQ7","cs_wg_rev_conf_pilot1","3E4GGUZ1T8SG6ZJV5QXDLKYMC8E2K4","30","0","ISLAND","7","CRICKET","15","1","2685",,,,,"1","2018-09-27 13:22:53","227185"
"A1517L56OPXUPV","cs_wg_rev_conf_pilot1","3EKVH9QMEY58STDLD9BQH73WSZHD22","12","0","SMOKER","1","BANQUET","6","1","2978",,,,,"1","2018-09-27 13:22:53","227186"
"A1APRIR2E2D5YZ","cs_wg_rev_conf_pilot1","3OJSZ2ATDSXKAHVY4FA2FMWCQY5572","17","0","PICKLE","1","COWBOY","6","1","2263",,,,,"0","2018-09-27 13:22:53","227187"
"A1RO6JFAJZMGIU","cs_wg_rev_conf_pilot1","3LBXNTKX0RWXQJ31PIRHL1E2EN2X9F","2","0","PELICAN","7","SMOKER","8","1","6143",,,,,"1","2018-09-27 13:22:54","227188"
"A3FOZW3TFS6KMN","cs_wg_rev_conf_pilot1","3Q8GYXHFEP3QMYQUVWIDV8OQR9W5CV","11","0","ISLAND","7","VOLCANO","5","0","3668",,,,,"1","2018-09-27 13:22:54","227189"
"AI7UP9IEECATY","cs_wg_rev_conf_pilot1","3HMVI3QICJT41JQGQ1YQP93SIH8Y1D","1","0","PELICAN","5","MONKEY","15","1","1933",,,,,"0","2018-09-27 13:22:54","227190"
"A10C3NA0KXOFDD","cs_wg_rev_conf_pilot1","3GLB5JMZFXWY7NLSCOWFJBXX2IMGDO","3","0","SMOKER","15","MONKEY","8","0","4120",,,,,"1","2018-09-27 13:22:54","227191"
"A1DBCHREMYNOVT","cs_wg_rev_conf_pilot1","3B1NLC6UGZX7WKOIHXNAJ5EMG1OPGA","36","0","BAMBOO","5","PALACE","7","1","5585",,,,,"1","2018-09-27 13:22:54","227192"
"A5I193MWA21PS","cs_wg_rev_conf_pilot1","3PEIJLRY6TU82FG9IT19ZLMDCONXW5","25","0","PENGUIN","6","BAMBOO","6","1","2053",,,,,"0","2018-09-27 13:22:54","227193"
"AZ79FR04OLJx8","cs_wg_rev_conf_pilot1","39ZSFO5CA8XUFRMF6P77QOT1GAXUJF","3","0","COSTUME","6","POTATO","6","0","9326",,,,,"1","2018-09-27 13:22:54","227194"
"A2FFNO6G4FEE2N","cs_wg_rev_conf_pilot1","3TAYZSBPLL9EUIW3AZ6FC6PWT2QS2A","2","0","PUMPKIN","1","BANQUET","6","1","3111",,,,,"1","2018-09-27 13:22:54","227195"
"A3K4JTRUZQD096","cs_wg_rev_conf_pilot1","3AMW0RGHOD3D6C5441059PNJHDAPNI","25","0","PALACE","7","ARCADE","5","0","2096",,,,,"0","2018-09-27 13:22:54","227196"
"A3SJNWELU5GK75","cs_wg_rev_conf_pilot1","3X08E93BHVJXPLH7QOFF1EAGRIW66K","3","0","PUMPKIN","1","CHICKEN","15","1","10794",,,,,"1","2018-09-27 13:22:54","227197"
"A1PBSK32TV6H45","cs_wg_rev_conf_pilot1","345LHZDEDXTJUDKQ34FKAHCCKDC3UD","72","0","CANCER","5","COWBOY","7","1","147",,,,,"0","2018-09-27 13:22:54","227198"
"AT3CZ2VR5A5U1","cs_wg_rev_conf_pilot1","32ZKVD547FO4YEBK3DYP5RKOVS5B34","20","0","GRENADE","6","SQUARE","5","0","1552",,,,,"1","2018-09-27 13:22:55","227199"
"A9MYSUUW9EU9N","cs_wg_rev_conf_pilot1","3SNLUL3WO4O0AHAF9AJK636TKZ2ULH","34","0","SPATULA","6","PUMPKIN","15","1","1126",,,,,"0","2018-09-27 13:22:55","227200"
"A1ZCKK5SH4WACZ","cs_wg_rev_conf_pilot1","3TEM0PF1Q5Y1WJA7YM7CYJAHV1XD0I","26","0","BLANKET","8","GARBAGE","7","0","1415",,,,,"0","2018-09-27 13:22:55","227201"
"A2HW4UCKTT6JP2","cs_wg_rev_conf_pilot1","3YOH7BII098P3QHXT0HONPVX967KVU","5","0","BLANKET","8","SMOKER","15","1","4780",,,,,"1","2018-09-27 13:22:55","227202"
"A33VERUJLZ8H6P","cs_wg_rev_conf_pilot1","3QILPRALQ5WS0K6NIKYUN3STS3AN8W","22","0","AVOCADO","5","GRENADE","5","0","1357",,,,,"0","2018-09-27 13:22:55","227203"
"A2YJ0H0QAAQC8N","cs_wg_rev_conf_pilot1","3VP0C6EFSGXZEO2ZD4MWQA72HIB6MU","9","0","SQUARE","6","CHICKEN","8","1","3860",,,,,"0","2018-09-27 13:22:56","227204"
"A1PBSK32TV6H45","cs_wg_rev_conf_pilot1","345LHZDEDXTJUDKQ34FKAHCCKDC3UD","73","0","SQUARE","6","ISLAND","5","1","280",,,,,"0","2018-09-27 13:22:56","227205"
"A3CLGH6R9XA2Z1","cs_wg_rev_conf_pilot1","3X4MXAO0BGPO5JUX9UVHA30PB73WR9","0","0","WIZARD","5","ACROBAT","7","1","9127",,,,,"1","2018-09-27 13:22:56","227206"
"A1HOBE19VQET60","cs_wg_rev_conf_pilot1","3G5F9DBFOPYY10GPNFERAXF5HP2VH0","31","0","PICTURE","6","VOLCANO","5","1","3011",,,,,"0","2018-09-27 13:22:57","227207"
"A1517L56OPXUPV","cs_wg_rev_conf_pilot1","3EKVH9QMEY58STDLD9BQH73WSZHD22","13","0","LIZARD","5","PALACE","7","0","2377",,,,,"0","2018-09-27 13:22:57","227208"
"A1PX33VIPIDIR1","cs_wg_rev_conf_pilot1","36U2A8VAG1067KC2YB48UOZRRN9KY3","0","0","AIRBAG","5","BICYCLE","6","1","18740",,,,,"1","2018-09-27 13:22:57","227209"
"A1DBCHREMYNOVT","cs_wg_rev_conf_pilot1","3B1NLC6UGZX7WKOIHXNAJ5EMG1OPGA","37","0","MONKEY","15","BAMBOO","5","0","1513",,,,,"0","2018-09-27 13:22:57","227210"
"AT3CZ2VR5A5U1","cs_wg_rev_conf_pilot1","32ZKVD547FO4YEBK3DYP5RKOVS5B34","21","0","JACKET","8","ISLAND","7","0","1486",,,,,"1","2018-09-27 13:22:58","227211"
"A1ZCKK5SH4WACZ","cs_wg_rev_conf_pilot1","3TEM0PF1Q5Y1WJA7YM7CYJAHV1XD0I","27","0","BANQUET","6","GARBAGE","7","1","1108",,,,,"0","2018-09-27 13:22:58","227212"
"A1PBSK32TV6H45","cs_wg_rev_conf_pilot1","345LHZDEDXTJUDKQ34FKAHCCKDC3UD","74","0","SQUARE","6","PEBBLE","7","0","94",,,,,"0","2018-09-27 13:22:58","227213"
"A2R9VWNAOREXQ7","cs_wg_rev_conf_pilot1","3E4GGUZ1T8SG6ZJV5QXDLKYMC8E2K4","31","0","COWBOY","5","CRICKET","15","1","3052",,,,,"1","2018-09-27 13:22:58","227214"
"A2FFNO6G4FEE2N","cs_wg_rev_conf_pilot1","3TAYZSBPLL9EUIW3AZ6FC6PWT2QS2A","3","0","MONKEY","8","BANQUET","6","0","2375",,,,,"1","2018-09-27 13:22:58","227215"
"A5I193MWA21PS","cs_wg_rev_conf_pilot1","3PEIJLRY6TU82FG9IT19ZLMDCONXW5","26","0","BAMBOO","6","BLANKET","15","1","1013",,,,,"0","2018-09-27 13:22:59","227216"
"A3GJ5C141DP5EQ","cs_wg_rev_conf_pilot1","3I0BTBYZAXM4UU5YUIUQB4KIDP30YD","19","0","BUCKET","1","PALACE","6","1","4011",,,,,"1","2018-09-27 13:22:59","227217"
"AI7UP9IEECATY","cs_wg_rev_conf_pilot1","3HMVI3QICJT41JQGQ1YQP93SIH8Y1D","2","0","COSTUME","6","LIZARD","7","1","1786",,,,,"0","2018-09-27 13:22:59","227218"
"A1V6MPL7396OE4","cs_wg_rev_conf_pilot1","3LYA37P8IQOAUCJROJQOMD1Q6ERBKF","4","0","LIQUID","6","MONKEY","15","0","6026",,,,,"0","2018-09-27 13:22:59","227219"
"A3K4JTRUZQD096","cs_wg_rev_conf_pilot1","3AMW0RGHOD3D6C5441059PNJHDAPNI","26","0","CANCER","6","PALACE","7","0","2773",,,,,"0","2018-09-27 13:22:59","227220"
"A3FOZW3TFS6KMN","cs_wg_rev_conf_pilot1","3Q8GYXHFEP3QMYQUVWIDV8OQR9W5CV","12","0","BAMBOO","5","PENGUIN","6","1","3561",,,,,"1","2018-09-27 13:22:59","227221"
"A1APRIR2E2D5YZ","cs_wg_rev_conf_pilot1","3OJSZ2ATDSXKAHVY4FA2FMWCQY5572","18","0","ARCADE","7","COMPANY","6","0","2639",,,,,"0","2018-09-27 13:22:59","227222"
"A3DZ46U9XRLVBI","cs_wg_rev_conf_pilot1","39LNWE0K4UXYKG29O7M7ENE13V8UI3","18","0","TURKEY","15","CRICKET","1","0","5314",,,,,"1","2018-09-27 13:23:00","227223"
"A1PBSK32TV6H45","cs_wg_rev_conf_pilot1","345LHZDEDXTJUDKQ34FKAHCCKDC3UD","75","0","BAMBOO","6","PEBBLE","7","0","251",,,,,"0","2018-09-27 13:23:00","227224"
"A33VERUJLZ8H6P","cs_wg_rev_conf_pilot1","3QILPRALQ5WS0K6NIKYUN3STS3AN8W","23","0","SUNBURN","6","ACROBAT","7","0","2523",,,,,"0","2018-09-27 13:23:00","227225"
"A2VC1UC5Q0E9PO","cs_wg_rev_conf_pilot1","3YZ8UPK3VTN77DG9WXQL3KG6QQOUC1","8","0","JACKET","8","BANQUET","6","0","6436",,,,,"0","2018-09-27 13:23:00","227226"
"A3SJNWELU5GK75","cs_wg_rev_conf_pilot1","3X08E93BHVJXPLH7QOFF1EAGRIW66K","4","0","CHICKEN","15","BICYCLE","6","0","3713",,,,,"0","2018-09-27 13:23:01","227227"
"A15935HVAR6XH","cs_wg_rev_conf_pilot1","3WETL7AQWT929YUB237C25KWLWJ53X","1","0","AVOCADO","7","ACROBAT","5","0","13917",,,,,"1","2018-09-27 13:23:01","227228"
"A5I193MWA21PS","cs_wg_rev_conf_pilot1","3PEIJLRY6TU82FG9IT19ZLMDCONXW5","27","0","BLANKET","15","BAMBOO","6","0","805",,,,,"0","2018-09-27 13:23:01","227229"
"A35BDRQ915O6VO","cs_wg_rev_conf_pilot1","36ZN444YTRZ37BICSLAYFHMCL9LIOF","0","0","WIZARD","6","PUMPKIN","1","0","9017",,,,,"1","2018-09-27 13:23:01","227230"
"A1ZCKK5SH4WACZ","cs_wg_rev_conf_pilot1","3TEM0PF1Q5Y1WJA7YM7CYJAHV1XD0I","28","0","AVOCADO","7","BANANA","5","0","1061",,,,,"0","2018-09-27 13:23:01","227231"
"A1517L56OPXUPV","cs_wg_rev_conf_pilot1","3EKVH9QMEY58STDLD9BQH73WSZHD22","14","0","BASKET","8","COWBOY","6","0","1959",,,,,"1","2018-09-27 13:23:01","227232"
"A1PBSK32TV6H45","cs_wg_rev_conf_pilot1","345LHZDEDXTJUDKQ34FKAHCCKDC3UD","76","0","SPATULA","6","ACROBAT","7","1","188",,,,,"0","2018-09-27 13:23:02","227233"
"AT3CZ2VR5A5U1","cs_wg_rev_conf_pilot1","32ZKVD547FO4YEBK3DYP5RKOVS5B34","22","0","ARCADE","5","GRENADE","6","1","2085",,,,,"1","2018-09-27 13:23:02","227234"
"A10C3NA0KXOFDD","cs_wg_rev_conf_pilot1","3GLB5JMZFXWY7NLSCOWFJBXX2IMGDO","4","0","MONKEY","8","ISLAND","6","0","3808",,,,,"1","2018-09-27 13:23:02","227235"
"A1DBCHREMYNOVT","cs_wg_rev_conf_pilot1","3B1NLC6UGZX7WKOIHXNAJ5EMG1OPGA","38","0","BAMBOO","5","POTATO","7","1","2880",,,,,"1","2018-09-27 13:23:02","227236"
"A3GJ5C141DP5EQ","cs_wg_rev_conf_pilot1","3I0BTBYZAXM4UU5YUIUQB4KIDP30YD","20","0","PALACE","6","PUMPKIN","8","1","1790",,,,,"0","2018-09-27 13:23:02","227237"
"AI7UP9IEECATY","cs_wg_rev_conf_pilot1","3HMVI3QICJT41JQGQ1YQP93SIH8Y1D","3","0","COSTUME","6","MONKEY","15","1","1248",,,,,"0","2018-09-27 13:23:03","227238"
"A2FFNO6G4FEE2N","cs_wg_rev_conf_pilot1","3TAYZSBPLL9EUIW3AZ6FC6PWT2QS2A","4","0","PUMPKIN","1","PICKLE","15","1","2783",,,,,"1","2018-09-27 13:23:03","227239"
"A2HW4UCKTT6JP2","cs_wg_rev_conf_pilot1","3YOH7BII098P3QHXT0HONPVX967KVU","6","0","BLANKET","8","PENGUIN","6","0","5524",,,,,"1","2018-09-27 13:23:03","227240"
"A2R9VWNAOREXQ7","cs_wg_rev_conf_pilot1","3E4GGUZ1T8SG6ZJV5QXDLKYMC8E2K4","32","0","AIRBAG","6","VOLCANO","7","1","2187",,,,,"1","2018-09-27 13:23:03","227241"
"A9MYSUUW9EU9N","cs_wg_rev_conf_pilot1","3SNLUL3WO4O0AHAF9AJK636TKZ2ULH","35","0","BAMBOO","6","BASKET","1","0","5261",,,,,"0","2018-09-27 13:23:03","227242"
"A2YJ0H0QAAQC8N","cs_wg_rev_conf_pilot1","3VP0C6EFSGXZEO2ZD4MWQA72HIB6MU","10","0","SUNBURN","6","SQUARE","6","0","5030",,,,,"0","2018-09-27 13:23:03","227243"
"A1PBSK32TV6H45","cs_wg_rev_conf_pilot1","345LHZDEDXTJUDKQ34FKAHCCKDC3UD","77","0","PUMPKIN","8","BASKET","15","1","226",,,,,"0","2018-09-27 13:23:04","227244"
"A1HOBE19VQET60","cs_wg_rev_conf_pilot1","3G5F9DBFOPYY10GPNFERAXF5HP2VH0","32","0","PICTURE","6","RABBIT","7","1","3593",,,,,"0","2018-09-27 13:23:04","227245"
"A33VERUJLZ8H6P","cs_wg_rev_conf_pilot1","3QILPRALQ5WS0K6NIKYUN3STS3AN8W","24","0","GARBAGE","5","CHICKEN","1","0","1971",,,,,"0","2018-09-27 13:23:04","227246"
"A2T79473SWZ0L6","cs_wg_rev_conf_pilot1","3IKZ72A5B4H1FZGAQY40XV9FF7OFN6","20","0","VOLCANO","6","BLANKET","15","0","7923",,,,,"0","2018-09-27 13:23:04","227247"
"A1ZCKK5SH4WACZ","cs_wg_rev_conf_pilot1","3TEM0PF1Q5Y1WJA7YM7CYJAHV1XD0I","29","0","RABBIT","5","SMOKER","15","1","928",,,,,"0","2018-09-27 13:23:04","227248"
"A5I193MWA21PS","cs_wg_rev_conf_pilot1","3PEIJLRY6TU82FG9IT19ZLMDCONXW5","28","0","PENGUIN","6","BUCKET","8","1","1206",,,,,"0","2018-09-27 13:23:04","227249"
"A1RO6JFAJZMGIU","cs_wg_rev_conf_pilot1","3LBXNTKX0RWXQJ31PIRHL1E2EN2X9F","3","0","PEBBLE","5","JACKET","1","0","8024",,,,,"1","2018-09-27 13:23:04","227250"
"A1APRIR2E2D5YZ","cs_wg_rev_conf_pilot1","3OJSZ2ATDSXKAHVY4FA2FMWCQY5572","19","0","AIRBAG","5","SPATULA","6","0","2365",,,,,"0","2018-09-27 13:23:04","227251"
"A3CLGH6R9XA2Z1","cs_wg_rev_conf_pilot1","3X4MXAO0BGPO5JUX9UVHA30PB73WR9","1","0","AVOCADO","5","WIZARD","5","0","5670",,,,,"1","2018-09-27 13:23:04","227252"
"AZ79FR04OLJx8","cs_wg_rev_conf_pilot1","39ZSFO5CA8XUFRMF6P77QOT1GAXUJF","4","0","POTATO","6","PICKLE","1","0","7819",,,,,"1","2018-09-27 13:23:05","227253"
"A1V6MPL7396OE4","cs_wg_rev_conf_pilot1","3LYA37P8IQOAUCJROJQOMD1Q6ERBKF","5","0","SMOKER","1","CHICKEN","8","1","2643",,,,,"0","2018-09-27 13:23:05","227254"
"A3K4JTRUZQD096","cs_wg_rev_conf_pilot1","3AMW0RGHOD3D6C5441059PNJHDAPNI","27","0","BUCKET","1","LIZARD","6","1","3902",,,,,"0","2018-09-27 13:23:05","227255"
"A3DZ46U9XRLVBI","cs_wg_rev_conf_pilot1","39LNWE0K4UXYKG29O7M7ENE13V8UI3","19","0","CANCER","7","SUNBURN","6","0","2939",,,,,"1","2018-09-27 13:23:05","227256"
"A1PBSK32TV6H45","cs_wg_rev_conf_pilot1","345LHZDEDXTJUDKQ34FKAHCCKDC3UD","78","0","COWBOY","7","CHICKEN","1","1","296",,,,,"0","2018-09-27 13:23:05","227257"
"A3UZCKBAXBO9WH","cs_wg_rev_conf_pilot1","3X31TUMD7XNK1KJH7M90V11W925L19","0","0","ARCADE","5","PALACE","5","0","9982",,,,,"1","2018-09-27 13:23:06","227258"
"A1517L56OPXUPV","cs_wg_rev_conf_pilot1","3EKVH9QMEY58STDLD9BQH73WSZHD22","15","0","ISLAND","7","LIZARD","5","0","2603",,,,,"1","2018-09-27 13:23:06","227259"
"A1DBCHREMYNOVT","cs_wg_rev_conf_pilot1","3B1NLC6UGZX7WKOIHXNAJ5EMG1OPGA","39","0","BAMBOO","5","MONKEY","15","1","1544",,,,,"0","2018-09-27 13:23:06","227260"
"A2VC1UC5Q0E9PO","cs_wg_rev_conf_pilot1","3YZ8UPK3VTN77DG9WXQL3KG6QQOUC1","9","0","BANQUET","6","JACKET","8","1","2909",,,,,"0","2018-09-27 13:23:06","227261"
"AT3CZ2VR5A5U1","cs_wg_rev_conf_pilot1","32ZKVD547FO4YEBK3DYP5RKOVS5B34","23","0","SUNBURN","6","ARCADE","5","0","2733",,,,,"1","2018-09-27 13:23:07","227262"
"A1ZCKK5SH4WACZ","cs_wg_rev_conf_pilot1","3TEM0PF1Q5Y1WJA7YM7CYJAHV1XD0I","30","0","COWBOY","6","SMOKER","15","1","894",,,,,"0","2018-09-27 13:23:07","227263"
"A1PBSK32TV6H45","cs_wg_rev_conf_pilot1","345LHZDEDXTJUDKQ34FKAHCCKDC3UD","79","0","SQUARE","6","BASKET","15","0","465",,,,,"0","2018-09-27 13:23:07","227264"
"A3GJ5C141DP5EQ","cs_wg_rev_conf_pilot1","3I0BTBYZAXM4UU5YUIUQB4KIDP30YD","21","0","PALACE","6","PUMPKIN","8","1","2644",,,,,"0","2018-09-27 13:23:07","227265"
"A9MYSUUW9EU9N","cs_wg_rev_conf_pilot1","3SNLUL3WO4O0AHAF9AJK636TKZ2ULH","36","0","SPATULA","6","BASKET","1","0","1130",,,,,"0","2018-09-27 13:23:07","227266"
"AI7UP9IEECATY","cs_wg_rev_conf_pilot1","3HMVI3QICJT41JQGQ1YQP93SIH8Y1D","4","0","BUCKET","8","GARBAGE","7","0","1617",,,,,"0","2018-09-27 13:23:07","227267"
"A5I193MWA21PS","cs_wg_rev_conf_pilot1","3PEIJLRY6TU82FG9IT19ZLMDCONXW5","29","0","BLANKET","15","PENGUIN","6","0","1185",,,,,"0","2018-09-27 13:23:08","227268"
"A2YJ0H0QAAQC8N","cs_wg_rev_conf_pilot1","3VP0C6EFSGXZEO2ZD4MWQA72HIB6MU","11","0","SQUARE","6","PICKLE","1","0","2953",,,,,"0","2018-09-27 13:23:08","227269"
"A2FFNO6G4FEE2N","cs_wg_rev_conf_pilot1","3TAYZSBPLL9EUIW3AZ6FC6PWT2QS2A","5","0","BANQUET","6","PICKLE","15","1","3146",,,,,"1","2018-09-27 13:23:08","227270"
"A3FOZW3TFS6KMN","cs_wg_rev_conf_pilot1","3Q8GYXHFEP3QMYQUVWIDV8OQR9W5CV","13","0","BAMBOO","5","VOLCANO","5","0","6923",,,,,"1","2018-09-27 13:23:09","227271"
"A2R9VWNAOREXQ7","cs_wg_rev_conf_pilot1","3E4GGUZ1T8SG6ZJV5QXDLKYMC8E2K4","33","0","CRICKET","15","BUCKET","1","0","3123",,,,,"1","2018-09-27 13:23:09","227272"
"A1PBSK32TV6H45","cs_wg_rev_conf_pilot1","345LHZDEDXTJUDKQ34FKAHCCKDC3UD","80","0","CHICKEN","1","CANCER","5","1","413",,,,,"0","2018-09-27 13:23:09","227273"
"A1V6MPL7396OE4","cs_wg_rev_conf_pilot1","3LYA37P8IQOAUCJROJQOMD1Q6ERBKF","6","0","MONKEY","15","LIQUID","6","0","2333",,,,,"0","2018-09-27 13:23:10","227274"
"A3K4JTRUZQD096","cs_wg_rev_conf_pilot1","3AMW0RGHOD3D6C5441059PNJHDAPNI","28","0","CANCER","6","ACROBAT","5","0","1509",,,,,"0","2018-09-27 13:23:10","227275"
"A2T79473SWZ0L6","cs_wg_rev_conf_pilot1","3IKZ72A5B4H1FZGAQY40XV9FF7OFN6","21","0","PENGUIN","6","VOLCANO","6","0","4199",,,,,"0","2018-09-27 13:23:10","227276"
"A1517L56OPXUPV","cs_wg_rev_conf_pilot1","3EKVH9QMEY58STDLD9BQH73WSZHD22","16","0","PEBBLE","5","GRENADE","6","1","2361",,,,,"1","2018-09-27 13:23:10","227277"
"A10C3NA0KXOFDD","cs_wg_rev_conf_pilot1","3GLB5JMZFXWY7NLSCOWFJBXX2IMGDO","5","0","ISLAND","6","SMOKER","15","1","4746",,,,,"1","2018-09-27 13:23:10","227278"
"A9MYSUUW9EU9N","cs_wg_rev_conf_pilot1","3SNLUL3WO4O0AHAF9AJK636TKZ2ULH","37","0","SPATULA","6","BASKET","1","0","1696",,,,,"0","2018-09-27 13:23:10","227279"
"A3GJ5C141DP5EQ","cs_wg_rev_conf_pilot1","3I0BTBYZAXM4UU5YUIUQB4KIDP30YD","22","0","PUMPKIN","8","BUCKET","1","0","1692",,,,,"0","2018-09-27 13:23:11","227280"
"A1PX33VIPIDIR1","cs_wg_rev_conf_pilot1","36U2A8VAG1067KC2YB48UOZRRN9KY3","1","0","PELICAN","5","RABBIT","7","1","11134",,,,,"1","2018-09-27 13:23:11","227281"
"AT3CZ2VR5A5U1","cs_wg_rev_conf_pilot1","32ZKVD547FO4YEBK3DYP5RKOVS5B34","24","0","SUNBURN","6","GRENADE","6","0","2340",,,,,"1","2018-09-27 13:23:11","227282"
"A1PBSK32TV6H45","cs_wg_rev_conf_pilot1","345LHZDEDXTJUDKQ34FKAHCCKDC3UD","81","0","PUMPKIN","8","GARBAGE","5","1","299",,,,,"0","2018-09-27 13:23:11","227283"
"A1ZCKK5SH4WACZ","cs_wg_rev_conf_pilot1","3TEM0PF1Q5Y1WJA7YM7CYJAHV1XD0I","31","0","COWBOY","6","BLANKET","8","0","2206",,,,,"0","2018-09-27 13:23:11","227284"
"A1HOBE19VQET60","cs_wg_rev_conf_pilot1","3G5F9DBFOPYY10GPNFERAXF5HP2VH0","33","0","PUMPKIN","8","POTATO","7","1","4777",,,,,"0","2018-09-27 13:23:11","227285"
"AI7UP9IEECATY","cs_wg_rev_conf_pilot1","3HMVI3QICJT41JQGQ1YQP93SIH8Y1D","5","0","GRENADE","6","BUCKET","8","1","1229",,,,,"0","2018-09-27 13:23:11","227286"
"A1DBCHREMYNOVT","cs_wg_rev_conf_pilot1","3B1NLC6UGZX7WKOIHXNAJ5EMG1OPGA","40","0","COSTUME","6","SMOKER","8","1","3133",,,,,"1","2018-09-27 13:23:11","227287"
"A3CLGH6R9XA2Z1","cs_wg_rev_conf_pilot1","3X4MXAO0BGPO5JUX9UVHA30PB73WR9","2","0","WIZARD","5","PALACE","6","1","4062",,,,,"1","2018-09-27 13:23:11","227288"
"A5I193MWA21PS","cs_wg_rev_conf_pilot1","3PEIJLRY6TU82FG9IT19ZLMDCONXW5","30","0","BUCKET","8","PENGUIN","6","0","1854",,,,,"0","2018-09-27 13:23:11","227289"
"A3SJNWELU5GK75","cs_wg_rev_conf_pilot1","3X08E93BHVJXPLH7QOFF1EAGRIW66K","5","0","BICYCLE","6","BUCKET","8","1","8824",,,,,"1","2018-09-27 13:23:12","227290"
"A2FFNO6G4FEE2N","cs_wg_rev_conf_pilot1","3TAYZSBPLL9EUIW3AZ6FC6PWT2QS2A","6","0","BANQUET","6","TOMATO","6","1","1974",,,,,"1","2018-09-27 13:23:12","227291"
"A9MYSUUW9EU9N","cs_wg_rev_conf_pilot1","3SNLUL3WO4O0AHAF9AJK636TKZ2ULH","38","0","PUMPKIN","15","BASKET","1","0","533",,,,,"0","2018-09-27 13:23:12","227292"
