"subject","version","assignmentId","trial","trial_type","word","value","alt","choice","rt","resp","resp2","stamp","id"
"A3FQDPUAXJB0BS","cs_wg_v3_poss_pilot1","3Z7ISHFUH0WMH9K6L89OIQZZ0LN8Z3","0","0","HELICOPTER","0","5","0","5451","HELICOPTER","0","2017-03-28 23:58:49","31166"
"A3FQDPUAXJB0BS","cs_wg_v3_poss_pilot1","3Z7ISHFUH0WMH9K6L89OIQZZ0LN8Z3","1","1","SUNLIGHT","5","5","1","9393","SUNLIGHT",,"2017-03-28 23:59:13","31167"
"A3FQDPUAXJB0BS","cs_wg_v3_poss_pilot1","3Z7ISHFUH0WMH9K6L89OIQZZ0LN8Z3","2","0","HELICOPTER","0","5","1","2050","HELICOPTER","0","2017-03-28 23:59:28","31168"
"A3FQDPUAXJB0BS","cs_wg_v3_poss_pilot1","3Z7ISHFUH0WMH9K6L89OIQZZ0LN8Z3","3","1","SUNLIGHT","5","5","1","1486","SUNLIGHT",,"2017-03-28 23:59:41","31169"
"A3FQDPUAXJB0BS","cs_wg_v3_poss_pilot1","3Z7ISHFUH0WMH9K6L89OIQZZ0LN8Z3","4","1","STRUCTURE","5","5","1","1598","STRUCTURE",,"2017-03-28 23:59:53","31170"
"A3FQDPUAXJB0BS","cs_wg_v3_poss_pilot1","3Z7ISHFUH0WMH9K6L89OIQZZ0LN8Z3","5","0","HELICOPTER","0","5","1","1353","HELICOPTER","0","2017-03-29 00:00:05","31171"
"A3FQDPUAXJB0BS","cs_wg_v3_poss_pilot1","3Z7ISHFUH0WMH9K6L89OIQZZ0LN8Z3","6","0","WEDDING","0","5","0","2167","WEDDING","0","2017-03-29 00:00:14","31172"
"A3FQDPUAXJB0BS","cs_wg_v3_poss_pilot1","3Z7ISHFUH0WMH9K6L89OIQZZ0LN8Z3","7","0","STOMACH","10","5","0","1459","STOMACH","10","2017-03-29 00:00:26","31173"
"A3FQDPUAXJB0BS","cs_wg_v3_poss_pilot1","3Z7ISHFUH0WMH9K6L89OIQZZ0LN8Z3","8","1","TRAFFIC","5","5","1","1355","TRAFFIC","0","2017-03-29 00:00:37","31174"
"A3FQDPUAXJB0BS","cs_wg_v3_poss_pilot1","3Z7ISHFUH0WMH9K6L89OIQZZ0LN8Z3","9","0","FOOTBALL","10","5","0","2337","FOOTBALL","10","2017-03-29 00:00:48","31175"
"A3FQDPUAXJB0BS","cs_wg_v3_poss_pilot1","3Z7ISHFUH0WMH9K6L89OIQZZ0LN8Z3","10","0","FOOTBALL","10","5","0","1313","FOOTBALL","10","2017-03-29 00:00:59","31176"
"A3FQDPUAXJB0BS","cs_wg_v3_poss_pilot1","3Z7ISHFUH0WMH9K6L89OIQZZ0LN8Z3","11","0","STOMACH","10","5","0","2638","STOMACH","10","2017-03-29 00:01:11","31177"
"A3FQDPUAXJB0BS","cs_wg_v3_poss_pilot1","3Z7ISHFUH0WMH9K6L89OIQZZ0LN8Z3","12","0","FOOTBALL","10","5","0","1459","FOOTBALL","10","2017-03-29 00:01:19","31178"
"A3FQDPUAXJB0BS","cs_wg_v3_poss_pilot1","3Z7ISHFUH0WMH9K6L89OIQZZ0LN8Z3","13","0","DOORWAY","0","5","0","1874","DOORWAY","0","2017-03-29 00:01:30","31179"
"A3FQDPUAXJB0BS","cs_wg_v3_poss_pilot1","3Z7ISHFUH0WMH9K6L89OIQZZ0LN8Z3","14","0","WEDDING","0","5","1","2637","WEDDING","0","2017-03-29 00:01:40","31180"
"A3FQDPUAXJB0BS","cs_wg_v3_poss_pilot1","3Z7ISHFUH0WMH9K6L89OIQZZ0LN8Z3","15","0","COMMUNITY","0","5","0","1261","COMMUNITY","0","2017-03-29 00:01:51","31181"
"A3FQDPUAXJB0BS","cs_wg_v3_poss_pilot1","3Z7ISHFUH0WMH9K6L89OIQZZ0LN8Z3","16","0","KEYBOARD","0","5","0","1189","KEYBOARD","0","2017-03-29 00:02:03","31182"
"A3FQDPUAXJB0BS","cs_wg_v3_poss_pilot1","3Z7ISHFUH0WMH9K6L89OIQZZ0LN8Z3","17","1","STRUCTURE","5","5","1","1382","STRUCTURE",,"2017-03-29 00:02:12","31183"
"A3FQDPUAXJB0BS","cs_wg_v3_poss_pilot1","3Z7ISHFUH0WMH9K6L89OIQZZ0LN8Z3","18","1","UMBRELLA","5","5","1","1433","UMBRELLA",,"2017-03-29 00:02:21","31184"
"A3FQDPUAXJB0BS","cs_wg_v3_poss_pilot1","3Z7ISHFUH0WMH9K6L89OIQZZ0LN8Z3","19","0","DOORWAY","0","5","1","3581","DOORWAY","0","2017-03-29 00:02:33","31185"
"A3FQDPUAXJB0BS","cs_wg_v3_poss_pilot1","3Z7ISHFUH0WMH9K6L89OIQZZ0LN8Z3","20","0","COMMUNITY","0","5","1","1271","COMMUNITY","0","2017-03-29 00:02:43","31186"
"A3FQDPUAXJB0BS","cs_wg_v3_poss_pilot1","3Z7ISHFUH0WMH9K6L89OIQZZ0LN8Z3","21","1","UMBRELLA","5","5","1","1343","UMBRELLA",,"2017-03-29 00:02:56","31187"
"A3FQDPUAXJB0BS","cs_wg_v3_poss_pilot1","3Z7ISHFUH0WMH9K6L89OIQZZ0LN8Z3","22","0","LADDER","10","5","0","1470","LADDER","10","2017-03-29 00:03:10","31188"
"A3FQDPUAXJB0BS","cs_wg_v3_poss_pilot1","3Z7ISHFUH0WMH9K6L89OIQZZ0LN8Z3","23","0","HELICOPTER","0","5","1","1469","HELICOPTER","0","2017-03-29 00:03:19","31189"
"A3FQDPUAXJB0BS","cs_wg_v3_poss_pilot1","3Z7ISHFUH0WMH9K6L89OIQZZ0LN8Z3","24","1","SUNLIGHT","5","5","1","1195","SUNLIGHT",,"2017-03-29 00:03:28","31190"
"A3FQDPUAXJB0BS","cs_wg_v3_poss_pilot1","3Z7ISHFUH0WMH9K6L89OIQZZ0LN8Z3","25","0","BOOKSHELF","10","5","0","1417","BOOKSHELF","10","2017-03-29 00:03:39","31191"
"A3FQDPUAXJB0BS","cs_wg_v3_poss_pilot1","3Z7ISHFUH0WMH9K6L89OIQZZ0LN8Z3","26","1","STRUCTURE","5","5","1","920","STRUCTURE",,"2017-03-29 00:03:47","31192"
"A3FQDPUAXJB0BS","cs_wg_v3_poss_pilot1","3Z7ISHFUH0WMH9K6L89OIQZZ0LN8Z3","27","0","KEYBOARD","0","5","1","1821","KEYBOARD","0","2017-03-29 00:03:56","31193"
"A3FQDPUAXJB0BS","cs_wg_v3_poss_pilot1","3Z7ISHFUH0WMH9K6L89OIQZZ0LN8Z3","28","1","BASKET","5","5","1","1545","BASKET",,"2017-03-29 00:04:04","31194"
"A3FQDPUAXJB0BS","cs_wg_v3_poss_pilot1","3Z7ISHFUH0WMH9K6L89OIQZZ0LN8Z3","29","0","STOMACH","10","5","0","6296","STOMACH","10","2017-03-29 00:04:21","31195"
"A3FQDPUAXJB0BS","cs_wg_v3_poss_pilot1","3Z7ISHFUH0WMH9K6L89OIQZZ0LN8Z3","30","1","BASKET","5","5","1","8223","BASKET",,"2017-03-29 00:04:35","31196"
"A3FQDPUAXJB0BS","cs_wg_v3_poss_pilot1","3Z7ISHFUH0WMH9K6L89OIQZZ0LN8Z3","31","0","MACHINE","10","5","0","1593","MACHINE","10","2017-03-29 00:04:46","31197"
"A3FQDPUAXJB0BS","cs_wg_v3_poss_pilot1","3Z7ISHFUH0WMH9K6L89OIQZZ0LN8Z3","32","0","COMMUNITY","0","5","1","1198","COMMUNITY","0","2017-03-29 00:04:56","31198"
"A3FQDPUAXJB0BS","cs_wg_v3_poss_pilot1","3Z7ISHFUH0WMH9K6L89OIQZZ0LN8Z3","33","1","TRAFFIC","5","5","1","1421","TRAFFIC",,"2017-03-29 00:05:07","31199"
"A3FQDPUAXJB0BS","cs_wg_v3_poss_pilot1","3Z7ISHFUH0WMH9K6L89OIQZZ0LN8Z3","34","0","MACHINE","10","5","0","1344","MACHINE","10","2017-03-29 00:05:19","31200"
"A3FQDPUAXJB0BS","cs_wg_v3_poss_pilot1","3Z7ISHFUH0WMH9K6L89OIQZZ0LN8Z3","35","0","MACHINE","10","5","0","1345","MACHINE","10","2017-03-29 00:05:30","31201"
"A3FQDPUAXJB0BS","cs_wg_v3_poss_pilot1","3Z7ISHFUH0WMH9K6L89OIQZZ0LN8Z3","36","1","TRAFFIC","5","5","1","1570","TRAFFIC",,"2017-03-29 00:05:39","31202"
"A3FQDPUAXJB0BS","cs_wg_v3_poss_pilot1","3Z7ISHFUH0WMH9K6L89OIQZZ0LN8Z3","37","1","SUNLIGHT","5","5","1","4126","SUNLIGHT",,"2017-03-29 00:05:52","31203"
"A3FQDPUAXJB0BS","cs_wg_v3_poss_pilot1","3Z7ISHFUH0WMH9K6L89OIQZZ0LN8Z3","38","0","DOORWAY","0","5","1","5321","DOORWAY","0","2017-03-29 00:06:04","31204"
"A3FQDPUAXJB0BS","cs_wg_v3_poss_pilot1","3Z7ISHFUH0WMH9K6L89OIQZZ0LN8Z3","39","0","BOOKSHELF","10","5","0","2545","BOOKSHELF","10","2017-03-29 00:06:13","31205"
"A3FQDPUAXJB0BS","cs_wg_v3_poss_pilot1","3Z7ISHFUH0WMH9K6L89OIQZZ0LN8Z3","40","1","SUNLIGHT","5","5","1","1898","SUNLIGHT",,"2017-03-29 00:06:30","31206"
"A3FQDPUAXJB0BS","cs_wg_v3_poss_pilot1","3Z7ISHFUH0WMH9K6L89OIQZZ0LN8Z3","41","1","BASKET","5","5","1","1219","BASKET",,"2017-03-29 00:06:37","31207"
"A3FQDPUAXJB0BS","cs_wg_v3_poss_pilot1","3Z7ISHFUH0WMH9K6L89OIQZZ0LN8Z3","42","0","LADDER","10","5","0","1972","LADDER","10","2017-03-29 00:06:58","31208"
"A3FQDPUAXJB0BS","cs_wg_v3_poss_pilot1","3Z7ISHFUH0WMH9K6L89OIQZZ0LN8Z3","43","0","BOOKSHELF","10","5","0","5836","BOOLSHELF","10","2017-03-29 00:07:15","31209"
"A3FQDPUAXJB0BS","cs_wg_v3_poss_pilot1","3Z7ISHFUH0WMH9K6L89OIQZZ0LN8Z3","44","0","BOOKSHELF","10","5","0","1095","BOOKSHELF","10","2017-03-29 00:07:24","31210"
"A3FQDPUAXJB0BS","cs_wg_v3_poss_pilot1","3Z7ISHFUH0WMH9K6L89OIQZZ0LN8Z3","45","0","HELICOPTER","0","5","1","1222","HELICOPTER","0","2017-03-29 00:07:35","31211"
"A3FQDPUAXJB0BS","cs_wg_v3_poss_pilot1","3Z7ISHFUH0WMH9K6L89OIQZZ0LN8Z3","46","0","STOMACH","10","5","0","2919","STOMACH","10","2017-03-29 00:07:52","31212"
"A3FQDPUAXJB0BS","cs_wg_v3_poss_pilot1","3Z7ISHFUH0WMH9K6L89OIQZZ0LN8Z3","47","0","COMMUNITY","0","5","1","1272","COMMUNITY","0","2017-03-29 00:08:04","31213"
"A3FQDPUAXJB0BS","cs_wg_v3_poss_pilot1","3Z7ISHFUH0WMH9K6L89OIQZZ0LN8Z3","48","0","HELICOPTER","0","5","1","1197","HELICOPTER","0","2017-03-29 00:08:14","31214"
"A3FQDPUAXJB0BS","cs_wg_v3_poss_pilot1","3Z7ISHFUH0WMH9K6L89OIQZZ0LN8Z3","49","0","WEDDING","0","5","1","1297","WEDDING","0","2017-03-29 00:08:22","31215"
"A3FQDPUAXJB0BS","cs_wg_v3_poss_pilot1","3Z7ISHFUH0WMH9K6L89OIQZZ0LN8Z3","50","0","MACHINE","10","5","0","1745","MACHINE","10","2017-03-29 00:08:35","31216"
"A3FQDPUAXJB0BS","cs_wg_v3_poss_pilot1","3Z7ISHFUH0WMH9K6L89OIQZZ0LN8Z3","51","0","COMMUNITY","0","5","1","1346","COMMUNITY","0","2017-03-29 00:08:46","31217"
"A3FQDPUAXJB0BS","cs_wg_v3_poss_pilot1","3Z7ISHFUH0WMH9K6L89OIQZZ0LN8Z3","52","1","SUNLIGHT","5","5","1","1522","SUNLIGHT",,"2017-03-29 00:09:00","31218"
"A3FQDPUAXJB0BS","cs_wg_v3_poss_pilot1","3Z7ISHFUH0WMH9K6L89OIQZZ0LN8Z3","53","0","LADDER","10","5","0","2970","LADDER","10","2017-03-29 00:09:14","31219"
"A3FQDPUAXJB0BS","cs_wg_v3_poss_pilot1","3Z7ISHFUH0WMH9K6L89OIQZZ0LN8Z3","54","0","BOOKSHELF","10","5","0","5323","BOOKSHELF","10","2017-03-29 00:09:27","31220"
"A3FQDPUAXJB0BS","cs_wg_v3_poss_pilot1","3Z7ISHFUH0WMH9K6L89OIQZZ0LN8Z3","55","0","WEDDING","0","5","1","1921","WEDDING","0","2017-03-29 00:09:35","31221"
"A3FQDPUAXJB0BS","cs_wg_v3_poss_pilot1","3Z7ISHFUH0WMH9K6L89OIQZZ0LN8Z3","56","0","WEDDING","0","5","1","1421","WEDDING","0","2017-03-29 00:09:46","31222"
"A3FQDPUAXJB0BS","cs_wg_v3_poss_pilot1","3Z7ISHFUH0WMH9K6L89OIQZZ0LN8Z3","57","0","WEDDING","0","5","1","895","WEDDING","0","2017-03-29 00:09:53","31223"
"A3FQDPUAXJB0BS","cs_wg_v3_poss_pilot1","3Z7ISHFUH0WMH9K6L89OIQZZ0LN8Z3","58","1","TRAFFIC","5","5","1","1374","TRAFFIC",,"2017-03-29 00:10:10","31224"
"A3FQDPUAXJB0BS","cs_wg_v3_poss_pilot1","3Z7ISHFUH0WMH9K6L89OIQZZ0LN8Z3","59","1","BASKET","5","5","1","1295","BASKET",,"2017-03-29 00:10:20","31225"
"A3FQDPUAXJB0BS","cs_wg_v3_poss_pilot1","3Z7ISHFUH0WMH9K6L89OIQZZ0LN8Z3","60","1","TRAFFIC","5","5","1","1296","TRAFFIC",,"2017-03-29 00:10:35","31226"
"A3ITZNJQUTIZ4C","cs_wg_v3_poss_pilot1","3DUZQ9U6SMPNR9U5Y9QQEBM4O4NVSP","0","1","KEYBOARD","5","5","1","6696","keyboard","5","2017-03-29 00:10:37","31227"
"A3FQDPUAXJB0BS","cs_wg_v3_poss_pilot1","3Z7ISHFUH0WMH9K6L89OIQZZ0LN8Z3","61","0","COMMUNITY","0","5","1","2122","COMMUNITY","0","2017-03-29 00:10:48","31228"
"A3FQDPUAXJB0BS","cs_wg_v3_poss_pilot1","3Z7ISHFUH0WMH9K6L89OIQZZ0LN8Z3","62","0","KEYBOARD","0","5","1","2674","KEYBOARD","0","2017-03-29 00:11:02","31229"
"A3FQDPUAXJB0BS","cs_wg_v3_poss_pilot1","3Z7ISHFUH0WMH9K6L89OIQZZ0LN8Z3","63","0","MACHINE","10","5","0","4021","MACHINE","10","2017-03-29 00:11:13","31230"
"A3ITZNJQUTIZ4C","cs_wg_v3_poss_pilot1","3DUZQ9U6SMPNR9U5Y9QQEBM4O4NVSP","1","0","DOORWAY","0","5","0","13504","doorway","0","2017-03-29 00:11:17","31231"
"A3FQDPUAXJB0BS","cs_wg_v3_poss_pilot1","3Z7ISHFUH0WMH9K6L89OIQZZ0LN8Z3","64","0","STOMACH","10","5","0","3269","STOMACH","10","2017-03-29 00:11:31","31232"
"A3ITZNJQUTIZ4C","cs_wg_v3_poss_pilot1","3DUZQ9U6SMPNR9U5Y9QQEBM4O4NVSP","2","0","WEDDING","0","5","0","7592","wedding","0","2017-03-29 00:11:41","31233"
"A3FQDPUAXJB0BS","cs_wg_v3_poss_pilot1","3Z7ISHFUH0WMH9K6L89OIQZZ0LN8Z3","65","0","KEYBOARD","0","5","1","4351","KEYBOARD","0","2017-03-29 00:11:48","31234"
"A3FQDPUAXJB0BS","cs_wg_v3_poss_pilot1","3Z7ISHFUH0WMH9K6L89OIQZZ0LN8Z3","66","0","HELICOPTER","0","5","1","1616","HELICOPTER","0","2017-03-29 00:11:59","31235"
"A3ITZNJQUTIZ4C","cs_wg_v3_poss_pilot1","3DUZQ9U6SMPNR9U5Y9QQEBM4O4NVSP","3","0","UMBRELLA","10","5","1","9109","umbrella","10","2017-03-29 00:12:09","31236"
"A3FQDPUAXJB0BS","cs_wg_v3_poss_pilot1","3Z7ISHFUH0WMH9K6L89OIQZZ0LN8Z3","67","0","LADDER","10","5","0","2722","LADDER","10","2017-03-29 00:12:14","31237"
"A3FQDPUAXJB0BS","cs_wg_v3_poss_pilot1","3Z7ISHFUH0WMH9K6L89OIQZZ0LN8Z3","68","0","BOOKSHELF","10","5","0","1622","LADDER","10","2017-03-29 00:12:31","31238"
"A3ITZNJQUTIZ4C","cs_wg_v3_poss_pilot1","3DUZQ9U6SMPNR9U5Y9QQEBM4O4NVSP","4","1","HELICOPTER","5","5","1","7462","helicopter",,"2017-03-29 00:12:33","31239"
"A3FQDPUAXJB0BS","cs_wg_v3_poss_pilot1","3Z7ISHFUH0WMH9K6L89OIQZZ0LN8Z3","69","0","BOOKSHELF","10","5","0","2396","BOOKSHELF","10","2017-03-29 00:12:42","31240"
"A3FQDPUAXJB0BS","cs_wg_v3_poss_pilot1","3Z7ISHFUH0WMH9K6L89OIQZZ0LN8Z3","70","1","BASKET","5","5","1","1246","BASKET",,"2017-03-29 00:12:54","31241"
"A3ITZNJQUTIZ4C","cs_wg_v3_poss_pilot1","3DUZQ9U6SMPNR9U5Y9QQEBM4O4NVSP","5","0","STOMACH","10","5","0","6356","stomach","10","2017-03-29 00:13:00","31242"
"A3FQDPUAXJB0BS","cs_wg_v3_poss_pilot1","3Z7ISHFUH0WMH9K6L89OIQZZ0LN8Z3","71","0","FOOTBALL","10","5","0","1695","FOOTBALL","10","2017-03-29 00:13:05","31243"
"A3FQDPUAXJB0BS","cs_wg_v3_poss_pilot1","3Z7ISHFUH0WMH9K6L89OIQZZ0LN8Z3","72","0","KEYBOARD","0","5","1","5999","KEYBOARD",,"2017-03-29 00:13:27","31244"
"A3ITZNJQUTIZ4C","cs_wg_v3_poss_pilot1","3DUZQ9U6SMPNR9U5Y9QQEBM4O4NVSP","6","0","MACHINE","10","5","0","5234","machine","10","2017-03-29 00:13:32","31245"
"A3FQDPUAXJB0BS","cs_wg_v3_poss_pilot1","3Z7ISHFUH0WMH9K6L89OIQZZ0LN8Z3","73","1","BASKET","5","5","1","4275","BASKET",,"2017-03-29 00:13:42","31246"
"A3ITZNJQUTIZ4C","cs_wg_v3_poss_pilot1","3DUZQ9U6SMPNR9U5Y9QQEBM4O4NVSP","7","0","DOORWAY","0","5","1","4462","doorway","0","2017-03-29 00:13:52","31247"
"A3FQDPUAXJB0BS","cs_wg_v3_poss_pilot1","3Z7ISHFUH0WMH9K6L89OIQZZ0LN8Z3","74","0","BOOKSHELF","10","5","0","11625","BOOKSHELF","10","2017-03-29 00:14:01","31248"
"A3ITZNJQUTIZ4C","cs_wg_v3_poss_pilot1","3DUZQ9U6SMPNR9U5Y9QQEBM4O4NVSP","8","0","COMMUNITY","0","5","0","6904","community","0","2017-03-29 00:14:13","31249"
"A3FQDPUAXJB0BS","cs_wg_v3_poss_pilot1","3Z7ISHFUH0WMH9K6L89OIQZZ0LN8Z3","75","0","MACHINE","10","5","0","6950","MACHINE","10","2017-03-29 00:14:22","31250"
"A3ITZNJQUTIZ4C","cs_wg_v3_poss_pilot1","3DUZQ9U6SMPNR9U5Y9QQEBM4O4NVSP","9","1","BOOKSHELF","5","5","1","9586","bookshelf",,"2017-03-29 00:14:33","31251"
"A3FQDPUAXJB0BS","cs_wg_v3_poss_pilot1","3Z7ISHFUH0WMH9K6L89OIQZZ0LN8Z3","76","1","STRUCTURE","5","5","1","1393","STRUCTURE",,"2017-03-29 00:14:34","31252"
"A3ITZNJQUTIZ4C","cs_wg_v3_poss_pilot1","3DUZQ9U6SMPNR9U5Y9QQEBM4O4NVSP","10","1","BOOKSHELF","5","5","1","3208","bookshelf",,"2017-03-29 00:14:49","31253"
"A3FQDPUAXJB0BS","cs_wg_v3_poss_pilot1","3Z7ISHFUH0WMH9K6L89OIQZZ0LN8Z3","77","1","TRAFFIC","5","5","1","3114","TRAFFIC",,"2017-03-29 00:14:55","31254"
"A3FQDPUAXJB0BS","cs_wg_v3_poss_pilot1","3Z7ISHFUH0WMH9K6L89OIQZZ0LN8Z3","78","0","MACHINE","10","5","0","1973","MACHINE","10","2017-03-29 00:15:08","31255"
"A3ITZNJQUTIZ4C","cs_wg_v3_poss_pilot1","3DUZQ9U6SMPNR9U5Y9QQEBM4O4NVSP","11","0","MACHINE","10","5","0","5576","machine","10","2017-03-29 00:15:25","31256"
"A3FQDPUAXJB0BS","cs_wg_v3_poss_pilot1","3Z7ISHFUH0WMH9K6L89OIQZZ0LN8Z3","79","0","HELICOPTER","0","5","1","5217","HELICOPTER","0","2017-03-29 00:15:25","31257"
"A3ITZNJQUTIZ4C","cs_wg_v3_poss_pilot1","3DUZQ9U6SMPNR9U5Y9QQEBM4O4NVSP","12","0","COMMUNITY","0","5","1","5097","community","0","2017-03-29 00:15:45","31258"
"A3FQDPUAXJB0BS","cs_wg_v3_poss_pilot1","3Z7ISHFUH0WMH9K6L89OIQZZ0LN8Z3","80","0","KEYBOARD","0","5","1","2657",,,"2017-03-29 00:15:55","31259"
"A3FQDPUAXJB0BS","cs_wg_v3_poss_pilot1","3Z7ISHFUH0WMH9K6L89OIQZZ0LN8Z3","81","0","LADDER","10","5","0","6513","LADDER","10","2017-03-29 00:16:12","31260"
"A3ITZNJQUTIZ4C","cs_wg_v3_poss_pilot1","3DUZQ9U6SMPNR9U5Y9QQEBM4O4NVSP","13","0","LADDER","10","5","0","7162","ladder","10","2017-03-29 00:16:13","31261"
"A3FQDPUAXJB0BS","cs_wg_v3_poss_pilot1","3Z7ISHFUH0WMH9K6L89OIQZZ0LN8Z3","82","0","COMMUNITY","0","5","1","3714","COMMUNITY","0","2017-03-29 00:16:28","31262"
"A3ITZNJQUTIZ4C","cs_wg_v3_poss_pilot1","3DUZQ9U6SMPNR9U5Y9QQEBM4O4NVSP","14","0","COMMUNITY","0","5","1","5251","community","0","2017-03-29 00:16:30","31263"
"A3FQDPUAXJB0BS","cs_wg_v3_poss_pilot1","3Z7ISHFUH0WMH9K6L89OIQZZ0LN8Z3","83","0","DOORWAY","0","5","1","3835","DOORWAY","0","2017-03-29 00:16:40","31264"
"A3ITZNJQUTIZ4C","cs_wg_v3_poss_pilot1","3DUZQ9U6SMPNR9U5Y9QQEBM4O4NVSP","15","0","LADDER","10","5","0","4556","ladder","10","2017-03-29 00:16:48","31265"
"A3FQDPUAXJB0BS","cs_wg_v3_poss_pilot1","3Z7ISHFUH0WMH9K6L89OIQZZ0LN8Z3","84","1","BASKET","5","5","1","1348","BASKET",,"2017-03-29 00:16:49","31266"
"A3FQDPUAXJB0BS","cs_wg_v3_poss_pilot1","3Z7ISHFUH0WMH9K6L89OIQZZ0LN8Z3","85","0","MACHINE","10","5","0","1437","MACHINE","10","2017-03-29 00:16:59","31267"
"A3ITZNJQUTIZ4C","cs_wg_v3_poss_pilot1","3DUZQ9U6SMPNR9U5Y9QQEBM4O4NVSP","16","0","LADDER","10","5","0","7246","ladder","10","2017-03-29 00:17:07","31268"
"A3FQDPUAXJB0BS","cs_wg_v3_poss_pilot1","3Z7ISHFUH0WMH9K6L89OIQZZ0LN8Z3","86","1","UMBRELLA","5","5","1","1105","UMBRELLA",,"2017-03-29 00:17:14","31269"
"A3ITZNJQUTIZ4C","cs_wg_v3_poss_pilot1","3DUZQ9U6SMPNR9U5Y9QQEBM4O4NVSP","17","1","SUNLIGHT","5","5","1","2642","sunlight",,"2017-03-29 00:17:22","31270"
"A3FQDPUAXJB0BS","cs_wg_v3_poss_pilot1","3Z7ISHFUH0WMH9K6L89OIQZZ0LN8Z3","87","1","STRUCTURE","5","5","1","1321","STRUCTURE",,"2017-03-29 00:17:24","31271"
"A3FQDPUAXJB0BS","cs_wg_v3_poss_pilot1","3Z7ISHFUH0WMH9K6L89OIQZZ0LN8Z3","88","1","SUNLIGHT","5","5","1","1164","SUNLIGHT",,"2017-03-29 00:17:33","31272"
"A3ITZNJQUTIZ4C","cs_wg_v3_poss_pilot1","3DUZQ9U6SMPNR9U5Y9QQEBM4O4NVSP","18","0","WEDDING","0","5","0","5658","wedding","0","2017-03-29 00:17:37","31273"
"A3FQDPUAXJB0BS","cs_wg_v3_poss_pilot1","3Z7ISHFUH0WMH9K6L89OIQZZ0LN8Z3","89","0","COMMUNITY","0","5","1","1236","COMMUNITY","0","2017-03-29 00:17:42","31274"
"A3ITZNJQUTIZ4C","cs_wg_v3_poss_pilot1","3DUZQ9U6SMPNR9U5Y9QQEBM4O4NVSP","19","1","SUNLIGHT","5","5","1","2772","sunlight",,"2017-03-29 00:17:51","31275"
"A3FQDPUAXJB0BS","cs_wg_v3_poss_pilot1","3Z7ISHFUH0WMH9K6L89OIQZZ0LN8Z3","90","0","KEYBOARD","0","5","1","1237","KEYBOARD","0","2017-03-29 00:17:57","31276"
"A3FQDPUAXJB0BS","cs_wg_v3_poss_pilot1","3Z7ISHFUH0WMH9K6L89OIQZZ0LN8Z3","91","1","UMBRELLA","5","5","1","1136","UMBRELLA",,"2017-03-29 00:18:07","31277"
"A3ITZNJQUTIZ4C","cs_wg_v3_poss_pilot1","3DUZQ9U6SMPNR9U5Y9QQEBM4O4NVSP","20","0","TRAFFIC","0","5","0","3508","traffic","0","2017-03-29 00:18:14","31278"
"A3FQDPUAXJB0BS","cs_wg_v3_poss_pilot1","3Z7ISHFUH0WMH9K6L89OIQZZ0LN8Z3","92","0","DOORWAY","0","5","1","1222","DOORWAY","0","2017-03-29 00:18:19","31279"
"A3FQDPUAXJB0BS","cs_wg_v3_poss_pilot1","3Z7ISHFUH0WMH9K6L89OIQZZ0LN8Z3","93","0","STOMACH","10","5","0","3878","STOMACH","10","2017-03-29 00:18:32","31280"
"A3ITZNJQUTIZ4C","cs_wg_v3_poss_pilot1","3DUZQ9U6SMPNR9U5Y9QQEBM4O4NVSP","21","1","BASKET","5","5","1","3277","basket",,"2017-03-29 00:18:36","31281"
"A3FQDPUAXJB0BS","cs_wg_v3_poss_pilot1","3Z7ISHFUH0WMH9K6L89OIQZZ0LN8Z3","94","1","TRAFFIC","5","5","1","3347","TRAFFIC",,"2017-03-29 00:18:44","31282"
"A3FQDPUAXJB0BS","cs_wg_v3_poss_pilot1","3Z7ISHFUH0WMH9K6L89OIQZZ0LN8Z3","95","0","FOOTBALL","10","5","0","2271","FOOTBALL","10","2017-03-29 00:18:59","31283"
"A3ITZNJQUTIZ4C","cs_wg_v3_poss_pilot1","3DUZQ9U6SMPNR9U5Y9QQEBM4O4NVSP","22","1","KEYBOARD","5","5","1","11001","keyboard",,"2017-03-29 00:19:02","31284"
"A3FQDPUAXJB0BS","cs_wg_v3_poss_pilot1","3Z7ISHFUH0WMH9K6L89OIQZZ0LN8Z3","96","0","DOORWAY","0","5","1","1891","DOORWAY","0","2017-03-29 00:19:09","31285"
"A3FQDPUAXJB0BS","cs_wg_v3_poss_pilot1","3Z7ISHFUH0WMH9K6L89OIQZZ0LN8Z3","97","0","WEDDING","0","5","1","1582","WEDDING","0","2017-03-29 00:19:18","31286"
"A3ITZNJQUTIZ4C","cs_wg_v3_poss_pilot1","3DUZQ9U6SMPNR9U5Y9QQEBM4O4NVSP","23","0","UMBRELLA","10","5","0","2939","umbrella","10","2017-03-29 00:19:19","31287"
"A3FQDPUAXJB0BS","cs_wg_v3_poss_pilot1","3Z7ISHFUH0WMH9K6L89OIQZZ0LN8Z3","98","0","STOMACH","10","5","0","1576","STOMACH","10","2017-03-29 00:19:29","31288"
"A3ITZNJQUTIZ4C","cs_wg_v3_poss_pilot1","3DUZQ9U6SMPNR9U5Y9QQEBM4O4NVSP","24","1","BASKET","5","5","1","5339","basket",,"2017-03-29 00:19:35","31289"
"A3FQDPUAXJB0BS","cs_wg_v3_poss_pilot1","3Z7ISHFUH0WMH9K6L89OIQZZ0LN8Z3","99","0","FOOTBALL","10","5","0","2135","FOOTBALL","10","2017-03-29 00:19:37","31290"
"A3FQDPUAXJB0BS","cs_wg_v3_poss_pilot1","3Z7ISHFUH0WMH9K6L89OIQZZ0LN8Z3","100","0","LADDER","10","5","0","2685","LADDER","10","2017-03-29 00:19:48","31291"
"A3ITZNJQUTIZ4C","cs_wg_v3_poss_pilot1","3DUZQ9U6SMPNR9U5Y9QQEBM4O4NVSP","25","0","LADDER","10","5","0","4373","ladder","10","2017-03-29 00:19:52","31292"
"A3FQDPUAXJB0BS","cs_wg_v3_poss_pilot1","3Z7ISHFUH0WMH9K6L89OIQZZ0LN8Z3","101","0","STOMACH","10","5","0","2149","STOMACH","10","2017-03-29 00:19:58","31293"
"A3ITZNJQUTIZ4C","cs_wg_v3_poss_pilot1","3DUZQ9U6SMPNR9U5Y9QQEBM4O4NVSP","26","0","LADDER","10","5","0","1850","ladder","10","2017-03-29 00:20:05","31294"
"A3FQDPUAXJB0BS","cs_wg_v3_poss_pilot1","3Z7ISHFUH0WMH9K6L89OIQZZ0LN8Z3","102","1","STRUCTURE","5","5","1","1189","STRUCTURE",,"2017-03-29 00:20:07","31295"
"A3FQDPUAXJB0BS","cs_wg_v3_poss_pilot1","3Z7ISHFUH0WMH9K6L89OIQZZ0LN8Z3","103","1","TRAFFIC","5","5","1","1282","TRAFFIC",,"2017-03-29 00:20:16","31296"
"A3FQDPUAXJB0BS","cs_wg_v3_poss_pilot1","3Z7ISHFUH0WMH9K6L89OIQZZ0LN8Z3","104","1","STRUCTURE","5","5","1","1363","STRUCTURE",,"2017-03-29 00:20:24","31297"
"A3ITZNJQUTIZ4C","cs_wg_v3_poss_pilot1","3DUZQ9U6SMPNR9U5Y9QQEBM4O4NVSP","27","0","STOMACH","10","5","0","3497","stomach","10","2017-03-29 00:20:24","31298"
"A3FQDPUAXJB0BS","cs_wg_v3_poss_pilot1","3Z7ISHFUH0WMH9K6L89OIQZZ0LN8Z3","105","1","UMBRELLA","5","5","1","2456","UMBRELLA",,"2017-03-29 00:20:34","31299"
"A3FQDPUAXJB0BS","cs_wg_v3_poss_pilot1","3Z7ISHFUH0WMH9K6L89OIQZZ0LN8Z3","106","1","UMBRELLA","5","5","1","1278","UMBRELLA",,"2017-03-29 00:20:43","31300"
"A3ITZNJQUTIZ4C","cs_wg_v3_poss_pilot1","3DUZQ9U6SMPNR9U5Y9QQEBM4O4NVSP","28","1","SUNLIGHT","5","5","1","4224","sunlight",,"2017-03-29 00:20:44","31301"
"A3FQDPUAXJB0BS","cs_wg_v3_poss_pilot1","3Z7ISHFUH0WMH9K6L89OIQZZ0LN8Z3","107","0","DOORWAY","0","5","1","2006","DOORWAY","0","2017-03-29 00:20:53","31302"
"A3FQDPUAXJB0BS","cs_wg_v3_poss_pilot1","3Z7ISHFUH0WMH9K6L89OIQZZ0LN8Z3","108","0","LADDER","10","5","0","1345","LADDER","10","2017-03-29 00:21:02","31303"
"A3FQDPUAXJB0BS","cs_wg_v3_poss_pilot1","3Z7ISHFUH0WMH9K6L89OIQZZ0LN8Z3","109","1","UMBRELLA","5","5","1","1192","UMBRELLA",,"2017-03-29 00:21:11","31304"
"A3ITZNJQUTIZ4C","cs_wg_v3_poss_pilot1","3DUZQ9U6SMPNR9U5Y9QQEBM4O4NVSP","29","0","UMBRELLA","10","5","0","16852","umbrella","10","2017-03-29 00:21:14","31305"
"A3FQDPUAXJB0BS","cs_wg_v3_poss_pilot1","3Z7ISHFUH0WMH9K6L89OIQZZ0LN8Z3","110","0","DOORWAY","0","5","1","1267","DOORWAY","0","2017-03-29 00:21:20","31306"
"A3FQDPUAXJB0BS","cs_wg_v3_poss_pilot1","3Z7ISHFUH0WMH9K6L89OIQZZ0LN8Z3","111","0","LADDER","10","5","0","1274","LADDER","10","2017-03-29 00:21:30","31307"
"A3ITZNJQUTIZ4C","cs_wg_v3_poss_pilot1","3DUZQ9U6SMPNR9U5Y9QQEBM4O4NVSP","30","0","FOOTBALL","0","5","0","7038","football","0","2017-03-29 00:21:35","31308"
"A3FQDPUAXJB0BS","cs_wg_v3_poss_pilot1","3Z7ISHFUH0WMH9K6L89OIQZZ0LN8Z3","112","1","BASKET","5","5","1","1216","BASKET",,"2017-03-29 00:21:38","31309"
"A3FQDPUAXJB0BS","cs_wg_v3_poss_pilot1","3Z7ISHFUH0WMH9K6L89OIQZZ0LN8Z3","113","0","WEDDING","0","5","1","1172","WEDDING","0","2017-03-29 00:21:47","31310"
"A3FQDPUAXJB0BS","cs_wg_v3_poss_pilot1","3Z7ISHFUH0WMH9K6L89OIQZZ0LN8Z3","114","1","UMBRELLA","5","5","1","1124","UMBRELLA",,"2017-03-29 00:21:55","31311"
"A3ITZNJQUTIZ4C","cs_wg_v3_poss_pilot1","3DUZQ9U6SMPNR9U5Y9QQEBM4O4NVSP","31","1","BASKET","5","5","1","7429","basket",,"2017-03-29 00:21:57","31312"
"A3FQDPUAXJB0BS","cs_wg_v3_poss_pilot1","3Z7ISHFUH0WMH9K6L89OIQZZ0LN8Z3","115","0","FOOTBALL","10","5","0","1347","FOOTBALL","10","2017-03-29 00:22:06","31313"
"A3ITZNJQUTIZ4C","cs_wg_v3_poss_pilot1","3DUZQ9U6SMPNR9U5Y9QQEBM4O4NVSP","32","0","TRAFFIC","0","5","0","4472","traffic","0","2017-03-29 00:22:18","31314"
"A3FQDPUAXJB0BS","cs_wg_v3_poss_pilot1","3Z7ISHFUH0WMH9K6L89OIQZZ0LN8Z3","116","1","STRUCTURE","5","5","1","6388","STRUCTURE",,"2017-03-29 00:22:19","31315"
"A3FQDPUAXJB0BS","cs_wg_v3_poss_pilot1","3Z7ISHFUH0WMH9K6L89OIQZZ0LN8Z3","117","0","KEYBOARD","0","5","1","1890","KEYBOARD",,"2017-03-29 00:22:32","31316"
"A3ITZNJQUTIZ4C","cs_wg_v3_poss_pilot1","3DUZQ9U6SMPNR9U5Y9QQEBM4O4NVSP","33","0","WEDDING","0","5","1","4114","wedding","0","2017-03-29 00:22:33","31317"
"A3FQDPUAXJB0BS","cs_wg_v3_poss_pilot1","3Z7ISHFUH0WMH9K6L89OIQZZ0LN8Z3","118","0","FOOTBALL","10","5","0","4324","FOOTBALL","10","2017-03-29 00:22:44","31318"
"A3ITZNJQUTIZ4C","cs_wg_v3_poss_pilot1","3DUZQ9U6SMPNR9U5Y9QQEBM4O4NVSP","34","1","BASKET","5","5","1","5132","basket",,"2017-03-29 00:22:49","31319"
"A3FQDPUAXJB0BS","cs_wg_v3_poss_pilot1","3Z7ISHFUH0WMH9K6L89OIQZZ0LN8Z3","119","1","SUNLIGHT","5","5","1","1636","SUNLIGHT",,"2017-03-29 00:22:55","31320"
"A3ITZNJQUTIZ4C","cs_wg_v3_poss_pilot1","3DUZQ9U6SMPNR9U5Y9QQEBM4O4NVSP","35","0","STRUCTURE","10","5","0","3994","structure","10","2017-03-29 00:23:14","31321"
"A3ITZNJQUTIZ4C","cs_wg_v3_poss_pilot1","3DUZQ9U6SMPNR9U5Y9QQEBM4O4NVSP","36","0","STRUCTURE","10","5","0","2987","structure","10","2017-03-29 00:23:28","31322"
"A3ITZNJQUTIZ4C","cs_wg_v3_poss_pilot1","3DUZQ9U6SMPNR9U5Y9QQEBM4O4NVSP","37","1","KEYBOARD","5","5","1","10263","keyboard",,"2017-03-29 00:23:51","31323"
"A3ITZNJQUTIZ4C","cs_wg_v3_poss_pilot1","3DUZQ9U6SMPNR9U5Y9QQEBM4O4NVSP","38","0","STRUCTURE","10","5","0","2532","structure","10","2017-03-29 00:24:10","31324"
"A3ITZNJQUTIZ4C","cs_wg_v3_poss_pilot1","3DUZQ9U6SMPNR9U5Y9QQEBM4O4NVSP","39","1","HELICOPTER","5","5","1","12707","helicopter",,"2017-03-29 00:24:33","31325"
"A3ITZNJQUTIZ4C","cs_wg_v3_poss_pilot1","3DUZQ9U6SMPNR9U5Y9QQEBM4O4NVSP","40","0","TRAFFIC","0","5","0","4370","traffic","0","2017-03-29 00:24:47","31326"
"A3ITZNJQUTIZ4C","cs_wg_v3_poss_pilot1","3DUZQ9U6SMPNR9U5Y9QQEBM4O4NVSP","41","0","COMMUNITY","0","5","1","3922","community","0","2017-03-29 00:25:02","31327"
"A3ITZNJQUTIZ4C","cs_wg_v3_poss_pilot1","3DUZQ9U6SMPNR9U5Y9QQEBM4O4NVSP","42","1","KEYBOARD","5","5","1","2908","keyboard",,"2017-03-29 00:25:16","31328"
"A3ITZNJQUTIZ4C","cs_wg_v3_poss_pilot1","3DUZQ9U6SMPNR9U5Y9QQEBM4O4NVSP","43","1","BOOKSHELF","5","5","1","2303","bookshelf",,"2017-03-29 00:25:30","31329"
"A3ITZNJQUTIZ4C","cs_wg_v3_poss_pilot1","3DUZQ9U6SMPNR9U5Y9QQEBM4O4NVSP","44","0","TRAFFIC","0","5","1","33538","traffic","0","2017-03-29 00:26:15","31330"
"A3ITZNJQUTIZ4C","cs_wg_v3_poss_pilot1","3DUZQ9U6SMPNR9U5Y9QQEBM4O4NVSP","45","0","DOORWAY","0","5","0","7541","doorway","0","2017-03-29 00:26:36","31331"
"A3ITZNJQUTIZ4C","cs_wg_v3_poss_pilot1","3DUZQ9U6SMPNR9U5Y9QQEBM4O4NVSP","46","0","TRAFFIC","0","5","1","3981","traffic","0","2017-03-29 00:26:50","31332"
"A3ITZNJQUTIZ4C","cs_wg_v3_poss_pilot1","3DUZQ9U6SMPNR9U5Y9QQEBM4O4NVSP","47","0","DOORWAY","0","5","1","5440","doorway","0","2017-03-29 00:27:09","31333"
"A3ITZNJQUTIZ4C","cs_wg_v3_poss_pilot1","3DUZQ9U6SMPNR9U5Y9QQEBM4O4NVSP","48","0","DOORWAY","0","5","1","2400","doorway","0","2017-03-29 00:27:25","31334"
"A3ITZNJQUTIZ4C","cs_wg_v3_poss_pilot1","3DUZQ9U6SMPNR9U5Y9QQEBM4O4NVSP","49","0","TRAFFIC","0","5","1","3357","traffic","0","2017-03-29 00:27:39","31335"
"A3ITZNJQUTIZ4C","cs_wg_v3_poss_pilot1","3DUZQ9U6SMPNR9U5Y9QQEBM4O4NVSP","50","0","STOMACH","10","5","0","18005","stomach","10","2017-03-29 00:28:09","31336"
"A3ITZNJQUTIZ4C","cs_wg_v3_poss_pilot1","3DUZQ9U6SMPNR9U5Y9QQEBM4O4NVSP","51","0","LADDER","10","5","0","3721","ladder","10","2017-03-29 00:28:24","31337"
"A3ITZNJQUTIZ4C","cs_wg_v3_poss_pilot1","3DUZQ9U6SMPNR9U5Y9QQEBM4O4NVSP","52","0","FOOTBALL","0","5","0","1849","football","0","2017-03-29 00:28:37","31338"
"A3ITZNJQUTIZ4C","cs_wg_v3_poss_pilot1","3DUZQ9U6SMPNR9U5Y9QQEBM4O4NVSP","53","0","MACHINE","10","5","0","1918","machine","10","2017-03-29 00:28:51","31339"
"A3ITZNJQUTIZ4C","cs_wg_v3_poss_pilot1","3DUZQ9U6SMPNR9U5Y9QQEBM4O4NVSP","54","1","SUNLIGHT","5","5","1","2510","sunlight",,"2017-03-29 00:29:05","31340"
"A3ITZNJQUTIZ4C","cs_wg_v3_poss_pilot1","3DUZQ9U6SMPNR9U5Y9QQEBM4O4NVSP","55","0","DOORWAY","0","5","1","5318","doorway","0","2017-03-29 00:29:20","31341"
"A3ITZNJQUTIZ4C","cs_wg_v3_poss_pilot1","3DUZQ9U6SMPNR9U5Y9QQEBM4O4NVSP","56","0","FOOTBALL","0","5","1","2466","football","0","2017-03-29 00:29:32","31342"
"A3ITZNJQUTIZ4C","cs_wg_v3_poss_pilot1","3DUZQ9U6SMPNR9U5Y9QQEBM4O4NVSP","57","0","FOOTBALL","0","5","1","3936","football","0","2017-03-29 00:29:48","31343"
"A3ITZNJQUTIZ4C","cs_wg_v3_poss_pilot1","3DUZQ9U6SMPNR9U5Y9QQEBM4O4NVSP","58","0","LADDER","10","5","0","3584","ladder","10","2017-03-29 00:30:03","31344"
"A3ITZNJQUTIZ4C","cs_wg_v3_poss_pilot1","3DUZQ9U6SMPNR9U5Y9QQEBM4O4NVSP","59","1","SUNLIGHT","5","5","1","2187","sunlight",,"2017-03-29 00:30:15","31345"
"A3ITZNJQUTIZ4C","cs_wg_v3_poss_pilot1","3DUZQ9U6SMPNR9U5Y9QQEBM4O4NVSP","60","0","WEDDING","0","5","0","1838","wedding","0","2017-03-29 00:30:30","31346"
"A3ITZNJQUTIZ4C","cs_wg_v3_poss_pilot1","3DUZQ9U6SMPNR9U5Y9QQEBM4O4NVSP","61","0","MACHINE","10","5","0","1963","machine","10","2017-03-29 00:30:46","31347"
"A3ITZNJQUTIZ4C","cs_wg_v3_poss_pilot1","3DUZQ9U6SMPNR9U5Y9QQEBM4O4NVSP","62","0","MACHINE","10","5","0","1288","machine","10","2017-03-29 00:30:59","31348"
"A3ITZNJQUTIZ4C","cs_wg_v3_poss_pilot1","3DUZQ9U6SMPNR9U5Y9QQEBM4O4NVSP","63","0","STOMACH","10","5","0","3202","stomach","10","2017-03-29 00:31:19","31349"
"A3ITZNJQUTIZ4C","cs_wg_v3_poss_pilot1","3DUZQ9U6SMPNR9U5Y9QQEBM4O4NVSP","64","0","MACHINE","10","5","0","1611","machine","10","2017-03-29 00:31:30","31350"
"A3ITZNJQUTIZ4C","cs_wg_v3_poss_pilot1","3DUZQ9U6SMPNR9U5Y9QQEBM4O4NVSP","65","0","MACHINE","10","5","0","4552","machine","10","2017-03-29 00:31:46","31351"
"A3ITZNJQUTIZ4C","cs_wg_v3_poss_pilot1","3DUZQ9U6SMPNR9U5Y9QQEBM4O4NVSP","66","0","UMBRELLA","10","5","0","3578","umbrella","10","2017-03-29 00:32:03","31352"
"A3ITZNJQUTIZ4C","cs_wg_v3_poss_pilot1","3DUZQ9U6SMPNR9U5Y9QQEBM4O4NVSP","67","1","HELICOPTER","5","5","1","1829","helicopter",,"2017-03-29 00:32:15","31353"
"A3ITZNJQUTIZ4C","cs_wg_v3_poss_pilot1","3DUZQ9U6SMPNR9U5Y9QQEBM4O4NVSP","68","0","COMMUNITY","0","5","1","5036","community","0","2017-03-29 00:32:31","31354"
"A3ITZNJQUTIZ4C","cs_wg_v3_poss_pilot1","3DUZQ9U6SMPNR9U5Y9QQEBM4O4NVSP","69","0","UMBRELLA","10","5","0","2412","umbrella","10","2017-03-29 00:32:47","31355"
"A3ITZNJQUTIZ4C","cs_wg_v3_poss_pilot1","3DUZQ9U6SMPNR9U5Y9QQEBM4O4NVSP","70","1","HELICOPTER","5","5","1","1713","helicopter",,"2017-03-29 00:32:59","31356"
"A3ITZNJQUTIZ4C","cs_wg_v3_poss_pilot1","3DUZQ9U6SMPNR9U5Y9QQEBM4O4NVSP","71","1","KEYBOARD","5","5","1","5148","keyboard",,"2017-03-29 00:33:19","31357"
"A3ITZNJQUTIZ4C","cs_wg_v3_poss_pilot1","3DUZQ9U6SMPNR9U5Y9QQEBM4O4NVSP","72","1","SUNLIGHT","5","5","1","1810","sunlight",,"2017-03-29 00:33:30","31358"
"A3ITZNJQUTIZ4C","cs_wg_v3_poss_pilot1","3DUZQ9U6SMPNR9U5Y9QQEBM4O4NVSP","73","0","DOORWAY","0","5","1","7617","doorway","0","2017-03-29 00:33:48","31359"
"A3ITZNJQUTIZ4C","cs_wg_v3_poss_pilot1","3DUZQ9U6SMPNR9U5Y9QQEBM4O4NVSP","74","1","SUNLIGHT","5","5","1","2120","sunlight",,"2017-03-29 00:34:02","31360"
"A3ITZNJQUTIZ4C","cs_wg_v3_poss_pilot1","3DUZQ9U6SMPNR9U5Y9QQEBM4O4NVSP","75","0","COMMUNITY","0","5","0","10729","community","0","2017-03-29 00:34:25","31361"
"A3ITZNJQUTIZ4C","cs_wg_v3_poss_pilot1","3DUZQ9U6SMPNR9U5Y9QQEBM4O4NVSP","76","1","KEYBOARD","5","5","1","4183","keyboard",,"2017-03-29 00:34:44","31362"
"A3ITZNJQUTIZ4C","cs_wg_v3_poss_pilot1","3DUZQ9U6SMPNR9U5Y9QQEBM4O4NVSP","77","1","BASKET","5","5","1","2424","basket",,"2017-03-29 00:34:59","31363"
"A3ITZNJQUTIZ4C","cs_wg_v3_poss_pilot1","3DUZQ9U6SMPNR9U5Y9QQEBM4O4NVSP","78","0","UMBRELLA","10","5","0","2589","umbrella","10","2017-03-29 00:35:13","31364"
"A3ITZNJQUTIZ4C","cs_wg_v3_poss_pilot1","3DUZQ9U6SMPNR9U5Y9QQEBM4O4NVSP","79","0","COMMUNITY","0","5","1","4158","community","0","2017-03-29 00:35:30","31365"
"A3ITZNJQUTIZ4C","cs_wg_v3_poss_pilot1","3DUZQ9U6SMPNR9U5Y9QQEBM4O4NVSP","80","1","HELICOPTER","5","5","1","2040","helicopter",,"2017-03-29 00:35:40","31366"
"A3ITZNJQUTIZ4C","cs_wg_v3_poss_pilot1","3DUZQ9U6SMPNR9U5Y9QQEBM4O4NVSP","81","0","STRUCTURE","10","5","0","3513","structure","10","2017-03-29 00:36:06","31367"
"A3ITZNJQUTIZ4C","cs_wg_v3_poss_pilot1","3DUZQ9U6SMPNR9U5Y9QQEBM4O4NVSP","82","0","FOOTBALL","0","5","1","4121","football","0","2017-03-29 00:36:22","31368"
"A3ITZNJQUTIZ4C","cs_wg_v3_poss_pilot1","3DUZQ9U6SMPNR9U5Y9QQEBM4O4NVSP","83","1","HELICOPTER","5","5","1","1848","helicopter","0","2017-03-29 00:36:41","31369"
"A3ITZNJQUTIZ4C","cs_wg_v3_poss_pilot1","3DUZQ9U6SMPNR9U5Y9QQEBM4O4NVSP","84","0","STOMACH","10","5","0","2679","stomach","10","2017-03-29 00:36:56","31370"
"A3ITZNJQUTIZ4C","cs_wg_v3_poss_pilot1","3DUZQ9U6SMPNR9U5Y9QQEBM4O4NVSP","85","1","KEYBOARD","5","5","1","2170","keyboard",,"2017-03-29 00:37:12","31371"
"A3ITZNJQUTIZ4C","cs_wg_v3_poss_pilot1","3DUZQ9U6SMPNR9U5Y9QQEBM4O4NVSP","86","0","STRUCTURE","10","5","0","4506","structure","10","2017-03-29 00:37:35","31372"
"A3ITZNJQUTIZ4C","cs_wg_v3_poss_pilot1","3DUZQ9U6SMPNR9U5Y9QQEBM4O4NVSP","87","0","STRUCTURE","10","5","0","1178","structure","10","2017-03-29 00:37:49","31373"
"A3ITZNJQUTIZ4C","cs_wg_v3_poss_pilot1","3DUZQ9U6SMPNR9U5Y9QQEBM4O4NVSP","88","0","WEDDING","0","5","1","3166","wedding","0","2017-03-29 00:38:02","31374"
"A3ITZNJQUTIZ4C","cs_wg_v3_poss_pilot1","3DUZQ9U6SMPNR9U5Y9QQEBM4O4NVSP","89","0","STRUCTURE","10","5","0","6985","structure","10","2017-03-29 00:38:34","31375"
"A3ITZNJQUTIZ4C","cs_wg_v3_poss_pilot1","3DUZQ9U6SMPNR9U5Y9QQEBM4O4NVSP","90","0","STOMACH","10","5","0","3302","stomach","10","2017-03-29 00:38:49","31376"
"A3ITZNJQUTIZ4C","cs_wg_v3_poss_pilot1","3DUZQ9U6SMPNR9U5Y9QQEBM4O4NVSP","91","0","LADDER","10","5","0","10285","ladder","10","2017-03-29 00:39:13","31377"
"A3ITZNJQUTIZ4C","cs_wg_v3_poss_pilot1","3DUZQ9U6SMPNR9U5Y9QQEBM4O4NVSP","92","1","BOOKSHELF","5","5","1","2010","bookshelf",,"2017-03-29 00:39:27","31378"
"A3ITZNJQUTIZ4C","cs_wg_v3_poss_pilot1","3DUZQ9U6SMPNR9U5Y9QQEBM4O4NVSP","93","0","FOOTBALL","0","5","1","2094","football","0","2017-03-29 00:39:42","31379"
"A3ITZNJQUTIZ4C","cs_wg_v3_poss_pilot1","3DUZQ9U6SMPNR9U5Y9QQEBM4O4NVSP","94","1","SUNLIGHT","5","5","1","1572","sunlight",,"2017-03-29 00:39:54","31380"
"A3ITZNJQUTIZ4C","cs_wg_v3_poss_pilot1","3DUZQ9U6SMPNR9U5Y9QQEBM4O4NVSP","95","1","KEYBOARD","5","5","1","1776","keyboard",,"2017-03-29 00:40:05","31381"
"A3ITZNJQUTIZ4C","cs_wg_v3_poss_pilot1","3DUZQ9U6SMPNR9U5Y9QQEBM4O4NVSP","96","1","BASKET","5","5","1","1320","basket",,"2017-03-29 00:40:16","31382"
"A3ITZNJQUTIZ4C","cs_wg_v3_poss_pilot1","3DUZQ9U6SMPNR9U5Y9QQEBM4O4NVSP","97","0","FOOTBALL","0","5","1","2683","football","0","2017-03-29 00:40:29","31383"
"A3ITZNJQUTIZ4C","cs_wg_v3_poss_pilot1","3DUZQ9U6SMPNR9U5Y9QQEBM4O4NVSP","98","0","WEDDING","0","5","1","2837","wedding","0","2017-03-29 00:40:44","31384"
"A3ITZNJQUTIZ4C","cs_wg_v3_poss_pilot1","3DUZQ9U6SMPNR9U5Y9QQEBM4O4NVSP","99","0","UMBRELLA","10","5","0","4013","umbrella","10","2017-03-29 00:41:02","31385"
"A3ITZNJQUTIZ4C","cs_wg_v3_poss_pilot1","3DUZQ9U6SMPNR9U5Y9QQEBM4O4NVSP","100","0","STRUCTURE","10","5","0","3833","structure","10","2017-03-29 00:41:17","31386"
"A3ITZNJQUTIZ4C","cs_wg_v3_poss_pilot1","3DUZQ9U6SMPNR9U5Y9QQEBM4O4NVSP","101","0","DOORWAY","0","5","0","2395","doorway","0","2017-03-29 00:41:30","31387"
"A3ITZNJQUTIZ4C","cs_wg_v3_poss_pilot1","3DUZQ9U6SMPNR9U5Y9QQEBM4O4NVSP","102","0","COMMUNITY","0","5","1","4636","community","0","2017-03-29 00:41:45","31388"
"A3ITZNJQUTIZ4C","cs_wg_v3_poss_pilot1","3DUZQ9U6SMPNR9U5Y9QQEBM4O4NVSP","103","0","TRAFFIC","0","5","1","3313","traffic","0","2017-03-29 00:42:00","31389"
"A3ITZNJQUTIZ4C","cs_wg_v3_poss_pilot1","3DUZQ9U6SMPNR9U5Y9QQEBM4O4NVSP","104","1","BOOKSHELF","5","5","1","2316","bookshelf","0","2017-03-29 00:42:22","31390"
"A3ITZNJQUTIZ4C","cs_wg_v3_poss_pilot1","3DUZQ9U6SMPNR9U5Y9QQEBM4O4NVSP","105","0","WEDDING","0","5","1","1992","wedding","0","2017-03-29 00:42:38","31391"
"A3ITZNJQUTIZ4C","cs_wg_v3_poss_pilot1","3DUZQ9U6SMPNR9U5Y9QQEBM4O4NVSP","106","0","MACHINE","10","5","0","7536","machine","10","2017-03-29 00:42:58","31392"
"A3ITZNJQUTIZ4C","cs_wg_v3_poss_pilot1","3DUZQ9U6SMPNR9U5Y9QQEBM4O4NVSP","107","0","TRAFFIC","0","5","1","4192","traffic","0","2017-03-29 00:43:14","31393"
"A3ITZNJQUTIZ4C","cs_wg_v3_poss_pilot1","3DUZQ9U6SMPNR9U5Y9QQEBM4O4NVSP","108","1","BASKET","5","5","1","3603","basket",,"2017-03-29 00:43:36","31394"
"A3ITZNJQUTIZ4C","cs_wg_v3_poss_pilot1","3DUZQ9U6SMPNR9U5Y9QQEBM4O4NVSP","109","1","BOOKSHELF","5","5","1","2522","bookshelf",,"2017-03-29 00:43:50","31395"
"A3ITZNJQUTIZ4C","cs_wg_v3_poss_pilot1","3DUZQ9U6SMPNR9U5Y9QQEBM4O4NVSP","110","0","UMBRELLA","10","5","0","6896","umbrella","10","2017-03-29 00:44:09","31396"
"A3ITZNJQUTIZ4C","cs_wg_v3_poss_pilot1","3DUZQ9U6SMPNR9U5Y9QQEBM4O4NVSP","111","0","STOMACH","10","5","0","4235","stomach","10","2017-03-29 00:44:26","31397"
"A3ITZNJQUTIZ4C","cs_wg_v3_poss_pilot1","3DUZQ9U6SMPNR9U5Y9QQEBM4O4NVSP","112","1","BOOKSHELF","5","5","1","1590","bookshelf",,"2017-03-29 00:44:37","31398"
"A3ITZNJQUTIZ4C","cs_wg_v3_poss_pilot1","3DUZQ9U6SMPNR9U5Y9QQEBM4O4NVSP","113","1","HELICOPTER","5","5","1","1776","helicopter",,"2017-03-29 00:44:51","31399"
"A3ITZNJQUTIZ4C","cs_wg_v3_poss_pilot1","3DUZQ9U6SMPNR9U5Y9QQEBM4O4NVSP","114","1","BASKET","5","5","1","1714","basket",,"2017-03-29 00:45:04","31400"
"A3ITZNJQUTIZ4C","cs_wg_v3_poss_pilot1","3DUZQ9U6SMPNR9U5Y9QQEBM4O4NVSP","115","0","WEDDING","0","5","1","1914","wedding","0","2017-03-29 00:45:14","31401"
"A3ITZNJQUTIZ4C","cs_wg_v3_poss_pilot1","3DUZQ9U6SMPNR9U5Y9QQEBM4O4NVSP","116","0","STOMACH","10","5","0","1877","stomach","10","2017-03-29 00:45:30","31402"
"A3ITZNJQUTIZ4C","cs_wg_v3_poss_pilot1","3DUZQ9U6SMPNR9U5Y9QQEBM4O4NVSP","117","0","FOOTBALL","0","5","1","2086","football","0","2017-03-29 00:45:43","31403"
"A3ITZNJQUTIZ4C","cs_wg_v3_poss_pilot1","3DUZQ9U6SMPNR9U5Y9QQEBM4O4NVSP","118","1","HELICOPTER","5","5","1","1425","helicopter",,"2017-03-29 00:45:57","31404"
"A3ITZNJQUTIZ4C","cs_wg_v3_poss_pilot1","3DUZQ9U6SMPNR9U5Y9QQEBM4O4NVSP","119","1","BOOKSHELF","5","5","1","1854","bookshelf","0","2017-03-29 00:46:26","31405"
"ASF5V3K4IFP4K","cs_wg_v3_poss_pilot1","3S06PH7KSR5138VPU5BCCOTOYX71DD","0","1","WEDDING","5","5","1","20292","wedding",,"2017-03-29 01:31:40","31406"
"ASF5V3K4IFP4K","cs_wg_v3_poss_pilot1","3S06PH7KSR5138VPU5BCCOTOYX71DD","1","1","WEDDING","5","5","1","3791","wedding",,"2017-03-29 01:32:01","31407"
"ASF5V3K4IFP4K","cs_wg_v3_poss_pilot1","3S06PH7KSR5138VPU5BCCOTOYX71DD","2","0","KEYBOARD","0","5","1","2864","keyboard","0","2017-03-29 01:32:18","31408"
"ASF5V3K4IFP4K","cs_wg_v3_poss_pilot1","3S06PH7KSR5138VPU5BCCOTOYX71DD","3","0","SUNLIGHT","10","5","1","11504","sunlight","10","2017-03-29 01:32:42","31409"
"ASF5V3K4IFP4K","cs_wg_v3_poss_pilot1","3S06PH7KSR5138VPU5BCCOTOYX71DD","4","0","STOMACH","10","5","0","2591","stomach","10","2017-03-29 01:32:54","31410"
"ASF5V3K4IFP4K","cs_wg_v3_poss_pilot1","3S06PH7KSR5138VPU5BCCOTOYX71DD","5","0","COMMUNITY","0","5","0","4961","community","0","2017-03-29 01:33:08","31411"
"ASF5V3K4IFP4K","cs_wg_v3_poss_pilot1","3S06PH7KSR5138VPU5BCCOTOYX71DD","6","1","WEDDING","5","5","1","6475","wedding",,"2017-03-29 01:33:21","31412"
"ASF5V3K4IFP4K","cs_wg_v3_poss_pilot1","3S06PH7KSR5138VPU5BCCOTOYX71DD","7","0","COMMUNITY","0","5","1","2209","community","0","2017-03-29 01:33:36","31413"
"ASF5V3K4IFP4K","cs_wg_v3_poss_pilot1","3S06PH7KSR5138VPU5BCCOTOYX71DD","8","0","DOORWAY","0","5","0","4157","doorway","0","2017-03-29 01:33:48","31414"
"ASF5V3K4IFP4K","cs_wg_v3_poss_pilot1","3S06PH7KSR5138VPU5BCCOTOYX71DD","9","0","SUNLIGHT","10","5","0","3672","sunlight","10","2017-03-29 01:34:05","31415"
"ASF5V3K4IFP4K","cs_wg_v3_poss_pilot1","3S06PH7KSR5138VPU5BCCOTOYX71DD","10","1","TRAFFIC","5","5","1","1528","traffic",,"2017-03-29 01:34:15","31416"
"ASF5V3K4IFP4K","cs_wg_v3_poss_pilot1","3S06PH7KSR5138VPU5BCCOTOYX71DD","11","0","KEYBOARD","0","5","0","3567","keyboard","0","2017-03-29 01:34:27","31417"
"ASF5V3K4IFP4K","cs_wg_v3_poss_pilot1","3S06PH7KSR5138VPU5BCCOTOYX71DD","12","0","MACHINE","10","5","1","1303","machine","10","2017-03-29 01:34:39","31418"
"ASF5V3K4IFP4K","cs_wg_v3_poss_pilot1","3S06PH7KSR5138VPU5BCCOTOYX71DD","13","0","SUNLIGHT","10","5","0","4427","sunlight","10","2017-03-29 01:34:51","31419"
"ASF5V3K4IFP4K","cs_wg_v3_poss_pilot1","3S06PH7KSR5138VPU5BCCOTOYX71DD","14","0","MACHINE","10","5","0","3323","machine","10","2017-03-29 01:35:02","31420"
"ASF5V3K4IFP4K","cs_wg_v3_poss_pilot1","3S06PH7KSR5138VPU5BCCOTOYX71DD","15","1","FOOTBALL","5","5","1","3014","football",,"2017-03-29 01:35:14","31421"
"ASF5V3K4IFP4K","cs_wg_v3_poss_pilot1","3S06PH7KSR5138VPU5BCCOTOYX71DD","16","0","DOORWAY","0","5","0","2717","doorway","0","2017-03-29 01:35:25","31422"
"ASF5V3K4IFP4K","cs_wg_v3_poss_pilot1","3S06PH7KSR5138VPU5BCCOTOYX71DD","17","0","COMMUNITY","0","5","1","1196","community","0","2017-03-29 01:35:39","31423"
"ASF5V3K4IFP4K","cs_wg_v3_poss_pilot1","3S06PH7KSR5138VPU5BCCOTOYX71DD","18","0","LADDER","10","5","0","5153","ladder","10","2017-03-29 01:35:56","31424"
"ASF5V3K4IFP4K","cs_wg_v3_poss_pilot1","3S06PH7KSR5138VPU5BCCOTOYX71DD","19","0","UMBRELLA","0","5","1","4723","umbrella","0","2017-03-29 01:36:12","31425"
"ASF5V3K4IFP4K","cs_wg_v3_poss_pilot1","3S06PH7KSR5138VPU5BCCOTOYX71DD","20","0","DOORWAY","0","5","1","6283","doorway","0","2017-03-29 01:36:27","31426"
"ASF5V3K4IFP4K","cs_wg_v3_poss_pilot1","3S06PH7KSR5138VPU5BCCOTOYX71DD","21","0","STOMACH","10","5","0","3458","stomach","10","2017-03-29 01:36:45","31427"
"ASF5V3K4IFP4K","cs_wg_v3_poss_pilot1","3S06PH7KSR5138VPU5BCCOTOYX71DD","22","0","BASKET","0","5","0","4169","basket","0","2017-03-29 01:37:01","31428"
"ASF5V3K4IFP4K","cs_wg_v3_poss_pilot1","3S06PH7KSR5138VPU5BCCOTOYX71DD","23","0","KEYBOARD","0","5","0","2971","keyboard","0","2017-03-29 01:37:13","31429"
"ASF5V3K4IFP4K","cs_wg_v3_poss_pilot1","3S06PH7KSR5138VPU5BCCOTOYX71DD","24","1","WEDDING","5","5","1","6269","wedding",,"2017-03-29 01:37:26","31430"
"ASF5V3K4IFP4K","cs_wg_v3_poss_pilot1","3S06PH7KSR5138VPU5BCCOTOYX71DD","25","0","UMBRELLA","0","5","0","4999","umbrella","0","2017-03-29 01:37:42","31431"
"ASF5V3K4IFP4K","cs_wg_v3_poss_pilot1","3S06PH7KSR5138VPU5BCCOTOYX71DD","26","0","DOORWAY","0","5","1","3872","doorway","0","2017-03-29 01:37:55","31432"
"ASF5V3K4IFP4K","cs_wg_v3_poss_pilot1","3S06PH7KSR5138VPU5BCCOTOYX71DD","27","1","FOOTBALL","5","5","1","1956","football",,"2017-03-29 01:38:06","31433"
"ASF5V3K4IFP4K","cs_wg_v3_poss_pilot1","3S06PH7KSR5138VPU5BCCOTOYX71DD","28","1","STRUCTURE","5","5","1","10206","structure",,"2017-03-29 01:38:24","31434"
"ASF5V3K4IFP4K","cs_wg_v3_poss_pilot1","3S06PH7KSR5138VPU5BCCOTOYX71DD","29","0","BOOKSHELF","10","5","0","3549","bookshelf","10","2017-03-29 01:38:36","31435"
"ASF5V3K4IFP4K","cs_wg_v3_poss_pilot1","3S06PH7KSR5138VPU5BCCOTOYX71DD","30","0","LADDER","10","5","1","8550","ladder","10","2017-03-29 01:38:56","31436"
"ASF5V3K4IFP4K","cs_wg_v3_poss_pilot1","3S06PH7KSR5138VPU5BCCOTOYX71DD","31","0","BOOKSHELF","10","5","1","1790","bookshelf","10","2017-03-29 01:39:08","31437"
"ASF5V3K4IFP4K","cs_wg_v3_poss_pilot1","3S06PH7KSR5138VPU5BCCOTOYX71DD","32","0","COMMUNITY","0","5","1","1656","community","0","2017-03-29 01:39:17","31438"
"ASF5V3K4IFP4K","cs_wg_v3_poss_pilot1","3S06PH7KSR5138VPU5BCCOTOYX71DD","33","0","BOOKSHELF","10","5","0","6202","bookshelf","10","2017-03-29 01:39:38","31439"
"ASF5V3K4IFP4K","cs_wg_v3_poss_pilot1","3S06PH7KSR5138VPU5BCCOTOYX71DD","34","0","BOOKSHELF","10","5","0","4102","bookshelf","10","2017-03-29 01:39:50","31440"
"ASF5V3K4IFP4K","cs_wg_v3_poss_pilot1","3S06PH7KSR5138VPU5BCCOTOYX71DD","35","1","TRAFFIC","5","5","1","1800","traffic",,"2017-03-29 01:39:59","31441"
"ASF5V3K4IFP4K","cs_wg_v3_poss_pilot1","3S06PH7KSR5138VPU5BCCOTOYX71DD","36","1","FOOTBALL","5","5","1","2089","football",,"2017-03-29 01:40:11","31442"
"ASF5V3K4IFP4K","cs_wg_v3_poss_pilot1","3S06PH7KSR5138VPU5BCCOTOYX71DD","37","1","TRAFFIC","5","5","1","2114","traffic",,"2017-03-29 01:40:20","31443"
"ASF5V3K4IFP4K","cs_wg_v3_poss_pilot1","3S06PH7KSR5138VPU5BCCOTOYX71DD","38","0","DOORWAY","0","5","0","2342","doorway","0","2017-03-29 01:40:32","31444"
"ASF5V3K4IFP4K","cs_wg_v3_poss_pilot1","3S06PH7KSR5138VPU5BCCOTOYX71DD","39","1","STRUCTURE","5","5","1","1175","structure",,"2017-03-29 01:40:41","31445"
"ASF5V3K4IFP4K","cs_wg_v3_poss_pilot1","3S06PH7KSR5138VPU5BCCOTOYX71DD","40","1","TRAFFIC","5","5","1","1600","traffic",,"2017-03-29 01:40:49","31446"
"ASF5V3K4IFP4K","cs_wg_v3_poss_pilot1","3S06PH7KSR5138VPU5BCCOTOYX71DD","41","1","STRUCTURE","5","5","1","2431","structure",,"2017-03-29 01:41:01","31447"
"ASF5V3K4IFP4K","cs_wg_v3_poss_pilot1","3S06PH7KSR5138VPU5BCCOTOYX71DD","42","1","HELICOPTER","5","5","1","1631","helicopter",,"2017-03-29 01:41:12","31448"
"ASF5V3K4IFP4K","cs_wg_v3_poss_pilot1","3S06PH7KSR5138VPU5BCCOTOYX71DD","43","1","HELICOPTER","5","5","1","1195","helicopter",,"2017-03-29 01:41:21","31449"
"ASF5V3K4IFP4K","cs_wg_v3_poss_pilot1","3S06PH7KSR5138VPU5BCCOTOYX71DD","44","0","SUNLIGHT","10","5","0","1391","sunlight","10","2017-03-29 01:41:31","31450"
"ASF5V3K4IFP4K","cs_wg_v3_poss_pilot1","3S06PH7KSR5138VPU5BCCOTOYX71DD","45","0","MACHINE","10","5","0","3166","machine","10","2017-03-29 01:41:42","31451"
"ASF5V3K4IFP4K","cs_wg_v3_poss_pilot1","3S06PH7KSR5138VPU5BCCOTOYX71DD","46","0","SUNLIGHT","10","5","0","1341","sunlight","10","2017-03-29 01:41:51","31452"
"ASF5V3K4IFP4K","cs_wg_v3_poss_pilot1","3S06PH7KSR5138VPU5BCCOTOYX71DD","47","0","STOMACH","10","5","0","1146","stomach","10","2017-03-29 01:41:59","31453"
"ASF5V3K4IFP4K","cs_wg_v3_poss_pilot1","3S06PH7KSR5138VPU5BCCOTOYX71DD","48","1","HELICOPTER","5","5","1","1572","helicopter",,"2017-03-29 01:42:09","31454"
"ASF5V3K4IFP4K","cs_wg_v3_poss_pilot1","3S06PH7KSR5138VPU5BCCOTOYX71DD","49","0","STOMACH","10","5","0","1041","stomach","10","2017-03-29 01:42:19","31455"
"ASF5V3K4IFP4K","cs_wg_v3_poss_pilot1","3S06PH7KSR5138VPU5BCCOTOYX71DD","50","0","LADDER","10","5","0","5474","ladder","10","2017-03-29 01:42:33","31456"
"ASF5V3K4IFP4K","cs_wg_v3_poss_pilot1","3S06PH7KSR5138VPU5BCCOTOYX71DD","51","0","BOOKSHELF","10","5","0","7272","bookshelf","10","2017-03-29 01:42:48","31457"
"ASF5V3K4IFP4K","cs_wg_v3_poss_pilot1","3S06PH7KSR5138VPU5BCCOTOYX71DD","52","1","STRUCTURE","5","5","1","1387","structure",,"2017-03-29 01:43:01","31458"
"ASF5V3K4IFP4K","cs_wg_v3_poss_pilot1","3S06PH7KSR5138VPU5BCCOTOYX71DD","53","1","TRAFFIC","5","5","1","1947","traffic",,"2017-03-29 01:43:09","31459"
"ASF5V3K4IFP4K","cs_wg_v3_poss_pilot1","3S06PH7KSR5138VPU5BCCOTOYX71DD","54","0","MACHINE","10","5","0","1481","machine","10","2017-03-29 01:43:22","31460"
"ASF5V3K4IFP4K","cs_wg_v3_poss_pilot1","3S06PH7KSR5138VPU5BCCOTOYX71DD","55","0","KEYBOARD","0","5","0","2378","keyboard","0","2017-03-29 01:43:36","31461"
"ASF5V3K4IFP4K","cs_wg_v3_poss_pilot1","3S06PH7KSR5138VPU5BCCOTOYX71DD","56","0","LADDER","10","5","0","1740","ladder","10","2017-03-29 01:43:47","31462"
"ASF5V3K4IFP4K","cs_wg_v3_poss_pilot1","3S06PH7KSR5138VPU5BCCOTOYX71DD","57","0","DOORWAY","0","5","0","3484","doorway","0","2017-03-29 01:43:59","31463"
"ASF5V3K4IFP4K","cs_wg_v3_poss_pilot1","3S06PH7KSR5138VPU5BCCOTOYX71DD","58","1","STRUCTURE","5","5","1","1191","structure",,"2017-03-29 01:44:08","31464"
"ASF5V3K4IFP4K","cs_wg_v3_poss_pilot1","3S06PH7KSR5138VPU5BCCOTOYX71DD","59","1","HELICOPTER","5","5","1","1052","helicopter",,"2017-03-29 01:44:17","31465"
"ASF5V3K4IFP4K","cs_wg_v3_poss_pilot1","3S06PH7KSR5138VPU5BCCOTOYX71DD","60","0","BOOKSHELF","10","5","0","969","bookshelf","10","2017-03-29 01:44:29","31466"
"ASF5V3K4IFP4K","cs_wg_v3_poss_pilot1","3S06PH7KSR5138VPU5BCCOTOYX71DD","61","1","STRUCTURE","5","5","1","1018","structure",,"2017-03-29 01:44:37","31467"
"ASF5V3K4IFP4K","cs_wg_v3_poss_pilot1","3S06PH7KSR5138VPU5BCCOTOYX71DD","62","0","COMMUNITY","0","5","0","1753","community","0","2017-03-29 01:44:48","31468"
"ASF5V3K4IFP4K","cs_wg_v3_poss_pilot1","3S06PH7KSR5138VPU5BCCOTOYX71DD","63","1","STRUCTURE","5","5","1","1019","structure",,"2017-03-29 01:45:00","31469"
"ASF5V3K4IFP4K","cs_wg_v3_poss_pilot1","3S06PH7KSR5138VPU5BCCOTOYX71DD","64","0","SUNLIGHT","10","5","0","5283","sunlight","10","2017-03-29 01:45:13","31470"
"ASF5V3K4IFP4K","cs_wg_v3_poss_pilot1","3S06PH7KSR5138VPU5BCCOTOYX71DD","65","1","WEDDING","5","5","1","1862","wedding",,"2017-03-29 01:45:23","31471"
"ASF5V3K4IFP4K","cs_wg_v3_poss_pilot1","3S06PH7KSR5138VPU5BCCOTOYX71DD","66","0","UMBRELLA","0","5","0","1254","umbrella","0","2017-03-29 01:45:33","31472"
"ASF5V3K4IFP4K","cs_wg_v3_poss_pilot1","3S06PH7KSR5138VPU5BCCOTOYX71DD","67","1","FOOTBALL","5","5","1","1515","football",,"2017-03-29 01:45:43","31473"
"ASF5V3K4IFP4K","cs_wg_v3_poss_pilot1","3S06PH7KSR5138VPU5BCCOTOYX71DD","68","0","UMBRELLA","0","5","1","1783","umbrella",,"2017-03-29 01:45:54","31474"
"ASF5V3K4IFP4K","cs_wg_v3_poss_pilot1","3S06PH7KSR5138VPU5BCCOTOYX71DD","69","0","STOMACH","10","5","0","8816","stomach","10","2017-03-29 01:46:17","31475"
"ASF5V3K4IFP4K","cs_wg_v3_poss_pilot1","3S06PH7KSR5138VPU5BCCOTOYX71DD","70","0","DOORWAY","0","5","0","2698","doorway","0","2017-03-29 01:46:31","31476"
"ASF5V3K4IFP4K","cs_wg_v3_poss_pilot1","3S06PH7KSR5138VPU5BCCOTOYX71DD","71","0","MACHINE","10","5","0","1249","machine","10","2017-03-29 01:46:41","31477"
"ASF5V3K4IFP4K","cs_wg_v3_poss_pilot1","3S06PH7KSR5138VPU5BCCOTOYX71DD","72","1","WEDDING","5","5","1","1748","wedding",,"2017-03-29 01:46:49","31478"
"ASF5V3K4IFP4K","cs_wg_v3_poss_pilot1","3S06PH7KSR5138VPU5BCCOTOYX71DD","73","0","BOOKSHELF","10","5","0","1074","bookshelf","10","2017-03-29 01:47:02","31479"
"ASF5V3K4IFP4K","cs_wg_v3_poss_pilot1","3S06PH7KSR5138VPU5BCCOTOYX71DD","74","0","BOOKSHELF","10","5","0","954","bookshelf","10","2017-03-29 01:47:13","31480"
"ASF5V3K4IFP4K","cs_wg_v3_poss_pilot1","3S06PH7KSR5138VPU5BCCOTOYX71DD","75","0","COMMUNITY","0","5","1","1955","community","0","2017-03-29 01:47:25","31481"
"ASF5V3K4IFP4K","cs_wg_v3_poss_pilot1","3S06PH7KSR5138VPU5BCCOTOYX71DD","76","0","BASKET","0","5","0","1215","basket","0","2017-03-29 01:47:34","31482"
"ASF5V3K4IFP4K","cs_wg_v3_poss_pilot1","3S06PH7KSR5138VPU5BCCOTOYX71DD","77","0","LADDER","10","5","0","1180","ladder","10","2017-03-29 01:47:49","31483"
"ASF5V3K4IFP4K","cs_wg_v3_poss_pilot1","3S06PH7KSR5138VPU5BCCOTOYX71DD","78","1","STRUCTURE","5","5","1","1517","structure",,"2017-03-29 01:47:58","31484"
"ASF5V3K4IFP4K","cs_wg_v3_poss_pilot1","3S06PH7KSR5138VPU5BCCOTOYX71DD","79","0","BASKET","0","5","1","5868","basket","0","2017-03-29 01:48:13","31485"
"ASF5V3K4IFP4K","cs_wg_v3_poss_pilot1","3S06PH7KSR5138VPU5BCCOTOYX71DD","80","0","UMBRELLA","0","5","1","2660","umbrella","0","2017-03-29 01:48:29","31486"
"ASF5V3K4IFP4K","cs_wg_v3_poss_pilot1","3S06PH7KSR5138VPU5BCCOTOYX71DD","81","0","BASKET","0","5","1","2660","basket","0","2017-03-29 01:48:41","31487"
"ASF5V3K4IFP4K","cs_wg_v3_poss_pilot1","3S06PH7KSR5138VPU5BCCOTOYX71DD","82","0","KEYBOARD","0","5","1","2067","keyboard","0","2017-03-29 01:48:52","31488"
"ASF5V3K4IFP4K","cs_wg_v3_poss_pilot1","3S06PH7KSR5138VPU5BCCOTOYX71DD","83","0","MACHINE","10","5","0","3222","machine","10","2017-03-29 01:49:04","31489"
"ASF5V3K4IFP4K","cs_wg_v3_poss_pilot1","3S06PH7KSR5138VPU5BCCOTOYX71DD","84","0","UMBRELLA","0","5","1","1423","umbrella","0","2017-03-29 01:49:16","31490"
"ASF5V3K4IFP4K","cs_wg_v3_poss_pilot1","3S06PH7KSR5138VPU5BCCOTOYX71DD","85","0","LADDER","10","5","0","1310","ladder","10","2017-03-29 01:49:26","31491"
"ASF5V3K4IFP4K","cs_wg_v3_poss_pilot1","3S06PH7KSR5138VPU5BCCOTOYX71DD","86","1","TRAFFIC","5","5","1","1414","traffic",,"2017-03-29 01:49:34","31492"
"ASF5V3K4IFP4K","cs_wg_v3_poss_pilot1","3S06PH7KSR5138VPU5BCCOTOYX71DD","87","0","MACHINE","10","5","0","984","machine","10","2017-03-29 01:49:45","31493"
"ASF5V3K4IFP4K","cs_wg_v3_poss_pilot1","3S06PH7KSR5138VPU5BCCOTOYX71DD","88","0","BASKET","0","5","1","1140","basket","0","2017-03-29 01:49:57","31494"
"ASF5V3K4IFP4K","cs_wg_v3_poss_pilot1","3S06PH7KSR5138VPU5BCCOTOYX71DD","89","0","KEYBOARD","0","5","1","1453","keyboard","0","2017-03-29 01:50:09","31495"
"ASF5V3K4IFP4K","cs_wg_v3_poss_pilot1","3S06PH7KSR5138VPU5BCCOTOYX71DD","90","1","FOOTBALL","5","5","1","1628","football",,"2017-03-29 01:50:20","31496"
"ASF5V3K4IFP4K","cs_wg_v3_poss_pilot1","3S06PH7KSR5138VPU5BCCOTOYX71DD","91","0","COMMUNITY","0","5","1","1807","community","0","2017-03-29 01:50:30","31497"
"ASF5V3K4IFP4K","cs_wg_v3_poss_pilot1","3S06PH7KSR5138VPU5BCCOTOYX71DD","92","0","SUNLIGHT","10","5","0","2757","sunlight","10","2017-03-29 01:50:40","31498"
"ASF5V3K4IFP4K","cs_wg_v3_poss_pilot1","3S06PH7KSR5138VPU5BCCOTOYX71DD","93","0","MACHINE","10","5","0","882","machine","10","2017-03-29 01:50:49","31499"
"ASF5V3K4IFP4K","cs_wg_v3_poss_pilot1","3S06PH7KSR5138VPU5BCCOTOYX71DD","94","0","BASKET","0","5","1","1164","basket","0","2017-03-29 01:50:58","31500"
"ASF5V3K4IFP4K","cs_wg_v3_poss_pilot1","3S06PH7KSR5138VPU5BCCOTOYX71DD","95","1","HELICOPTER","5","5","1","1530","helicopter",,"2017-03-29 01:51:07","31501"
"ASF5V3K4IFP4K","cs_wg_v3_poss_pilot1","3S06PH7KSR5138VPU5BCCOTOYX71DD","96","0","KEYBOARD","0","5","1","16343","keyboard","0","2017-03-29 01:51:37","31502"
"ASF5V3K4IFP4K","cs_wg_v3_poss_pilot1","3S06PH7KSR5138VPU5BCCOTOYX71DD","97","0","BASKET","0","5","1","1040","basket","0","2017-03-29 01:51:46","31503"
"ASF5V3K4IFP4K","cs_wg_v3_poss_pilot1","3S06PH7KSR5138VPU5BCCOTOYX71DD","98","0","STOMACH","10","5","0","985","stomach","10","2017-03-29 01:52:50","31504"
"ASF5V3K4IFP4K","cs_wg_v3_poss_pilot1","3S06PH7KSR5138VPU5BCCOTOYX71DD","99","0","STOMACH","10","5","0","4333","stomach","10","2017-03-29 01:53:06","31505"
"ASF5V3K4IFP4K","cs_wg_v3_poss_pilot1","3S06PH7KSR5138VPU5BCCOTOYX71DD","100","1","HELICOPTER","5","5","1","1310","helicopter",,"2017-03-29 01:53:17","31506"
"ASF5V3K4IFP4K","cs_wg_v3_poss_pilot1","3S06PH7KSR5138VPU5BCCOTOYX71DD","101","0","LADDER","10","5","0","2819","ladder","10","2017-03-29 01:53:29","31507"
"ASF5V3K4IFP4K","cs_wg_v3_poss_pilot1","3S06PH7KSR5138VPU5BCCOTOYX71DD","102","0","DOORWAY","0","5","0","1232","doorway","0","2017-03-29 01:53:42","31508"
"ASF5V3K4IFP4K","cs_wg_v3_poss_pilot1","3S06PH7KSR5138VPU5BCCOTOYX71DD","103","1","FOOTBALL","5","5","1","2952","football",,"2017-03-29 01:53:54","31509"
"ASF5V3K4IFP4K","cs_wg_v3_poss_pilot1","3S06PH7KSR5138VPU5BCCOTOYX71DD","104","0","STOMACH","10","5","0","2430","stomach","10","2017-03-29 01:54:11","31510"
"ASF5V3K4IFP4K","cs_wg_v3_poss_pilot1","3S06PH7KSR5138VPU5BCCOTOYX71DD","105","1","TRAFFIC","5","5","1","1934","traffic",,"2017-03-29 01:54:23","31511"
"ASF5V3K4IFP4K","cs_wg_v3_poss_pilot1","3S06PH7KSR5138VPU5BCCOTOYX71DD","106","0","KEYBOARD","0","5","1","1205","keyboard","0","2017-03-29 01:54:36","31512"
"ASF5V3K4IFP4K","cs_wg_v3_poss_pilot1","3S06PH7KSR5138VPU5BCCOTOYX71DD","107","1","TRAFFIC","5","5","1","1084","traffic",,"2017-03-29 01:54:47","31513"
"ASF5V3K4IFP4K","cs_wg_v3_poss_pilot1","3S06PH7KSR5138VPU5BCCOTOYX71DD","108","0","UMBRELLA","0","5","1","1203","umbrella","0","2017-03-29 01:54:57","31514"
"ASF5V3K4IFP4K","cs_wg_v3_poss_pilot1","3S06PH7KSR5138VPU5BCCOTOYX71DD","109","0","BASKET","0","5","1","1357","basket","0","2017-03-29 01:55:09","31515"
"ASF5V3K4IFP4K","cs_wg_v3_poss_pilot1","3S06PH7KSR5138VPU5BCCOTOYX71DD","110","1","WEDDING","5","5","1","1558","wedding",,"2017-03-29 01:55:24","31516"
"ASF5V3K4IFP4K","cs_wg_v3_poss_pilot1","3S06PH7KSR5138VPU5BCCOTOYX71DD","111","0","UMBRELLA","0","5","1","5661","umbrella","0","2017-03-29 01:55:38","31517"
"ASF5V3K4IFP4K","cs_wg_v3_poss_pilot1","3S06PH7KSR5138VPU5BCCOTOYX71DD","112","1","FOOTBALL","5","5","1","1681","football","0","2017-03-29 01:55:52","31518"
"ASF5V3K4IFP4K","cs_wg_v3_poss_pilot1","3S06PH7KSR5138VPU5BCCOTOYX71DD","113","1","HELICOPTER","5","5","1","1037","helicopter",,"2017-03-29 01:56:02","31519"
"ASF5V3K4IFP4K","cs_wg_v3_poss_pilot1","3S06PH7KSR5138VPU5BCCOTOYX71DD","114","0","SUNLIGHT","10","5","0","1203","sunlight","10","2017-03-29 01:56:20","31520"
"ASF5V3K4IFP4K","cs_wg_v3_poss_pilot1","3S06PH7KSR5138VPU5BCCOTOYX71DD","115","1","FOOTBALL","5","5","1","1882","football",,"2017-03-29 01:56:30","31521"
"ASF5V3K4IFP4K","cs_wg_v3_poss_pilot1","3S06PH7KSR5138VPU5BCCOTOYX71DD","116","0","LADDER","10","5","0","1602","ladder","10","2017-03-29 01:56:41","31522"
"ASF5V3K4IFP4K","cs_wg_v3_poss_pilot1","3S06PH7KSR5138VPU5BCCOTOYX71DD","117","1","WEDDING","5","5","1","1028","wedding",,"2017-03-29 01:56:50","31523"
"ASF5V3K4IFP4K","cs_wg_v3_poss_pilot1","3S06PH7KSR5138VPU5BCCOTOYX71DD","118","1","HELICOPTER","5","5","1","935","helicopter",,"2017-03-29 01:56:59","31524"
"ASF5V3K4IFP4K","cs_wg_v3_poss_pilot1","3S06PH7KSR5138VPU5BCCOTOYX71DD","119","0","COMMUNITY","0","5","1","1669","community","0","2017-03-29 01:57:11","31525"
"A3B7TNVOISSZ2O","cs_wg_v3_poss_pilot1","3TR2532VIPV9DGWEA794AIFIBSK6JU","0","1","UMBRELLA","5","5","1","3563","Umbrella",,"2017-03-29 02:09:05","31526"
"A3B7TNVOISSZ2O","cs_wg_v3_poss_pilot1","3TR2532VIPV9DGWEA794AIFIBSK6JU","1","0","SUNLIGHT","0","5","0","2038","Sunlight","0","2017-03-29 02:09:18","31527"
"A3B7TNVOISSZ2O","cs_wg_v3_poss_pilot1","3TR2532VIPV9DGWEA794AIFIBSK6JU","2","0","BASKET","10","5","0","1756","Basket","10","2017-03-29 02:09:29","31528"
"A3B7TNVOISSZ2O","cs_wg_v3_poss_pilot1","3TR2532VIPV9DGWEA794AIFIBSK6JU","3","1","FOOTBALL","5","5","1","2707","Football",,"2017-03-29 02:09:40","31529"
"A3B7TNVOISSZ2O","cs_wg_v3_poss_pilot1","3TR2532VIPV9DGWEA794AIFIBSK6JU","4","0","STOMACH","0","5","0","2041","Stomach","0","2017-03-29 02:09:53","31530"
"A3B7TNVOISSZ2O","cs_wg_v3_poss_pilot1","3TR2532VIPV9DGWEA794AIFIBSK6JU","5","0","LADDER","10","5","0","2070","ladder","10","2017-03-29 02:10:09","31531"
"A3B7TNVOISSZ2O","cs_wg_v3_poss_pilot1","3TR2532VIPV9DGWEA794AIFIBSK6JU","6","0","COMMUNITY","10","5","0","1014","community","10","2017-03-29 02:10:23","31532"
"A3B7TNVOISSZ2O","cs_wg_v3_poss_pilot1","3TR2532VIPV9DGWEA794AIFIBSK6JU","7","1","TRAFFIC","5","5","1","2106","traffic",,"2017-03-29 02:10:32","31533"
"A3B7TNVOISSZ2O","cs_wg_v3_poss_pilot1","3TR2532VIPV9DGWEA794AIFIBSK6JU","8","1","DOORWAY","5","5","1","1976","doorway",,"2017-03-29 02:10:45","31534"
"A3B7TNVOISSZ2O","cs_wg_v3_poss_pilot1","3TR2532VIPV9DGWEA794AIFIBSK6JU","9","1","DOORWAY","5","5","1","1977","doorway",,"2017-03-29 02:10:55","31535"
"A3B7TNVOISSZ2O","cs_wg_v3_poss_pilot1","3TR2532VIPV9DGWEA794AIFIBSK6JU","10","0","STRUCTURE","10","5","0","1640","structure","10","2017-03-29 02:11:10","31536"
"A3B7TNVOISSZ2O","cs_wg_v3_poss_pilot1","3TR2532VIPV9DGWEA794AIFIBSK6JU","11","0","STOMACH","0","5","0","3875","stomach","0","2017-03-29 02:11:22","31537"
"A3B7TNVOISSZ2O","cs_wg_v3_poss_pilot1","3TR2532VIPV9DGWEA794AIFIBSK6JU","12","0","KEYBOARD","0","5","0","1386","keyboard","0","2017-03-29 02:11:34","31538"
"A3B7TNVOISSZ2O","cs_wg_v3_poss_pilot1","3TR2532VIPV9DGWEA794AIFIBSK6JU","13","0","COMMUNITY","10","5","0","1893","community","10","2017-03-29 02:11:48","31539"
"A3B7TNVOISSZ2O","cs_wg_v3_poss_pilot1","3TR2532VIPV9DGWEA794AIFIBSK6JU","14","0","SUNLIGHT","0","5","0","2636","sunlight","0","2017-03-29 02:12:02","31540"
"A3B7TNVOISSZ2O","cs_wg_v3_poss_pilot1","3TR2532VIPV9DGWEA794AIFIBSK6JU","15","0","STOMACH","0","5","1","5812","stomach","0","2017-03-29 02:12:17","31541"
"A3B7TNVOISSZ2O","cs_wg_v3_poss_pilot1","3TR2532VIPV9DGWEA794AIFIBSK6JU","16","0","MACHINE","10","5","0","1096","machine","10","2017-03-29 02:12:31","31542"
"A3B7TNVOISSZ2O","cs_wg_v3_poss_pilot1","3TR2532VIPV9DGWEA794AIFIBSK6JU","17","1","DOORWAY","5","5","1","4241","doorway",,"2017-03-29 02:12:46","31543"
"A3B7TNVOISSZ2O","cs_wg_v3_poss_pilot1","3TR2532VIPV9DGWEA794AIFIBSK6JU","18","0","KEYBOARD","0","5","1","2726","keyboard","0","2017-03-29 02:12:58","31544"
"A3B7TNVOISSZ2O","cs_wg_v3_poss_pilot1","3TR2532VIPV9DGWEA794AIFIBSK6JU","19","0","BOOKSHELF","0","5","1","2919","bookshelf","0","2017-03-29 02:13:10","31545"
"A3B7TNVOISSZ2O","cs_wg_v3_poss_pilot1","3TR2532VIPV9DGWEA794AIFIBSK6JU","20","1","DOORWAY","5","5","1","1943","bookshelf","0","2017-03-29 02:13:25","31546"
"A3B7TNVOISSZ2O","cs_wg_v3_poss_pilot1","3TR2532VIPV9DGWEA794AIFIBSK6JU","21","1","TRAFFIC","5","5","1","2048","traffic",,"2017-03-29 02:13:35","31547"
"A3B7TNVOISSZ2O","cs_wg_v3_poss_pilot1","3TR2532VIPV9DGWEA794AIFIBSK6JU","22","1","FOOTBALL","5","5","1","2252","football",,"2017-03-29 02:13:45","31548"
"A3B7TNVOISSZ2O","cs_wg_v3_poss_pilot1","3TR2532VIPV9DGWEA794AIFIBSK6JU","23","0","LADDER","10","5","0","2317","ladder","10","2017-03-29 02:13:55","31549"
"A3B7TNVOISSZ2O","cs_wg_v3_poss_pilot1","3TR2532VIPV9DGWEA794AIFIBSK6JU","24","0","MACHINE","10","5","0","1816","machine","10","2017-03-29 02:14:04","31550"
"A3B7TNVOISSZ2O","cs_wg_v3_poss_pilot1","3TR2532VIPV9DGWEA794AIFIBSK6JU","25","1","FOOTBALL","5","5","1","1909","football",,"2017-03-29 02:14:14","31551"
"A3B7TNVOISSZ2O","cs_wg_v3_poss_pilot1","3TR2532VIPV9DGWEA794AIFIBSK6JU","26","0","SUNLIGHT","0","5","1","1954","sunlight","0","2017-03-29 02:14:24","31552"
"A3B7TNVOISSZ2O","cs_wg_v3_poss_pilot1","3TR2532VIPV9DGWEA794AIFIBSK6JU","27","0","MACHINE","10","5","0","1082","machine","10","2017-03-29 02:14:33","31553"
"A3B7TNVOISSZ2O","cs_wg_v3_poss_pilot1","3TR2532VIPV9DGWEA794AIFIBSK6JU","28","1","UMBRELLA","5","5","1","2683","umbrella",,"2017-03-29 02:14:51","31554"
"A3B7TNVOISSZ2O","cs_wg_v3_poss_pilot1","3TR2532VIPV9DGWEA794AIFIBSK6JU","29","0","STOMACH","0","5","1","2804","stomach","0","2017-03-29 02:15:02","31555"
"A3B7TNVOISSZ2O","cs_wg_v3_poss_pilot1","3TR2532VIPV9DGWEA794AIFIBSK6JU","30","0","MACHINE","10","5","0","1399","machine","10","2017-03-29 02:15:12","31556"
"A3B7TNVOISSZ2O","cs_wg_v3_poss_pilot1","3TR2532VIPV9DGWEA794AIFIBSK6JU","31","0","STRUCTURE","10","5","0","1817","structure","10","2017-03-29 02:15:23","31557"
"A3B7TNVOISSZ2O","cs_wg_v3_poss_pilot1","3TR2532VIPV9DGWEA794AIFIBSK6JU","32","1","DOORWAY","5","5","1","1687","doorway",,"2017-03-29 02:15:33","31558"
"A3B7TNVOISSZ2O","cs_wg_v3_poss_pilot1","3TR2532VIPV9DGWEA794AIFIBSK6JU","33","0","LADDER","10","5","0","2014","ladder","10","2017-03-29 02:15:44","31559"
"A3B7TNVOISSZ2O","cs_wg_v3_poss_pilot1","3TR2532VIPV9DGWEA794AIFIBSK6JU","34","0","BASKET","10","5","1","2804","basket","10","2017-03-29 02:15:58","31560"
"A3B7TNVOISSZ2O","cs_wg_v3_poss_pilot1","3TR2532VIPV9DGWEA794AIFIBSK6JU","35","0","HELICOPTER","0","5","0","1869","helicopter","0","2017-03-29 02:16:10","31561"
"A3B7TNVOISSZ2O","cs_wg_v3_poss_pilot1","3TR2532VIPV9DGWEA794AIFIBSK6JU","36","0","MACHINE","10","5","0","1248","machine","10","2017-03-29 02:16:22","31562"
"A3B7TNVOISSZ2O","cs_wg_v3_poss_pilot1","3TR2532VIPV9DGWEA794AIFIBSK6JU","37","0","COMMUNITY","10","5","0","2026","community","10","2017-03-29 02:16:34","31563"
"A3B7TNVOISSZ2O","cs_wg_v3_poss_pilot1","3TR2532VIPV9DGWEA794AIFIBSK6JU","38","0","BOOKSHELF","0","5","1","2941","bookshelf","0","2017-03-29 02:16:46","31564"
"A3B7TNVOISSZ2O","cs_wg_v3_poss_pilot1","3TR2532VIPV9DGWEA794AIFIBSK6JU","39","1","DOORWAY","5","5","1","2024","doorway",,"2017-03-29 02:17:01","31565"
"A3B7TNVOISSZ2O","cs_wg_v3_poss_pilot1","3TR2532VIPV9DGWEA794AIFIBSK6JU","40","0","HELICOPTER","0","5","1","5094","helicopter","0","2017-03-29 02:17:15","31566"
"A3B7TNVOISSZ2O","cs_wg_v3_poss_pilot1","3TR2532VIPV9DGWEA794AIFIBSK6JU","41","1","WEDDING","5","5","1","2840","wedding",,"2017-03-29 02:17:26","31567"
"A3B7TNVOISSZ2O","cs_wg_v3_poss_pilot1","3TR2532VIPV9DGWEA794AIFIBSK6JU","42","1","FOOTBALL","5","5","1","1749","football",,"2017-03-29 02:17:36","31568"
"A3B7TNVOISSZ2O","cs_wg_v3_poss_pilot1","3TR2532VIPV9DGWEA794AIFIBSK6JU","43","0","SUNLIGHT","0","5","1","2609","sunlight","0","2017-03-29 02:17:47","31569"
"A3B7TNVOISSZ2O","cs_wg_v3_poss_pilot1","3TR2532VIPV9DGWEA794AIFIBSK6JU","44","0","STRUCTURE","10","5","0","1749","structure","10","2017-03-29 02:17:57","31570"
"A3B7TNVOISSZ2O","cs_wg_v3_poss_pilot1","3TR2532VIPV9DGWEA794AIFIBSK6JU","45","1","DOORWAY","5","5","1","1761","doorway",,"2017-03-29 02:18:06","31571"
"A3B7TNVOISSZ2O","cs_wg_v3_poss_pilot1","3TR2532VIPV9DGWEA794AIFIBSK6JU","46","0","KEYBOARD","0","5","1","3107","keyboard","0","2017-03-29 02:18:19","31572"
"A3B7TNVOISSZ2O","cs_wg_v3_poss_pilot1","3TR2532VIPV9DGWEA794AIFIBSK6JU","47","1","TRAFFIC","5","5","1","1775","traffic",,"2017-03-29 02:18:29","31573"
"A3B7TNVOISSZ2O","cs_wg_v3_poss_pilot1","3TR2532VIPV9DGWEA794AIFIBSK6JU","48","0","MACHINE","10","5","0","2248","machine","10","2017-03-29 02:18:39","31574"
"A3B7TNVOISSZ2O","cs_wg_v3_poss_pilot1","3TR2532VIPV9DGWEA794AIFIBSK6JU","49","0","HELICOPTER","0","5","1","1747","helicopter","0","2017-03-29 02:18:49","31575"
"A3B7TNVOISSZ2O","cs_wg_v3_poss_pilot1","3TR2532VIPV9DGWEA794AIFIBSK6JU","50","1","FOOTBALL","5","5","1","1752","football",,"2017-03-29 02:18:58","31576"
"A3B7TNVOISSZ2O","cs_wg_v3_poss_pilot1","3TR2532VIPV9DGWEA794AIFIBSK6JU","51","0","LADDER","10","5","0","2132","ladder","10","2017-03-29 02:19:08","31577"
"A3B7TNVOISSZ2O","cs_wg_v3_poss_pilot1","3TR2532VIPV9DGWEA794AIFIBSK6JU","52","1","TRAFFIC","5","5","1","1750","traffic",,"2017-03-29 02:19:17","31578"
"A3B7TNVOISSZ2O","cs_wg_v3_poss_pilot1","3TR2532VIPV9DGWEA794AIFIBSK6JU","53","0","BOOKSHELF","0","5","1","2697","bookshelf","0","2017-03-29 02:19:29","31579"
"A3B7TNVOISSZ2O","cs_wg_v3_poss_pilot1","3TR2532VIPV9DGWEA794AIFIBSK6JU","54","1","TRAFFIC","5","5","1","1774","traffic",,"2017-03-29 02:19:38","31580"
"A3B7TNVOISSZ2O","cs_wg_v3_poss_pilot1","3TR2532VIPV9DGWEA794AIFIBSK6JU","55","0","STOMACH","0","5","1","3695","stomach","0","2017-03-29 02:19:50","31581"
"A3B7TNVOISSZ2O","cs_wg_v3_poss_pilot1","3TR2532VIPV9DGWEA794AIFIBSK6JU","56","0","SUNLIGHT","0","5","1","4510","sunlight","0","2017-03-29 02:20:06","31582"
"A3B7TNVOISSZ2O","cs_wg_v3_poss_pilot1","3TR2532VIPV9DGWEA794AIFIBSK6JU","57","0","KEYBOARD","0","5","1","2355","keyboard","0","2017-03-29 02:20:22","31583"
"A3B7TNVOISSZ2O","cs_wg_v3_poss_pilot1","3TR2532VIPV9DGWEA794AIFIBSK6JU","58","0","BASKET","10","5","0","4823","basket","10","2017-03-29 02:20:35","31584"
"A3B7TNVOISSZ2O","cs_wg_v3_poss_pilot1","3TR2532VIPV9DGWEA794AIFIBSK6JU","59","1","TRAFFIC","5","5","1","2192","traffic",,"2017-03-29 02:20:44","31585"
"A3B7TNVOISSZ2O","cs_wg_v3_poss_pilot1","3TR2532VIPV9DGWEA794AIFIBSK6JU","60","0","STRUCTURE","10","5","0","1992","structure","10","2017-03-29 02:20:54","31586"
"A3B7TNVOISSZ2O","cs_wg_v3_poss_pilot1","3TR2532VIPV9DGWEA794AIFIBSK6JU","61","0","KEYBOARD","0","5","1","3095","keyboard","0","2017-03-29 02:21:04","31587"
"A3B7TNVOISSZ2O","cs_wg_v3_poss_pilot1","3TR2532VIPV9DGWEA794AIFIBSK6JU","62","0","KEYBOARD","0","5","1","2526","keyboard","0","2017-03-29 02:21:17","31588"
"A3B7TNVOISSZ2O","cs_wg_v3_poss_pilot1","3TR2532VIPV9DGWEA794AIFIBSK6JU","63","0","KEYBOARD","0","5","1","1940","keyboard","0","2017-03-29 02:21:28","31589"
"A3B7TNVOISSZ2O","cs_wg_v3_poss_pilot1","3TR2532VIPV9DGWEA794AIFIBSK6JU","64","0","BASKET","10","5","0","3705","basket","10","2017-03-29 02:21:42","31590"
"A3B7TNVOISSZ2O","cs_wg_v3_poss_pilot1","3TR2532VIPV9DGWEA794AIFIBSK6JU","65","0","STRUCTURE","10","5","0","2403","structure","10","2017-03-29 02:21:53","31591"
"A3B7TNVOISSZ2O","cs_wg_v3_poss_pilot1","3TR2532VIPV9DGWEA794AIFIBSK6JU","66","1","FOOTBALL","5","5","1","1961","football",,"2017-03-29 02:22:02","31592"
"A3B7TNVOISSZ2O","cs_wg_v3_poss_pilot1","3TR2532VIPV9DGWEA794AIFIBSK6JU","67","0","LADDER","10","5","0","2830","ladder","10","2017-03-29 02:22:13","31593"
"A3B7TNVOISSZ2O","cs_wg_v3_poss_pilot1","3TR2532VIPV9DGWEA794AIFIBSK6JU","68","0","HELICOPTER","0","5","1","2708","helicopter","0","2017-03-29 02:22:24","31594"
"A3B7TNVOISSZ2O","cs_wg_v3_poss_pilot1","3TR2532VIPV9DGWEA794AIFIBSK6JU","69","1","FOOTBALL","5","5","1","2401","football",,"2017-03-29 02:22:34","31595"
"A3B7TNVOISSZ2O","cs_wg_v3_poss_pilot1","3TR2532VIPV9DGWEA794AIFIBSK6JU","70","0","COMMUNITY","10","5","0","1981","community","10","2017-03-29 02:22:45","31596"
"A3B7TNVOISSZ2O","cs_wg_v3_poss_pilot1","3TR2532VIPV9DGWEA794AIFIBSK6JU","71","0","SUNLIGHT","0","5","1","1881","sunlight","0","2017-03-29 02:22:56","31597"
"A3B7TNVOISSZ2O","cs_wg_v3_poss_pilot1","3TR2532VIPV9DGWEA794AIFIBSK6JU","72","1","UMBRELLA","5","5","1","1836","umbrella",,"2017-03-29 02:23:06","31598"
"A3B7TNVOISSZ2O","cs_wg_v3_poss_pilot1","3TR2532VIPV9DGWEA794AIFIBSK6JU","73","1","WEDDING","5","5","1","1497","wedding",,"2017-03-29 02:23:15","31599"
"A3B7TNVOISSZ2O","cs_wg_v3_poss_pilot1","3TR2532VIPV9DGWEA794AIFIBSK6JU","74","0","HELICOPTER","0","5","1","1708","helicopter","0","2017-03-29 02:23:25","31600"
"A3B7TNVOISSZ2O","cs_wg_v3_poss_pilot1","3TR2532VIPV9DGWEA794AIFIBSK6JU","75","0","SUNLIGHT","0","5","1","2443","sunlight","0","2017-03-29 02:23:35","31601"
"A3B7TNVOISSZ2O","cs_wg_v3_poss_pilot1","3TR2532VIPV9DGWEA794AIFIBSK6JU","76","1","UMBRELLA","5","5","1","1382","umbrella",,"2017-03-29 02:23:44","31602"
"A3B7TNVOISSZ2O","cs_wg_v3_poss_pilot1","3TR2532VIPV9DGWEA794AIFIBSK6JU","77","0","BASKET","10","5","0","2084","basket","10","2017-03-29 02:23:54","31603"
"A3B7TNVOISSZ2O","cs_wg_v3_poss_pilot1","3TR2532VIPV9DGWEA794AIFIBSK6JU","78","0","HELICOPTER","0","5","1","1850","helicopter","0","2017-03-29 02:24:06","31604"
"A3B7TNVOISSZ2O","cs_wg_v3_poss_pilot1","3TR2532VIPV9DGWEA794AIFIBSK6JU","79","0","COMMUNITY","10","5","0","2369","community","10","2017-03-29 02:24:18","31605"
"A3B7TNVOISSZ2O","cs_wg_v3_poss_pilot1","3TR2532VIPV9DGWEA794AIFIBSK6JU","80","0","LADDER","10","5","0","1667","ladder","10","2017-03-29 02:24:28","31606"
"A3B7TNVOISSZ2O","cs_wg_v3_poss_pilot1","3TR2532VIPV9DGWEA794AIFIBSK6JU","81","1","UMBRELLA","5","5","1","2152","umbrella",,"2017-03-29 02:24:41","31607"
"A3B7TNVOISSZ2O","cs_wg_v3_poss_pilot1","3TR2532VIPV9DGWEA794AIFIBSK6JU","82","0","STOMACH","0","5","1","2583","stomach","0","2017-03-29 02:24:51","31608"
"A3B7TNVOISSZ2O","cs_wg_v3_poss_pilot1","3TR2532VIPV9DGWEA794AIFIBSK6JU","83","1","WEDDING","5","5","1","1577","wedding",,"2017-03-29 02:25:00","31609"
"A3B7TNVOISSZ2O","cs_wg_v3_poss_pilot1","3TR2532VIPV9DGWEA794AIFIBSK6JU","84","0","STRUCTURE","10","5","0","2210","structure","10","2017-03-29 02:25:10","31610"
"A3B7TNVOISSZ2O","cs_wg_v3_poss_pilot1","3TR2532VIPV9DGWEA794AIFIBSK6JU","85","0","LADDER","10","5","0","1459","ladder","10","2017-03-29 02:25:20","31611"
"A3B7TNVOISSZ2O","cs_wg_v3_poss_pilot1","3TR2532VIPV9DGWEA794AIFIBSK6JU","86","0","BOOKSHELF","0","5","1","2434","bookshelf","0","2017-03-29 02:25:31","31612"
"A3B7TNVOISSZ2O","cs_wg_v3_poss_pilot1","3TR2532VIPV9DGWEA794AIFIBSK6JU","87","1","WEDDING","5","5","1","1881","wedding",,"2017-03-29 02:25:40","31613"
"A3B7TNVOISSZ2O","cs_wg_v3_poss_pilot1","3TR2532VIPV9DGWEA794AIFIBSK6JU","88","0","STRUCTURE","10","5","0","1510","structure","10","2017-03-29 02:25:49","31614"
"A3B7TNVOISSZ2O","cs_wg_v3_poss_pilot1","3TR2532VIPV9DGWEA794AIFIBSK6JU","89","0","BOOKSHELF","0","5","1","2225","bookshelf","0","2017-03-29 02:26:00","31615"
"A3B7TNVOISSZ2O","cs_wg_v3_poss_pilot1","3TR2532VIPV9DGWEA794AIFIBSK6JU","90","0","BASKET","10","5","0","2231","basket","10","2017-03-29 02:26:10","31616"
"A3B7TNVOISSZ2O","cs_wg_v3_poss_pilot1","3TR2532VIPV9DGWEA794AIFIBSK6JU","91","0","COMMUNITY","10","5","0","1870","community","10","2017-03-29 02:26:23","31617"
"A3B7TNVOISSZ2O","cs_wg_v3_poss_pilot1","3TR2532VIPV9DGWEA794AIFIBSK6JU","92","0","COMMUNITY","10","5","0","1414","community","10","2017-03-29 02:26:33","31618"
"A3B7TNVOISSZ2O","cs_wg_v3_poss_pilot1","3TR2532VIPV9DGWEA794AIFIBSK6JU","93","0","BASKET","10","5","0","1398","basket","10","2017-03-29 02:26:42","31619"
"A3B7TNVOISSZ2O","cs_wg_v3_poss_pilot1","3TR2532VIPV9DGWEA794AIFIBSK6JU","94","1","FOOTBALL","5","5","1","1656","football",,"2017-03-29 02:26:51","31620"
"A3B7TNVOISSZ2O","cs_wg_v3_poss_pilot1","3TR2532VIPV9DGWEA794AIFIBSK6JU","95","0","LADDER","10","5","0","1241","ladder","10","2017-03-29 02:27:00","31621"
"A3B7TNVOISSZ2O","cs_wg_v3_poss_pilot1","3TR2532VIPV9DGWEA794AIFIBSK6JU","96","0","BOOKSHELF","0","5","1","1908","bookshelf","0","2017-03-29 02:27:11","31622"
"A3B7TNVOISSZ2O","cs_wg_v3_poss_pilot1","3TR2532VIPV9DGWEA794AIFIBSK6JU","97","0","STRUCTURE","10","5","0","1377","structure","10","2017-03-29 02:27:20","31623"
"A3B7TNVOISSZ2O","cs_wg_v3_poss_pilot1","3TR2532VIPV9DGWEA794AIFIBSK6JU","98","0","BOOKSHELF","0","5","1","1510","bookshelf","0","2017-03-29 02:27:29","31624"
"A3B7TNVOISSZ2O","cs_wg_v3_poss_pilot1","3TR2532VIPV9DGWEA794AIFIBSK6JU","99","0","COMMUNITY","10","5","0","1367","community","10","2017-03-29 02:27:39","31625"
"A3B7TNVOISSZ2O","cs_wg_v3_poss_pilot1","3TR2532VIPV9DGWEA794AIFIBSK6JU","100","1","WEDDING","5","5","1","1822","wedding",,"2017-03-29 02:27:48","31626"
"A3B7TNVOISSZ2O","cs_wg_v3_poss_pilot1","3TR2532VIPV9DGWEA794AIFIBSK6JU","101","0","STOMACH","0","5","1","2293","stomach","0","2017-03-29 02:27:59","31627"
"A3B7TNVOISSZ2O","cs_wg_v3_poss_pilot1","3TR2532VIPV9DGWEA794AIFIBSK6JU","102","1","WEDDING","5","5","1","1423","wedding",,"2017-03-29 02:28:07","31628"
"A3B7TNVOISSZ2O","cs_wg_v3_poss_pilot1","3TR2532VIPV9DGWEA794AIFIBSK6JU","103","0","SUNLIGHT","0","5","1","1698","sunlight","0","2017-03-29 02:28:17","31629"
"A3B7TNVOISSZ2O","cs_wg_v3_poss_pilot1","3TR2532VIPV9DGWEA794AIFIBSK6JU","104","1","WEDDING","5","5","1","1614","wedding",,"2017-03-29 02:28:27","31630"
"A3B7TNVOISSZ2O","cs_wg_v3_poss_pilot1","3TR2532VIPV9DGWEA794AIFIBSK6JU","105","1","UMBRELLA","5","5","1","1649","umbrella",,"2017-03-29 02:28:37","31631"
"A3B7TNVOISSZ2O","cs_wg_v3_poss_pilot1","3TR2532VIPV9DGWEA794AIFIBSK6JU","106","0","HELICOPTER","0","5","1","1676","helicopter","0","2017-03-29 02:28:46","31632"
"A3B7TNVOISSZ2O","cs_wg_v3_poss_pilot1","3TR2532VIPV9DGWEA794AIFIBSK6JU","107","0","MACHINE","10","5","0","1962","machine","10","2017-03-29 02:28:57","31633"
"A3B7TNVOISSZ2O","cs_wg_v3_poss_pilot1","3TR2532VIPV9DGWEA794AIFIBSK6JU","108","0","HELICOPTER","0","5","1","4059","helicopter","0","2017-03-29 02:29:09","31634"
"A3B7TNVOISSZ2O","cs_wg_v3_poss_pilot1","3TR2532VIPV9DGWEA794AIFIBSK6JU","109","1","WEDDING","5","5","1","1777","wedding",,"2017-03-29 02:29:18","31635"
"A3B7TNVOISSZ2O","cs_wg_v3_poss_pilot1","3TR2532VIPV9DGWEA794AIFIBSK6JU","110","0","MACHINE","10","5","0","1395","machine","10","2017-03-29 02:29:27","31636"
"A3B7TNVOISSZ2O","cs_wg_v3_poss_pilot1","3TR2532VIPV9DGWEA794AIFIBSK6JU","111","1","UMBRELLA","5","5","1","1990","umbrella",,"2017-03-29 02:29:38","31637"
"A3B7TNVOISSZ2O","cs_wg_v3_poss_pilot1","3TR2532VIPV9DGWEA794AIFIBSK6JU","112","0","KEYBOARD","0","5","1","3846","keyboard","0","2017-03-29 02:29:50","31638"
"A3B7TNVOISSZ2O","cs_wg_v3_poss_pilot1","3TR2532VIPV9DGWEA794AIFIBSK6JU","113","1","TRAFFIC","5","5","1","1333","traffic",,"2017-03-29 02:29:58","31639"
"A3B7TNVOISSZ2O","cs_wg_v3_poss_pilot1","3TR2532VIPV9DGWEA794AIFIBSK6JU","114","1","TRAFFIC","5","5","1","1462","traffic",,"2017-03-29 02:30:08","31640"
"A3B7TNVOISSZ2O","cs_wg_v3_poss_pilot1","3TR2532VIPV9DGWEA794AIFIBSK6JU","115","0","BOOKSHELF","0","5","1","1412","bookshelf","0","2017-03-29 02:30:18","31641"
"A3B7TNVOISSZ2O","cs_wg_v3_poss_pilot1","3TR2532VIPV9DGWEA794AIFIBSK6JU","116","1","UMBRELLA","5","5","1","1331","umbrella",,"2017-03-29 02:30:26","31642"
"A3B7TNVOISSZ2O","cs_wg_v3_poss_pilot1","3TR2532VIPV9DGWEA794AIFIBSK6JU","117","0","STOMACH","0","5","1","1724","stomach","0","2017-03-29 02:30:36","31643"
"A3B7TNVOISSZ2O","cs_wg_v3_poss_pilot1","3TR2532VIPV9DGWEA794AIFIBSK6JU","118","0","BASKET","10","5","0","2548","basket","10","2017-03-29 02:30:48","31644"
"A3B7TNVOISSZ2O","cs_wg_v3_poss_pilot1","3TR2532VIPV9DGWEA794AIFIBSK6JU","119","1","DOORWAY","5","5","1","1653","doorway",,"2017-03-29 02:31:01","31645"
