"subject","version","assignmentId","trial","trial_type","word","value","alt","value2","choice","rt","resp","resp2","resp3","resp4","used_hint","stamp","id"
"AA8PZKO9XGCKO","cs_wg_full_v4_conf_pilot4","3ND9UOO81K3D2LZK4AYLORRQW5ELWF","0","0","JUNE","7","MARCH","1","0","6381",,,,,"1","2018-08-15 19:16:56","9"
"AA8PZKO9XGCKO","cs_wg_full_v4_conf_pilot4","3ND9UOO81K3D2LZK4AYLORRQW5ELWF","1","0","FEBRUARY","2","DECEMBER","8","1","3393",,,,,"1","2018-08-15 19:17:03","10"
"AA8PZKO9XGCKO","cs_wg_full_v4_conf_pilot4","3ND9UOO81K3D2LZK4AYLORRQW5ELWF","2","0","JUNE","7","FEBRUARY","2","0","4545",,,,,"1","2018-08-15 19:17:11","11"
"AA8PZKO9XGCKO","cs_wg_full_v4_conf_pilot4","3ND9UOO81K3D2LZK4AYLORRQW5ELWF","3","0","AUGUST","10","OCTOBER","5","0","2873",,,,,"1","2018-08-15 19:17:17","12"
"AA8PZKO9XGCKO","cs_wg_full_v4_conf_pilot4","3ND9UOO81K3D2LZK4AYLORRQW5ELWF","4","0","JULY","9","APRIL","6","0","3957",,,,,"1","2018-08-15 19:17:24","13"
"AA8PZKO9XGCKO","cs_wg_full_v4_conf_pilot4","3ND9UOO81K3D2LZK4AYLORRQW5ELWF","5","0","JUNE","7","OCTOBER","5","0","2293",,,,,"1","2018-08-15 19:17:28","14"
"A3R21KIGJQ4A51","cs_wg_full_v4_conf_pilot4","3TVRFO09GKGSRL4AEFU7QA5X57KLX8","0","0","SEPTEMBER","7","APRIL","2","0","6510",,,,,"1","2018-08-15 19:17:32","15"
"AA8PZKO9XGCKO","cs_wg_full_v4_conf_pilot4","3ND9UOO81K3D2LZK4AYLORRQW5ELWF","6","0","DECEMBER","8","FEBRUARY","2","0","4641",,,,,"1","2018-08-15 19:17:36","16"
"A3R21KIGJQ4A51","cs_wg_full_v4_conf_pilot4","3TVRFO09GKGSRL4AEFU7QA5X57KLX8","1","0","OCTOBER","6","APRIL","2","0","5537",,,,,"1","2018-08-15 19:17:40","17"
"A1XB671UQA34Q8","cs_wg_full_v4_conf_pilot4","358UUM7WRZ49F4TW1MN5IN1896UR79","0","0","FEBRUARY","1","JUNE","8","1","6084",,,,,"1","2018-08-15 19:17:42","18"
"AA8PZKO9XGCKO","cs_wg_full_v4_conf_pilot4","3ND9UOO81K3D2LZK4AYLORRQW5ELWF","7","0","APRIL","6","MAY","11","1","4634",,,,,"1","2018-08-15 19:17:45","19"
"A1XB671UQA34Q8","cs_wg_full_v4_conf_pilot4","358UUM7WRZ49F4TW1MN5IN1896UR79","1","0","SEPTEMBER","3","FEBRUARY","1","0","5956",,,,,"1","2018-08-15 19:17:51","20"
"AA8PZKO9XGCKO","cs_wg_full_v4_conf_pilot4","3ND9UOO81K3D2LZK4AYLORRQW5ELWF","8","0","OCTOBER","5","JULY","9","1","3331",,,,,"1","2018-08-15 19:17:52","21"
"A3R21KIGJQ4A51","cs_wg_full_v4_conf_pilot4","3TVRFO09GKGSRL4AEFU7QA5X57KLX8","2","0","SEPTEMBER","7","NOVEMBER","9","1","9573",,,,,"1","2018-08-15 19:17:55","22"
"A2EJ7U3TZAKROG","cs_wg_full_v4_conf_pilot4","3JRJSWSMQHM25HN4D40F6ZQ9PFIE3E","0","0","JUNE","9","FEBRUARY","3","0","9027",,,,,"1","2018-08-15 19:17:58","23"
"A1XB671UQA34Q8","cs_wg_full_v4_conf_pilot4","358UUM7WRZ49F4TW1MN5IN1896UR79","2","0","SEPTEMBER","3","JUNE","8","1","5491",,,,,"1","2018-08-15 19:17:59","24"
"AA8PZKO9XGCKO","cs_wg_full_v4_conf_pilot4","3ND9UOO81K3D2LZK4AYLORRQW5ELWF","9","0","NOVEMBER","12","MAY","11","0","4478",,,,,"1","2018-08-15 19:18:01","25"
"A1VPQJR2V850OM","cs_wg_full_v4_conf_pilot4","36AHBNMV1RDYTE6S6UILQB41Y4CDYQ","0","0","OCTOBER","9","APRIL","12","1","16718",,,,,"1","2018-08-15 19:18:03","26"
"A3R21KIGJQ4A51","cs_wg_full_v4_conf_pilot4","3TVRFO09GKGSRL4AEFU7QA5X57KLX8","3","0","FEBRUARY","1","JULY","3","1","5909",,,,,"1","2018-08-15 19:18:03","27"
"AMJOSPFPF8KLH","cs_wg_full_v4_conf_pilot4","32VNZTT0A75CWHBDZOPYFBHYI44R4P","0","0","JULY","8","DECEMBER","5","0","33029",,,,,"1","2018-08-15 19:18:05","28"
"AA8PZKO9XGCKO","cs_wg_full_v4_conf_pilot4","3ND9UOO81K3D2LZK4AYLORRQW5ELWF","10","0","JANUARY","3","SEPTEMBER","4","1","4963",,,,,"1","2018-08-15 19:18:08","29"
"A1XB671UQA34Q8","cs_wg_full_v4_conf_pilot4","358UUM7WRZ49F4TW1MN5IN1896UR79","3","0","JANUARY","12","OCTOBER","10","0","7632",,,,,"1","2018-08-15 19:18:09","30"
"A2EJ7U3TZAKROG","cs_wg_full_v4_conf_pilot4","3JRJSWSMQHM25HN4D40F6ZQ9PFIE3E","1","0","FEBRUARY","3","JANUARY","7","1","8016",,,,,"1","2018-08-15 19:18:09","31"
"A3R21KIGJQ4A51","cs_wg_full_v4_conf_pilot4","3TVRFO09GKGSRL4AEFU7QA5X57KLX8","4","0","FEBRUARY","1","AUGUST","5","1","3846",,,,,"1","2018-08-15 19:18:10","32"
"A2DHKTD1GSBXR2","cs_wg_full_v4_conf_pilot4","3OHYZ19UGC6O1TZEGXILYJYTZRGOAO","0","0","DECEMBER","6","JUNE","2","0","13216",,,,,"1","2018-08-15 19:18:14","33"
"AA8PZKO9XGCKO","cs_wg_full_v4_conf_pilot4","3ND9UOO81K3D2LZK4AYLORRQW5ELWF","11","0","JANUARY","3","OCTOBER","5","1","4273",,,,,"1","2018-08-15 19:18:15","34"
"A3R21KIGJQ4A51","cs_wg_full_v4_conf_pilot4","3TVRFO09GKGSRL4AEFU7QA5X57KLX8","5","0","FEBRUARY","1","OCTOBER","6","1","4246",,,,,"1","2018-08-15 19:18:16","35"
"A1XB671UQA34Q8","cs_wg_full_v4_conf_pilot4","358UUM7WRZ49F4TW1MN5IN1896UR79","4","0","MAY","4","OCTOBER","10","1","4790",,,,,"1","2018-08-15 19:18:16","36"
"AMJOSPFPF8KLH","cs_wg_full_v4_conf_pilot4","32VNZTT0A75CWHBDZOPYFBHYI44R4P","1","0","APRIL","11","JANUARY","12","0","9651",,,,,"1","2018-08-15 19:18:17","37"
"A2EJ7U3TZAKROG","cs_wg_full_v4_conf_pilot4","3JRJSWSMQHM25HN4D40F6ZQ9PFIE3E","2","0","SEPTEMBER","8","JUNE","9","1","7764",,,,,"1","2018-08-15 19:18:19","38"
"A1VPQJR2V850OM","cs_wg_full_v4_conf_pilot4","36AHBNMV1RDYTE6S6UILQB41Y4CDYQ","1","0","FEBRUARY","1","JULY","7","1","13033",,,,,"1","2018-08-15 19:18:20","39"
"AA8PZKO9XGCKO","cs_wg_full_v4_conf_pilot4","3ND9UOO81K3D2LZK4AYLORRQW5ELWF","12","0","JULY","9","MARCH","1","0","5034",,,,,"1","2018-08-15 19:18:22","40"
"A3R21KIGJQ4A51","cs_wg_full_v4_conf_pilot4","3TVRFO09GKGSRL4AEFU7QA5X57KLX8","6","0","MARCH","8","OCTOBER","6","0","4419",,,,,"1","2018-08-15 19:18:23","41"
"A1XB671UQA34Q8","cs_wg_full_v4_conf_pilot4","358UUM7WRZ49F4TW1MN5IN1896UR79","5","0","JULY","7","FEBRUARY","1","0","6506",,,,,"1","2018-08-15 19:18:25","42"
"AJW3PL5UDH4BP","cs_wg_full_v4_conf_pilot4","3HHRAGRYX86AWAP9OR4L2ON9T9YO99","0","0","JULY","2","SEPTEMBER","10","1","24989",,,,,"1","2018-08-15 19:18:25","43"
"A2DHKTD1GSBXR2","cs_wg_full_v4_conf_pilot4","3OHYZ19UGC6O1TZEGXILYJYTZRGOAO","1","0","DECEMBER","6","JULY","7","1","10146",,,,,"1","2018-08-15 19:18:27","44"
"A1KQV9A4YITCSJ","cs_wg_full_v4_conf_pilot4","3VHP9MDGRNLIOVJJ18VMHKF37TACFS","0","0","OCTOBER","9","MARCH","12","1","9963",,,,,"1","2018-08-15 19:18:28","45"
"A2EJ7U3TZAKROG","cs_wg_full_v4_conf_pilot4","3JRJSWSMQHM25HN4D40F6ZQ9PFIE3E","3","0","MARCH","5","JANUARY","7","1","7053",,,,,"1","2018-08-15 19:18:29","46"
"A3R21KIGJQ4A51","cs_wg_full_v4_conf_pilot4","3TVRFO09GKGSRL4AEFU7QA5X57KLX8","7","0","JANUARY","10","MARCH","8","0","4426",,,,,"1","2018-08-15 19:18:30","47"
"A1XB671UQA34Q8","cs_wg_full_v4_conf_pilot4","358UUM7WRZ49F4TW1MN5IN1896UR79","6","0","NOVEMBER","5","JULY","7","1","5549",,,,,"1","2018-08-15 19:18:33","48"
"A1KQV9A4YITCSJ","cs_wg_full_v4_conf_pilot4","3VHP9MDGRNLIOVJJ18VMHKF37TACFS","1","0","FEBRUARY","7","NOVEMBER","5","0","3157",,,,,"1","2018-08-15 19:18:34","49"
"AA8PZKO9XGCKO","cs_wg_full_v4_conf_pilot4","3ND9UOO81K3D2LZK4AYLORRQW5ELWF","13","0","FEBRUARY","2","JUNE","7","1","10243",,,,,"1","2018-08-15 19:18:35","50"
"A36ES9KTXHWW1O","cs_wg_full_v4_conf_pilot4","30MVJZJNHMEWVZYC8ECGUS6NUFOJ9L","0","0","MARCH","1","FEBRUARY","3","1","28654",,,,,"1","2018-08-15 19:18:36","51"
"A3R21KIGJQ4A51","cs_wg_full_v4_conf_pilot4","3TVRFO09GKGSRL4AEFU7QA5X57KLX8","8","0","JUNE","4","SEPTEMBER","7","1","3786",,,,,"1","2018-08-15 19:18:36","52"
"A2EJ7U3TZAKROG","cs_wg_full_v4_conf_pilot4","3JRJSWSMQHM25HN4D40F6ZQ9PFIE3E","4","0","JULY","4","MAY","2","0","5537",,,,,"1","2018-08-15 19:18:37","53"
"A2DHKTD1GSBXR2","cs_wg_full_v4_conf_pilot4","3OHYZ19UGC6O1TZEGXILYJYTZRGOAO","2","0","JUNE","2","NOVEMBER","1","0","10186",,,,,"1","2018-08-15 19:18:39","54"
"A1KQV9A4YITCSJ","cs_wg_full_v4_conf_pilot4","3VHP9MDGRNLIOVJJ18VMHKF37TACFS","2","0","NOVEMBER","5","SEPTEMBER","1","0","4021",,,,,"1","2018-08-15 19:18:40","55"
"A1XB671UQA34Q8","cs_wg_full_v4_conf_pilot4","358UUM7WRZ49F4TW1MN5IN1896UR79","7","0","APRIL","2","FEBRUARY","1","0","5287",,,,,"1","2018-08-15 19:18:41","56"
"A2XNOJZEAY4WFJ","cs_wg_full_v4_conf_pilot4","3VAR3R6G1P2AI56ZJZY72SSY93GO8K","0","0","JUNE","10","APRIL","4","0","12339",,,,,"1","2018-08-15 19:18:42","57"
"A3R21KIGJQ4A51","cs_wg_full_v4_conf_pilot4","3TVRFO09GKGSRL4AEFU7QA5X57KLX8","9","0","JUNE","4","JANUARY","10","1","4192",,,,,"1","2018-08-15 19:18:43","58"
"AA8PZKO9XGCKO","cs_wg_full_v4_conf_pilot4","3ND9UOO81K3D2LZK4AYLORRQW5ELWF","14","0","AUGUST","10","NOVEMBER","12","1","5499",,,,,"1","2018-08-15 19:18:43","59"
"AJW3PL5UDH4BP","cs_wg_full_v4_conf_pilot4","3HHRAGRYX86AWAP9OR4L2ON9T9YO99","1","0","AUGUST","8","MARCH","5","0","14981",,,,,"1","2018-08-15 19:18:43","60"
"A2EJ7U3TZAKROG","cs_wg_full_v4_conf_pilot4","3JRJSWSMQHM25HN4D40F6ZQ9PFIE3E","5","0","MAY","2","FEBRUARY","3","0","3204",,,,,"1","2018-08-15 19:18:44","61"
"A36ES9KTXHWW1O","cs_wg_full_v4_conf_pilot4","30MVJZJNHMEWVZYC8ECGUS6NUFOJ9L","1","0","APRIL","10","JULY","8","1","7516",,,,,"1","2018-08-15 19:18:47","62"
"A2DHKTD1GSBXR2","cs_wg_full_v4_conf_pilot4","3OHYZ19UGC6O1TZEGXILYJYTZRGOAO","3","0","JUNE","2","DECEMBER","6","1","5600",,,,,"1","2018-08-15 19:18:48","63"
"A1XB671UQA34Q8","cs_wg_full_v4_conf_pilot4","358UUM7WRZ49F4TW1MN5IN1896UR79","8","0","JULY","7","APRIL","2","0","5680",,,,,"1","2018-08-15 19:18:50","64"
"AA8PZKO9XGCKO","cs_wg_full_v4_conf_pilot4","3ND9UOO81K3D2LZK4AYLORRQW5ELWF","15","0","MAY","11","NOVEMBER","12","1","5945",,,,,"1","2018-08-15 19:18:51","65"
"A3R21KIGJQ4A51","cs_wg_full_v4_conf_pilot4","3TVRFO09GKGSRL4AEFU7QA5X57KLX8","10","0","DECEMBER","11","MARCH","8","0","6008",,,,,"1","2018-08-15 19:18:51","66"
"A2XNOJZEAY4WFJ","cs_wg_full_v4_conf_pilot4","3VAR3R6G1P2AI56ZJZY72SSY93GO8K","1","0","SEPTEMBER","12","FEBRUARY","6","0","6292",,,,,"1","2018-08-15 19:18:52","67"
"A36ES9KTXHWW1O","cs_wg_full_v4_conf_pilot4","30MVJZJNHMEWVZYC8ECGUS6NUFOJ9L","2","0","APRIL","10","NOVEMBER","4","0","3012",,,,,"1","2018-08-15 19:18:52","68"
"A2EJ7U3TZAKROG","cs_wg_full_v4_conf_pilot4","3JRJSWSMQHM25HN4D40F6ZQ9PFIE3E","6","0","APRIL","1","MARCH","5","1","7071",,,,,"1","2018-08-15 19:18:53","69"
"A1KQV9A4YITCSJ","cs_wg_full_v4_conf_pilot4","3VHP9MDGRNLIOVJJ18VMHKF37TACFS","3","0","APRIL","11","JUNE","8","0","4697",,,,,"1","2018-08-15 19:18:58","70"
"A36ES9KTXHWW1O","cs_wg_full_v4_conf_pilot4","30MVJZJNHMEWVZYC8ECGUS6NUFOJ9L","3","0","JULY","8","OCTOBER","11","0","3341",,,,,"1","2018-08-15 19:18:59","71"
"A2DHKTD1GSBXR2","cs_wg_full_v4_conf_pilot4","3OHYZ19UGC6O1TZEGXILYJYTZRGOAO","4","0","NOVEMBER","1","JULY","7","1","9248",,,,,"1","2018-08-15 19:18:59","72"
"A2EJ7U3TZAKROG","cs_wg_full_v4_conf_pilot4","3JRJSWSMQHM25HN4D40F6ZQ9PFIE3E","7","0","FEBRUARY","3","MAY","2","0","3437",,,,,"1","2018-08-15 19:18:59","73"
"A1XB671UQA34Q8","cs_wg_full_v4_conf_pilot4","358UUM7WRZ49F4TW1MN5IN1896UR79","9","0","FEBRUARY","1","AUGUST","9","1","7049",,,,,"1","2018-08-15 19:19:00","74"
"A3R21KIGJQ4A51","cs_wg_full_v4_conf_pilot4","3TVRFO09GKGSRL4AEFU7QA5X57KLX8","11","0","JULY","3","AUGUST","5","1","6008",,,,,"1","2018-08-15 19:19:00","75"
"AJW3PL5UDH4BP","cs_wg_full_v4_conf_pilot4","3HHRAGRYX86AWAP9OR4L2ON9T9YO99","2","0","MAY","12","FEBRUARY","9","0","15434",,,,,"1","2018-08-15 19:19:01","76"
"AA8PZKO9XGCKO","cs_wg_full_v4_conf_pilot4","3ND9UOO81K3D2LZK4AYLORRQW5ELWF","16","0","NOVEMBER","12","JUNE","7","0","5451",,,,,"1","2018-08-15 19:19:02","77"
"A36ES9KTXHWW1O","cs_wg_full_v4_conf_pilot4","30MVJZJNHMEWVZYC8ECGUS6NUFOJ9L","4","0","NOVEMBER","4","MAY","6","1","2075",,,,,"1","2018-08-15 19:19:04","78"
"A2XNOJZEAY4WFJ","cs_wg_full_v4_conf_pilot4","3VAR3R6G1P2AI56ZJZY72SSY93GO8K","2","0","JANUARY","5","NOVEMBER","2","0","8981",,,,,"1","2018-08-15 19:19:04","79"
"A1KQV9A4YITCSJ","cs_wg_full_v4_conf_pilot4","3VHP9MDGRNLIOVJJ18VMHKF37TACFS","4","0","MARCH","12","AUGUST","2","0","2560",,,,,"1","2018-08-15 19:19:05","80"
"A3R21KIGJQ4A51","cs_wg_full_v4_conf_pilot4","3TVRFO09GKGSRL4AEFU7QA5X57KLX8","12","0","JULY","3","JUNE","4","1","3177",,,,,"1","2018-08-15 19:19:05","81"
"AMJOSPFPF8KLH","cs_wg_full_v4_conf_pilot4","32VNZTT0A75CWHBDZOPYFBHYI44R4P","2","0","NOVEMBER","1","DECEMBER","5","1","45204",,,,,"1","2018-08-15 19:19:05","82"
"A3481D53L3VP7Y","cs_wg_full_v4_conf_pilot4","3YMU66OBIN9FJ3QUYKF5AWCVL0FGH4","0","0","MARCH","4","JULY","11","1","17933",,,,,"1","2018-08-15 19:19:06","83"
"A2EJ7U3TZAKROG","cs_wg_full_v4_conf_pilot4","3JRJSWSMQHM25HN4D40F6ZQ9PFIE3E","8","0","APRIL","1","DECEMBER","12","1","4388",,,,,"1","2018-08-15 19:19:06","84"
"A1XB671UQA34Q8","cs_wg_full_v4_conf_pilot4","358UUM7WRZ49F4TW1MN5IN1896UR79","10","0","MAY","4","JULY","7","1","4399",,,,,"1","2018-08-15 19:19:06","85"
"A36ES9KTXHWW1O","cs_wg_full_v4_conf_pilot4","30MVJZJNHMEWVZYC8ECGUS6NUFOJ9L","5","0","JANUARY","7","DECEMBER","5","0","1554",,,,,"1","2018-08-15 19:19:08","86"
"A1KQV9A4YITCSJ","cs_wg_full_v4_conf_pilot4","3VHP9MDGRNLIOVJJ18VMHKF37TACFS","5","0","JANUARY","4","AUGUST","2","0","1650",,,,,"1","2018-08-15 19:19:09","87"
"AA8PZKO9XGCKO","cs_wg_full_v4_conf_pilot4","3ND9UOO81K3D2LZK4AYLORRQW5ELWF","17","0","JUNE","7","NOVEMBER","12","1","3025",,,,,"1","2018-08-15 19:19:11","88"
"AJW3PL5UDH4BP","cs_wg_full_v4_conf_pilot4","3HHRAGRYX86AWAP9OR4L2ON9T9YO99","3","0","FEBRUARY","9","MAY","12","1","8282",,,,,"1","2018-08-15 19:19:12","89"
"A2DHKTD1GSBXR2","cs_wg_full_v4_conf_pilot4","3OHYZ19UGC6O1TZEGXILYJYTZRGOAO","5","0","AUGUST","8","JUNE","2","0","10083",,,,,"1","2018-08-15 19:19:12","90"
"AMJOSPFPF8KLH","cs_wg_full_v4_conf_pilot4","32VNZTT0A75CWHBDZOPYFBHYI44R4P","3","0","AUGUST","4","JANUARY","12","0","5131",,,,,"1","2018-08-15 19:19:12","91"
"A3R21KIGJQ4A51","cs_wg_full_v4_conf_pilot4","3TVRFO09GKGSRL4AEFU7QA5X57KLX8","13","0","AUGUST","5","OCTOBER","6","1","4530",,,,,"1","2018-08-15 19:19:12","92"
"AD86UQ62HUAJN","cs_wg_full_v4_conf_pilot4","33L7PJKHCGZQVXB7FGK6W2YL8BXT8B","0","0","MARCH","10","APRIL","4","0","12613",,,,,"1","2018-08-15 19:19:13","93"
"A2EJ7U3TZAKROG","cs_wg_full_v4_conf_pilot4","3JRJSWSMQHM25HN4D40F6ZQ9PFIE3E","9","0","JULY","4","JANUARY","7","1","5672",,,,,"1","2018-08-15 19:19:14","94"
"A36ES9KTXHWW1O","cs_wg_full_v4_conf_pilot4","30MVJZJNHMEWVZYC8ECGUS6NUFOJ9L","6","0","NOVEMBER","4","DECEMBER","5","1","3317",,,,,"1","2018-08-15 19:19:14","95"
"A1XB671UQA34Q8","cs_wg_full_v4_conf_pilot4","358UUM7WRZ49F4TW1MN5IN1896UR79","11","0","JUNE","8","SEPTEMBER","3","0","5665",,,,,"1","2018-08-15 19:19:14","96"
"A1KQV9A4YITCSJ","cs_wg_full_v4_conf_pilot4","3VHP9MDGRNLIOVJJ18VMHKF37TACFS","6","0","JANUARY","4","JULY","6","1","2705",,,,,"1","2018-08-15 19:19:15","97"
"A3481D53L3VP7Y","cs_wg_full_v4_conf_pilot4","3YMU66OBIN9FJ3QUYKF5AWCVL0FGH4","1","0","JANUARY","10","DECEMBER","6","0","6645",,,,,"1","2018-08-15 19:19:15","98"
"A2XNOJZEAY4WFJ","cs_wg_full_v4_conf_pilot4","3VAR3R6G1P2AI56ZJZY72SSY93GO8K","3","0","JUNE","10","AUGUST","8","0","9470",,,,,"1","2018-08-15 19:19:16","99"
"AA8PZKO9XGCKO","cs_wg_full_v4_conf_pilot4","3ND9UOO81K3D2LZK4AYLORRQW5ELWF","18","0","MARCH","1","NOVEMBER","12","1","3424",,,,,"1","2018-08-15 19:19:17","100"
"A1KQV9A4YITCSJ","cs_wg_full_v4_conf_pilot4","3VHP9MDGRNLIOVJJ18VMHKF37TACFS","7","0","NOVEMBER","5","OCTOBER","9","0","2723",,,,,"1","2018-08-15 19:19:19","101"
"A39T2QQJHCTJO3","cs_wg_full_v4_conf_pilot4","3VD82FOHKQPCU8WC0BEC4EOHZU1OCQ","0","0","SEPTEMBER","9","MAY","7","0","78284",,,,,"1","2018-08-15 19:19:20","102"
"A2EJ7U3TZAKROG","cs_wg_full_v4_conf_pilot4","3JRJSWSMQHM25HN4D40F6ZQ9PFIE3E","10","0","DECEMBER","12","JANUARY","7","0","3697",,,,,"1","2018-08-15 19:19:20","103"
"A3R21KIGJQ4A51","cs_wg_full_v4_conf_pilot4","3TVRFO09GKGSRL4AEFU7QA5X57KLX8","14","0","FEBRUARY","1","MAY","12","1","4293",,,,,"1","2018-08-15 19:19:20","104"
"AMJOSPFPF8KLH","cs_wg_full_v4_conf_pilot4","32VNZTT0A75CWHBDZOPYFBHYI44R4P","4","0","MARCH","6","APRIL","11","0","7787",,,,,"1","2018-08-15 19:19:22","105"
"AA8PZKO9XGCKO","cs_wg_full_v4_conf_pilot4","3ND9UOO81K3D2LZK4AYLORRQW5ELWF","19","0","JUNE","7","MAY","11","1","2326",,,,,"1","2018-08-15 19:19:23","106"
"A1KQV9A4YITCSJ","cs_wg_full_v4_conf_pilot4","3VHP9MDGRNLIOVJJ18VMHKF37TACFS","8","0","JUNE","8","DECEMBER","10","1","1755",,,,,"1","2018-08-15 19:19:24","107"
"A3481D53L3VP7Y","cs_wg_full_v4_conf_pilot4","3YMU66OBIN9FJ3QUYKF5AWCVL0FGH4","2","0","AUGUST","1","JUNE","7","1","5654",,,,,"1","2018-08-15 19:19:24","108"
"AD86UQ62HUAJN","cs_wg_full_v4_conf_pilot4","33L7PJKHCGZQVXB7FGK6W2YL8BXT8B","1","0","NOVEMBER","2","SEPTEMBER","5","1","7288",,,,,"1","2018-08-15 19:19:24","109"
"A2C4Z939OAKJJP","cs_wg_full_v4_conf_pilot4","3P1L2B7AD1Q5XCQIDO7B7XE4T3FOL6","0","0","SEPTEMBER","5","JANUARY","11","1","9286",,,,,"1","2018-08-15 19:19:27","110"
"A1KQV9A4YITCSJ","cs_wg_full_v4_conf_pilot4","3VHP9MDGRNLIOVJJ18VMHKF37TACFS","9","0","JUNE","8","JULY","6","1","1482",,,,,"1","2018-08-15 19:19:27","111"
"A2XNOJZEAY4WFJ","cs_wg_full_v4_conf_pilot4","3VAR3R6G1P2AI56ZJZY72SSY93GO8K","4","0","JULY","11","MAY","3","0","7938",,,,,"1","2018-08-15 19:19:27","112"
"A1VPQJR2V850OM","cs_wg_full_v4_conf_pilot4","36AHBNMV1RDYTE6S6UILQB41Y4CDYQ","2","0","AUGUST","4","DECEMBER","2","0","42705",,,,,"1","2018-08-15 19:19:29","113"
"AA8PZKO9XGCKO","cs_wg_full_v4_conf_pilot4","3ND9UOO81K3D2LZK4AYLORRQW5ELWF","20","0","OCTOBER","5","NOVEMBER","12","1","2210",,,,,"1","2018-08-15 19:19:29","114"
"A1YXOL54W4KZ7M","cs_wg_full_v4_conf_pilot4","3S3AMIZX3U6LQB5NA20WTKCIVGUCDH","0","0","JANUARY","4","NOVEMBER","1","0","29988",,,,,"1","2018-08-15 19:19:29","115"
"AMJOSPFPF8KLH","cs_wg_full_v4_conf_pilot4","32VNZTT0A75CWHBDZOPYFBHYI44R4P","5","0","DECEMBER","5","JULY","8","0","5819",,,,,"1","2018-08-15 19:19:30","116"
"A1XB671UQA34Q8","cs_wg_full_v4_conf_pilot4","358UUM7WRZ49F4TW1MN5IN1896UR79","12","0","NOVEMBER","5","MARCH","11","1","13260",,,,,"1","2018-08-15 19:19:30","117"
"A3481D53L3VP7Y","cs_wg_full_v4_conf_pilot4","3YMU66OBIN9FJ3QUYKF5AWCVL0FGH4","3","0","MAY","12","MARCH","4","0","5562",,,,,"1","2018-08-15 19:19:32","118"
"A3R21KIGJQ4A51","cs_wg_full_v4_conf_pilot4","3TVRFO09GKGSRL4AEFU7QA5X57KLX8","15","0","NOVEMBER","9","OCTOBER","6","0","9122",,,,,"1","2018-08-15 19:19:32","119"
"A2EJ7U3TZAKROG","cs_wg_full_v4_conf_pilot4","3JRJSWSMQHM25HN4D40F6ZQ9PFIE3E","11","0","APRIL","1","NOVEMBER","10","1","9385",,,,,"1","2018-08-15 19:19:33","120"
"A1KQV9A4YITCSJ","cs_wg_full_v4_conf_pilot4","3VHP9MDGRNLIOVJJ18VMHKF37TACFS","10","0","APRIL","11","MARCH","12","1","3482",,,,,"1","2018-08-15 19:19:33","121"
"AJW3PL5UDH4BP","cs_wg_full_v4_conf_pilot4","3HHRAGRYX86AWAP9OR4L2ON9T9YO99","4","0","JANUARY","11","DECEMBER","3","0","19562",,,,,"1","2018-08-15 19:19:33","122"
"A2DHKTD1GSBXR2","cs_wg_full_v4_conf_pilot4","3OHYZ19UGC6O1TZEGXILYJYTZRGOAO","6","0","JULY","7","JANUARY","3","0","20556",,,,,"1","2018-08-15 19:19:35","123"
"A1YXOL54W4KZ7M","cs_wg_full_v4_conf_pilot4","3S3AMIZX3U6LQB5NA20WTKCIVGUCDH","1","0","SEPTEMBER","12","OCTOBER","11","0","1922",,,,,"1","2018-08-15 19:19:37","124"
"AMJOSPFPF8KLH","cs_wg_full_v4_conf_pilot4","32VNZTT0A75CWHBDZOPYFBHYI44R4P","6","0","SEPTEMBER","3","APRIL","11","0","5219",,,,,"1","2018-08-15 19:19:37","125"
"A1XB671UQA34Q8","cs_wg_full_v4_conf_pilot4","358UUM7WRZ49F4TW1MN5IN1896UR79","13","0","MARCH","11","AUGUST","9","0","3406",,,,,"1","2018-08-15 19:19:37","126"
"A3R21KIGJQ4A51","cs_wg_full_v4_conf_pilot4","3TVRFO09GKGSRL4AEFU7QA5X57KLX8","16","0","NOVEMBER","9","FEBRUARY","1","0","3738",,,,,"1","2018-08-15 19:19:38","127"
"A2EJ7U3TZAKROG","cs_wg_full_v4_conf_pilot4","3JRJSWSMQHM25HN4D40F6ZQ9PFIE3E","12","0","OCTOBER","6","DECEMBER","12","1","3901",,,,,"1","2018-08-15 19:19:39","128"
"AA8PZKO9XGCKO","cs_wg_full_v4_conf_pilot4","3ND9UOO81K3D2LZK4AYLORRQW5ELWF","21","0","JANUARY","3","APRIL","6","1","6563",,,,,"1","2018-08-15 19:19:39","129"
"A3481D53L3VP7Y","cs_wg_full_v4_conf_pilot4","3YMU66OBIN9FJ3QUYKF5AWCVL0FGH4","4","0","APRIL","3","AUGUST","1","0","4619",,,,,"1","2018-08-15 19:19:39","130"
"A2XNOJZEAY4WFJ","cs_wg_full_v4_conf_pilot4","3VAR3R6G1P2AI56ZJZY72SSY93GO8K","5","0","JUNE","10","MARCH","1","0","9689",,,,,"1","2018-08-15 19:19:40","131"
"A2C4Z939OAKJJP","cs_wg_full_v4_conf_pilot4","3P1L2B7AD1Q5XCQIDO7B7XE4T3FOL6","1","0","AUGUST","2","FEBRUARY","10","1","8856",,,,,"1","2018-08-15 19:19:41","132"
"A1FYWSPNO7KN1O","cs_wg_full_v4_conf_pilot4","3M68NM076H8QB4FRICIDC91CEVAR6A","0","0","NOVEMBER","6","JUNE","5","0","5782",,,,,"1","2018-08-15 19:19:41","133"
"AMJOSPFPF8KLH","cs_wg_full_v4_conf_pilot4","32VNZTT0A75CWHBDZOPYFBHYI44R4P","7","0","MAY","9","JUNE","2","0","2763",,,,,"1","2018-08-15 19:19:41","134"
"AJW3PL5UDH4BP","cs_wg_full_v4_conf_pilot4","3HHRAGRYX86AWAP9OR4L2ON9T9YO99","5","0","JANUARY","11","MARCH","5","0","6063",,,,,"1","2018-08-15 19:19:42","135"
"AD86UQ62HUAJN","cs_wg_full_v4_conf_pilot4","33L7PJKHCGZQVXB7FGK6W2YL8BXT8B","2","0","MAY","12","JUNE","9","0","11710",,,,,"1","2018-08-15 19:19:42","136"
"A1YXOL54W4KZ7M","cs_wg_full_v4_conf_pilot4","3S3AMIZX3U6LQB5NA20WTKCIVGUCDH","2","0","JUNE","3","NOVEMBER","1","1","3388",,,,,"1","2018-08-15 19:19:43","137"
"A1KQV9A4YITCSJ","cs_wg_full_v4_conf_pilot4","3VHP9MDGRNLIOVJJ18VMHKF37TACFS","11","0","MAY","3","SEPTEMBER","1","0","6177",,,,,"1","2018-08-15 19:19:43","138"
"A1VPQJR2V850OM","cs_wg_full_v4_conf_pilot4","36AHBNMV1RDYTE6S6UILQB41Y4CDYQ","3","0","MARCH","3","JUNE","10","1","11972",,,,,"1","2018-08-15 19:19:44","139"
"AA8PZKO9XGCKO","cs_wg_full_v4_conf_pilot4","3ND9UOO81K3D2LZK4AYLORRQW5ELWF","22","0","JULY","9","MAY","11","1","3667",,,,,"1","2018-08-15 19:19:45","140"
"A3R21KIGJQ4A51","cs_wg_full_v4_conf_pilot4","3TVRFO09GKGSRL4AEFU7QA5X57KLX8","17","0","JUNE","4","APRIL","2","0","4473",,,,,"1","2018-08-15 19:19:46","141"
"A3481D53L3VP7Y","cs_wg_full_v4_conf_pilot4","3YMU66OBIN9FJ3QUYKF5AWCVL0FGH4","5","0","OCTOBER","2","NOVEMBER","5","1","4107",,,,,"1","2018-08-15 19:19:46","142"
"A1YXOL54W4KZ7M","cs_wg_full_v4_conf_pilot4","3S3AMIZX3U6LQB5NA20WTKCIVGUCDH","3","0","SEPTEMBER","12","MAY","5","0","701",,,,,"1","2018-08-15 19:19:46","143"
"A2EJ7U3TZAKROG","cs_wg_full_v4_conf_pilot4","3JRJSWSMQHM25HN4D40F6ZQ9PFIE3E","13","0","DECEMBER","12","APRIL","1","0","6233",,,,,"1","2018-08-15 19:19:47","144"
"A39T2QQJHCTJO3","cs_wg_full_v4_conf_pilot4","3VD82FOHKQPCU8WC0BEC4EOHZU1OCQ","1","0","JANUARY","5","NOVEMBER","4","0","22489",,,,,"1","2018-08-15 19:19:48","145"
"A2XNOJZEAY4WFJ","cs_wg_full_v4_conf_pilot4","3VAR3R6G1P2AI56ZJZY72SSY93GO8K","6","0","AUGUST","8","MARCH","1","0","6779",,,,,"1","2018-08-15 19:19:49","146"
"A1KQV9A4YITCSJ","cs_wg_full_v4_conf_pilot4","3VHP9MDGRNLIOVJJ18VMHKF37TACFS","12","0","JULY","6","JANUARY","4","0","2509",,,,,"1","2018-08-15 19:19:49","147"
"AA8PZKO9XGCKO","cs_wg_full_v4_conf_pilot4","3ND9UOO81K3D2LZK4AYLORRQW5ELWF","23","0","NOVEMBER","12","OCTOBER","5","0","1938",,,,,"1","2018-08-15 19:19:49","148"
"A1YXOL54W4KZ7M","cs_wg_full_v4_conf_pilot4","3S3AMIZX3U6LQB5NA20WTKCIVGUCDH","4","0","OCTOBER","11","DECEMBER","2","1","1166",,,,,"1","2018-08-15 19:19:50","149"
"A1FYWSPNO7KN1O","cs_wg_full_v4_conf_pilot4","3M68NM076H8QB4FRICIDC91CEVAR6A","1","0","JANUARY","7","MARCH","11","1","6009",,,,,"1","2018-08-15 19:19:50","150"
"A2C4Z939OAKJJP","cs_wg_full_v4_conf_pilot4","3P1L2B7AD1Q5XCQIDO7B7XE4T3FOL6","2","0","MAY","9","JANUARY","11","1","5158",,,,,"1","2018-08-15 19:19:51","151"
"A3R21KIGJQ4A51","cs_wg_full_v4_conf_pilot4","3TVRFO09GKGSRL4AEFU7QA5X57KLX8","18","0","JUNE","4","MAY","12","1","3138",,,,,"1","2018-08-15 19:19:51","152"
"A3481D53L3VP7Y","cs_wg_full_v4_conf_pilot4","3YMU66OBIN9FJ3QUYKF5AWCVL0FGH4","6","0","SEPTEMBER","9","OCTOBER","2","0","3353",,,,,"1","2018-08-15 19:19:52","153"
"AMJOSPFPF8KLH","cs_wg_full_v4_conf_pilot4","32VNZTT0A75CWHBDZOPYFBHYI44R4P","8","0","JANUARY","12","JULY","8","1","7501",,,,,"1","2018-08-15 19:19:52","154"
"A2DHKTD1GSBXR2","cs_wg_full_v4_conf_pilot4","3OHYZ19UGC6O1TZEGXILYJYTZRGOAO","7","0","MAY","11","APRIL","10","0","15007",,,,,"1","2018-08-15 19:19:52","155"
"AD86UQ62HUAJN","cs_wg_full_v4_conf_pilot4","33L7PJKHCGZQVXB7FGK6W2YL8BXT8B","3","0","FEBRUARY","1","SEPTEMBER","5","1","5536",,,,,"1","2018-08-15 19:19:52","156"
"AJW3PL5UDH4BP","cs_wg_full_v4_conf_pilot4","3HHRAGRYX86AWAP9OR4L2ON9T9YO99","6","0","FEBRUARY","9","JULY","2","0","8549",,,,,"1","2018-08-15 19:19:52","157"
"A1KQV9A4YITCSJ","cs_wg_full_v4_conf_pilot4","3VHP9MDGRNLIOVJJ18VMHKF37TACFS","13","0","FEBRUARY","7","OCTOBER","9","0","1357",,,,,"1","2018-08-15 19:19:52","158"
"A2EJ7U3TZAKROG","cs_wg_full_v4_conf_pilot4","3JRJSWSMQHM25HN4D40F6ZQ9PFIE3E","14","0","NOVEMBER","10","MARCH","5","0","3463",,,,,"1","2018-08-15 19:19:53","159"
"A1XB671UQA34Q8","cs_wg_full_v4_conf_pilot4","358UUM7WRZ49F4TW1MN5IN1896UR79","14","0","AUGUST","9","JUNE","8","0","14410",,,,,"1","2018-08-15 19:19:54","160"
"AA8PZKO9XGCKO","cs_wg_full_v4_conf_pilot4","3ND9UOO81K3D2LZK4AYLORRQW5ELWF","24","0","MAY","11","OCTOBER","5","0","2441",,,,,"1","2018-08-15 19:19:55","161"
"A1KQV9A4YITCSJ","cs_wg_full_v4_conf_pilot4","3VHP9MDGRNLIOVJJ18VMHKF37TACFS","14","0","APRIL","11","OCTOBER","9","1","1343",,,,,"1","2018-08-15 19:19:56","162"
"A3R21KIGJQ4A51","cs_wg_full_v4_conf_pilot4","3TVRFO09GKGSRL4AEFU7QA5X57KLX8","19","0","DECEMBER","11","APRIL","2","0","2787",,,,,"1","2018-08-15 19:19:56","163"
"A1FYWSPNO7KN1O","cs_wg_full_v4_conf_pilot4","3M68NM076H8QB4FRICIDC91CEVAR6A","2","0","APRIL","1","JUNE","5","0","2733",,,,,"1","2018-08-15 19:19:56","164"
"A1VPQJR2V850OM","cs_wg_full_v4_conf_pilot4","36AHBNMV1RDYTE6S6UILQB41Y4CDYQ","4","0","JULY","7","OCTOBER","9","1","10060",,,,,"1","2018-08-15 19:19:57","165"
"A2DHKTD1GSBXR2","cs_wg_full_v4_conf_pilot4","3OHYZ19UGC6O1TZEGXILYJYTZRGOAO","8","0","AUGUST","8","DECEMBER","6","0","2811",,,,,"1","2018-08-15 19:19:57","166"
"A2XNOJZEAY4WFJ","cs_wg_full_v4_conf_pilot4","3VAR3R6G1P2AI56ZJZY72SSY93GO8K","7","0","JUNE","10","OCTOBER","7","0","6817",,,,,"1","2018-08-15 19:19:58","167"
"A2C4Z939OAKJJP","cs_wg_full_v4_conf_pilot4","3P1L2B7AD1Q5XCQIDO7B7XE4T3FOL6","3","0","JUNE","3","OCTOBER","6","1","4389",,,,,"1","2018-08-15 19:19:58","168"
"A3481D53L3VP7Y","cs_wg_full_v4_conf_pilot4","3YMU66OBIN9FJ3QUYKF5AWCVL0FGH4","7","0","AUGUST","1","JANUARY","10","1","3745",,,,,"1","2018-08-15 19:19:58","169"
"A2EJ7U3TZAKROG","cs_wg_full_v4_conf_pilot4","3JRJSWSMQHM25HN4D40F6ZQ9PFIE3E","15","0","NOVEMBER","10","JUNE","9","0","3266",,,,,"1","2018-08-15 19:19:59","170"
"AMJOSPFPF8KLH","cs_wg_full_v4_conf_pilot4","32VNZTT0A75CWHBDZOPYFBHYI44R4P","9","0","APRIL","11","MAY","9","1","6342",,,,,"1","2018-08-15 19:20:00","171"
"A1KQV9A4YITCSJ","cs_wg_full_v4_conf_pilot4","3VHP9MDGRNLIOVJJ18VMHKF37TACFS","15","0","MAY","3","JANUARY","4","1","1998",,,,,"1","2018-08-15 19:20:00","172"
"A39T2QQJHCTJO3","cs_wg_full_v4_conf_pilot4","3VD82FOHKQPCU8WC0BEC4EOHZU1OCQ","2","0","JULY","8","SEPTEMBER","9","0","8057",,,,,"1","2018-08-15 19:20:00","173"
"AD86UQ62HUAJN","cs_wg_full_v4_conf_pilot4","33L7PJKHCGZQVXB7FGK6W2YL8BXT8B","4","0","JULY","7","AUGUST","11","1","2947",,,,,"1","2018-08-15 19:20:00","174"
"A3R21KIGJQ4A51","cs_wg_full_v4_conf_pilot4","3TVRFO09GKGSRL4AEFU7QA5X57KLX8","20","0","DECEMBER","11","NOVEMBER","9","0","2312",,,,,"1","2018-08-15 19:20:01","175"
"A1FYWSPNO7KN1O","cs_wg_full_v4_conf_pilot4","3M68NM076H8QB4FRICIDC91CEVAR6A","3","0","APRIL","1","DECEMBER","9","1","1465",,,,,"1","2018-08-15 19:20:01","176"
"A1XB671UQA34Q8","cs_wg_full_v4_conf_pilot4","358UUM7WRZ49F4TW1MN5IN1896UR79","15","0","MARCH","11","MAY","4","0","5828",,,,,"1","2018-08-15 19:20:02","177"
"AA8PZKO9XGCKO","cs_wg_full_v4_conf_pilot4","3ND9UOO81K3D2LZK4AYLORRQW5ELWF","25","0","AUGUST","10","JANUARY","3","0","4683",,,,,"1","2018-08-15 19:20:02","178"
"A3481D53L3VP7Y","cs_wg_full_v4_conf_pilot4","3YMU66OBIN9FJ3QUYKF5AWCVL0FGH4","8","0","MAY","12","APRIL","3","0","2085",,,,,"1","2018-08-15 19:20:02","179"
"AJW3PL5UDH4BP","cs_wg_full_v4_conf_pilot4","3HHRAGRYX86AWAP9OR4L2ON9T9YO99","7","0","JANUARY","11","JUNE","1","0","9534",,,,,"1","2018-08-15 19:20:03","180"
"A1KQV9A4YITCSJ","cs_wg_full_v4_conf_pilot4","3VHP9MDGRNLIOVJJ18VMHKF37TACFS","16","0","AUGUST","2","OCTOBER","9","0","1475",,,,,"1","2018-08-15 19:20:04","181"
"A3R21KIGJQ4A51","cs_wg_full_v4_conf_pilot4","3TVRFO09GKGSRL4AEFU7QA5X57KLX8","21","0","DECEMBER","11","JUNE","4","0","2382",,,,,"1","2018-08-15 19:20:05","182"
"AMJOSPFPF8KLH","cs_wg_full_v4_conf_pilot4","32VNZTT0A75CWHBDZOPYFBHYI44R4P","10","0","MAY","9","MARCH","6","0","2674",,,,,"1","2018-08-15 19:20:05","183"
"A2EJ7U3TZAKROG","cs_wg_full_v4_conf_pilot4","3JRJSWSMQHM25HN4D40F6ZQ9PFIE3E","16","0","APRIL","1","JANUARY","7","1","4681",,,,,"1","2018-08-15 19:20:05","184"
"A1VPQJR2V850OM","cs_wg_full_v4_conf_pilot4","36AHBNMV1RDYTE6S6UILQB41Y4CDYQ","5","0","AUGUST","4","OCTOBER","9","1","6219",,,,,"1","2018-08-15 19:20:06","185"
"A1FYWSPNO7KN1O","cs_wg_full_v4_conf_pilot4","3M68NM076H8QB4FRICIDC91CEVAR6A","4","0","AUGUST","10","OCTOBER","4","0","3285",,,,,"1","2018-08-15 19:20:06","186"
"AD86UQ62HUAJN","cs_wg_full_v4_conf_pilot4","33L7PJKHCGZQVXB7FGK6W2YL8BXT8B","5","0","NOVEMBER","2","AUGUST","11","1","3190",,,,,"1","2018-08-15 19:20:07","187"
"A2C4Z939OAKJJP","cs_wg_full_v4_conf_pilot4","3P1L2B7AD1Q5XCQIDO7B7XE4T3FOL6","4","0","OCTOBER","6","AUGUST","2","0","6242",,,,,"1","2018-08-15 19:20:08","188"
"A2XNOJZEAY4WFJ","cs_wg_full_v4_conf_pilot4","3VAR3R6G1P2AI56ZJZY72SSY93GO8K","8","0","OCTOBER","7","JANUARY","5","0","7340",,,,,"1","2018-08-15 19:20:08","189"
"A39T2QQJHCTJO3","cs_wg_full_v4_conf_pilot4","3VD82FOHKQPCU8WC0BEC4EOHZU1OCQ","3","0","APRIL","1","SEPTEMBER","9","1","5723",,,,,"1","2018-08-15 19:20:09","190"
"A3R21KIGJQ4A51","cs_wg_full_v4_conf_pilot4","3TVRFO09GKGSRL4AEFU7QA5X57KLX8","22","0","DECEMBER","11","AUGUST","5","0","1940",,,,,"1","2018-08-15 19:20:09","191"
"A1KQV9A4YITCSJ","cs_wg_full_v4_conf_pilot4","3VHP9MDGRNLIOVJJ18VMHKF37TACFS","17","0","DECEMBER","10","JULY","6","1","1186",,,,,"1","2018-08-15 19:20:09","192"
"A1YXOL54W4KZ7M","cs_wg_full_v4_conf_pilot4","3S3AMIZX3U6LQB5NA20WTKCIVGUCDH","5","0","JULY","9","NOVEMBER","1","1","10706",,,,,"1","2018-08-15 19:20:09","193"
"AMJOSPFPF8KLH","cs_wg_full_v4_conf_pilot4","32VNZTT0A75CWHBDZOPYFBHYI44R4P","11","0","OCTOBER","10","AUGUST","4","0","2349",,,,,"1","2018-08-15 19:20:09","194"
"A1XB671UQA34Q8","cs_wg_full_v4_conf_pilot4","358UUM7WRZ49F4TW1MN5IN1896UR79","16","0","MARCH","11","DECEMBER","6","0","5815",,,,,"1","2018-08-15 19:20:10","195"
"AA8PZKO9XGCKO","cs_wg_full_v4_conf_pilot4","3ND9UOO81K3D2LZK4AYLORRQW5ELWF","26","0","SEPTEMBER","4","AUGUST","10","1","5577",,,,,"1","2018-08-15 19:20:10","196"
"A3481D53L3VP7Y","cs_wg_full_v4_conf_pilot4","3YMU66OBIN9FJ3QUYKF5AWCVL0FGH4","9","0","MARCH","4","DECEMBER","6","1","5784",,,,,"1","2018-08-15 19:20:11","197"
"A2EJ7U3TZAKROG","cs_wg_full_v4_conf_pilot4","3JRJSWSMQHM25HN4D40F6ZQ9PFIE3E","17","0","OCTOBER","6","MARCH","5","0","4283",,,,,"1","2018-08-15 19:20:11","198"
"A1YXOL54W4KZ7M","cs_wg_full_v4_conf_pilot4","3S3AMIZX3U6LQB5NA20WTKCIVGUCDH","6","0","JULY","9","DECEMBER","2","0","454",,,,,"1","2018-08-15 19:20:12","199"
"AJW3PL5UDH4BP","cs_wg_full_v4_conf_pilot4","3HHRAGRYX86AWAP9OR4L2ON9T9YO99","8","0","JUNE","1","JULY","2","1","7219",,,,,"1","2018-08-15 19:20:12","200"
"A2DHKTD1GSBXR2","cs_wg_full_v4_conf_pilot4","3OHYZ19UGC6O1TZEGXILYJYTZRGOAO","9","0","OCTOBER","4","MAY","11","1","13177",,,,,"1","2018-08-15 19:20:12","201"
"A1KQV9A4YITCSJ","cs_wg_full_v4_conf_pilot4","3VHP9MDGRNLIOVJJ18VMHKF37TACFS","18","0","OCTOBER","9","AUGUST","2","0","569",,,,,"1","2018-08-15 19:20:13","202"
"A1FYWSPNO7KN1O","cs_wg_full_v4_conf_pilot4","3M68NM076H8QB4FRICIDC91CEVAR6A","5","0","MARCH","11","OCTOBER","4","0","4795",,,,,"1","2018-08-15 19:20:13","203"
"AMJOSPFPF8KLH","cs_wg_full_v4_conf_pilot4","32VNZTT0A75CWHBDZOPYFBHYI44R4P","12","0","JANUARY","12","DECEMBER","5","0","2324",,,,,"1","2018-08-15 19:20:14","204"
"A39T2QQJHCTJO3","cs_wg_full_v4_conf_pilot4","3VD82FOHKQPCU8WC0BEC4EOHZU1OCQ","4","0","DECEMBER","11","MARCH","3","0","3515",,,,,"1","2018-08-15 19:20:15","205"
"A3R21KIGJQ4A51","cs_wg_full_v4_conf_pilot4","3TVRFO09GKGSRL4AEFU7QA5X57KLX8","23","0","MAY","12","APRIL","2","0","4337",,,,,"1","2018-08-15 19:20:15","206"
"A1YXOL54W4KZ7M","cs_wg_full_v4_conf_pilot4","3S3AMIZX3U6LQB5NA20WTKCIVGUCDH","7","0","JULY","9","AUGUST","8","0","434",,,,,"1","2018-08-15 19:20:16","207"
"AA8PZKO9XGCKO","cs_wg_full_v4_conf_pilot4","3ND9UOO81K3D2LZK4AYLORRQW5ELWF","27","0","JULY","9","OCTOBER","5","0","3322",,,,,"1","2018-08-15 19:20:16","208"
"AD86UQ62HUAJN","cs_wg_full_v4_conf_pilot4","33L7PJKHCGZQVXB7FGK6W2YL8BXT8B","6","0","APRIL","4","JUNE","9","1","5241",,,,,"1","2018-08-15 19:20:16","209"
"A1XB671UQA34Q8","cs_wg_full_v4_conf_pilot4","358UUM7WRZ49F4TW1MN5IN1896UR79","17","0","JULY","7","JANUARY","12","1","4556",,,,,"1","2018-08-15 19:20:16","210"
"A2XNOJZEAY4WFJ","cs_wg_full_v4_conf_pilot4","3VAR3R6G1P2AI56ZJZY72SSY93GO8K","9","0","JANUARY","5","OCTOBER","7","1","5856",,,,,"1","2018-08-15 19:20:16","211"
"A3481D53L3VP7Y","cs_wg_full_v4_conf_pilot4","3YMU66OBIN9FJ3QUYKF5AWCVL0FGH4","10","0","SEPTEMBER","9","APRIL","3","0","3235",,,,,"1","2018-08-15 19:20:16","212"
"AJW3PL5UDH4BP","cs_wg_full_v4_conf_pilot4","3HHRAGRYX86AWAP9OR4L2ON9T9YO99","9","0","JULY","2","JUNE","1","0","2995",,,,,"1","2018-08-15 19:20:17","213"
"A1KQV9A4YITCSJ","cs_wg_full_v4_conf_pilot4","3VHP9MDGRNLIOVJJ18VMHKF37TACFS","19","0","APRIL","11","DECEMBER","10","1","2433",,,,,"1","2018-08-15 19:20:18","214"
"AMJOSPFPF8KLH","cs_wg_full_v4_conf_pilot4","32VNZTT0A75CWHBDZOPYFBHYI44R4P","13","0","JANUARY","12","JUNE","2","1","3458",,,,,"1","2018-08-15 19:20:19","215"
"A1FYWSPNO7KN1O","cs_wg_full_v4_conf_pilot4","3M68NM076H8QB4FRICIDC91CEVAR6A","6","0","OCTOBER","4","MARCH","11","1","3459",,,,,"1","2018-08-15 19:20:19","216"
"A2C4Z939OAKJJP","cs_wg_full_v4_conf_pilot4","3P1L2B7AD1Q5XCQIDO7B7XE4T3FOL6","5","0","DECEMBER","4","MARCH","1","0","9009",,,,,"1","2018-08-15 19:20:19","217"
"A2EJ7U3TZAKROG","cs_wg_full_v4_conf_pilot4","3JRJSWSMQHM25HN4D40F6ZQ9PFIE3E","18","0","AUGUST","11","DECEMBER","12","1","5423",,,,,"1","2018-08-15 19:20:19","218"
"A1XB671UQA34Q8","cs_wg_full_v4_conf_pilot4","358UUM7WRZ49F4TW1MN5IN1896UR79","18","0","JULY","7","OCTOBER","10","1","2254",,,,,"1","2018-08-15 19:20:20","219"
"A1YXOL54W4KZ7M","cs_wg_full_v4_conf_pilot4","3S3AMIZX3U6LQB5NA20WTKCIVGUCDH","8","0","JANUARY","4","AUGUST","8","1","2806",,,,,"1","2018-08-15 19:20:21","220"
"A1KQV9A4YITCSJ","cs_wg_full_v4_conf_pilot4","3VHP9MDGRNLIOVJJ18VMHKF37TACFS","20","0","SEPTEMBER","1","APRIL","11","0","1479",,,,,"1","2018-08-15 19:20:21","221"
"A3R21KIGJQ4A51","cs_wg_full_v4_conf_pilot4","3TVRFO09GKGSRL4AEFU7QA5X57KLX8","24","0","APRIL","2","SEPTEMBER","7","1","4163",,,,,"1","2018-08-15 19:20:22","222"
"A2DHKTD1GSBXR2","cs_wg_full_v4_conf_pilot4","3OHYZ19UGC6O1TZEGXILYJYTZRGOAO","10","0","JULY","7","FEBRUARY","12","1","7459",,,,,"1","2018-08-15 19:20:22","223"
"A39T2QQJHCTJO3","cs_wg_full_v4_conf_pilot4","3VD82FOHKQPCU8WC0BEC4EOHZU1OCQ","5","0","FEBRUARY","2","JULY","8","1","4931",,,,,"1","2018-08-15 19:20:23","224"
"A3481D53L3VP7Y","cs_wg_full_v4_conf_pilot4","3YMU66OBIN9FJ3QUYKF5AWCVL0FGH4","11","0","AUGUST","1","NOVEMBER","5","1","3371",,,,,"1","2018-08-15 19:20:23","225"
"AMJOSPFPF8KLH","cs_wg_full_v4_conf_pilot4","32VNZTT0A75CWHBDZOPYFBHYI44R4P","14","0","AUGUST","4","FEBRUARY","7","0","1506",,,,,"1","2018-08-15 19:20:23","226"
"AA8PZKO9XGCKO","cs_wg_full_v4_conf_pilot4","3ND9UOO81K3D2LZK4AYLORRQW5ELWF","28","0","JUNE","7","JANUARY","3","0","4929",,,,,"1","2018-08-15 19:20:23","227"
"A1FYWSPNO7KN1O","cs_wg_full_v4_conf_pilot4","3M68NM076H8QB4FRICIDC91CEVAR6A","7","0","JUNE","5","FEBRUARY","2","0","3133",,,,,"1","2018-08-15 19:20:24","228"
"AD86UQ62HUAJN","cs_wg_full_v4_conf_pilot4","33L7PJKHCGZQVXB7FGK6W2YL8BXT8B","7","0","AUGUST","11","SEPTEMBER","5","0","5323",,,,,"1","2018-08-15 19:20:25","229"
"A2XNOJZEAY4WFJ","cs_wg_full_v4_conf_pilot4","3VAR3R6G1P2AI56ZJZY72SSY93GO8K","10","0","NOVEMBER","2","AUGUST","8","1","6487",,,,,"1","2018-08-15 19:20:25","230"
"A1YXOL54W4KZ7M","cs_wg_full_v4_conf_pilot4","3S3AMIZX3U6LQB5NA20WTKCIVGUCDH","9","0","OCTOBER","11","FEBRUARY","7","0","920",,,,,"1","2018-08-15 19:20:25","231"
"A1KQV9A4YITCSJ","cs_wg_full_v4_conf_pilot4","3VHP9MDGRNLIOVJJ18VMHKF37TACFS","21","0","SEPTEMBER","1","AUGUST","2","1","1681",,,,,"1","2018-08-15 19:20:25","232"
"AMJOSPFPF8KLH","cs_wg_full_v4_conf_pilot4","32VNZTT0A75CWHBDZOPYFBHYI44R4P","15","0","SEPTEMBER","3","NOVEMBER","1","0","516",,,,,"1","2018-08-15 19:20:26","233"
"A2EJ7U3TZAKROG","cs_wg_full_v4_conf_pilot4","3JRJSWSMQHM25HN4D40F6ZQ9PFIE3E","19","0","JULY","4","NOVEMBER","10","1","3868",,,,,"1","2018-08-15 19:20:26","234"
"A1XB671UQA34Q8","cs_wg_full_v4_conf_pilot4","358UUM7WRZ49F4TW1MN5IN1896UR79","19","0","FEBRUARY","1","APRIL","2","1","2885",,,,,"1","2018-08-15 19:20:27","235"
"A1VPQJR2V850OM","cs_wg_full_v4_conf_pilot4","36AHBNMV1RDYTE6S6UILQB41Y4CDYQ","6","0","MARCH","3","MAY","5","1","18421",,,,,"1","2018-08-15 19:20:27","236"
"A3481D53L3VP7Y","cs_wg_full_v4_conf_pilot4","3YMU66OBIN9FJ3QUYKF5AWCVL0FGH4","12","0","JANUARY","10","SEPTEMBER","9","0","3182",,,,,"1","2018-08-15 19:20:28","237"
"A3R21KIGJQ4A51","cs_wg_full_v4_conf_pilot4","3TVRFO09GKGSRL4AEFU7QA5X57KLX8","25","0","AUGUST","5","FEBRUARY","1","0","3810",,,,,"1","2018-08-15 19:20:28","238"
"A1YXOL54W4KZ7M","cs_wg_full_v4_conf_pilot4","3S3AMIZX3U6LQB5NA20WTKCIVGUCDH","10","0","OCTOBER","11","NOVEMBER","1","1","652",,,,,"1","2018-08-15 19:20:28","239"
"A1FYWSPNO7KN1O","cs_wg_full_v4_conf_pilot4","3M68NM076H8QB4FRICIDC91CEVAR6A","8","0","AUGUST","10","APRIL","1","0","2389",,,,,"1","2018-08-15 19:20:28","240"
"A2C4Z939OAKJJP","cs_wg_full_v4_conf_pilot4","3P1L2B7AD1Q5XCQIDO7B7XE4T3FOL6","6","0","JANUARY","11","APRIL","12","1","6700",,,,,"1","2018-08-15 19:20:29","241"
"AMJOSPFPF8KLH","cs_wg_full_v4_conf_pilot4","32VNZTT0A75CWHBDZOPYFBHYI44R4P","16","0","JUNE","2","MARCH","6","0","754",,,,,"1","2018-08-15 19:20:29","242"
"A2DHKTD1GSBXR2","cs_wg_full_v4_conf_pilot4","3OHYZ19UGC6O1TZEGXILYJYTZRGOAO","11","0","JULY","7","OCTOBER","4","0","4887",,,,,"1","2018-08-15 19:20:29","243"
"A1KQV9A4YITCSJ","cs_wg_full_v4_conf_pilot4","3VHP9MDGRNLIOVJJ18VMHKF37TACFS","22","0","AUGUST","2","MARCH","12","1","1331",,,,,"1","2018-08-15 19:20:29","244"
"A39T2QQJHCTJO3","cs_wg_full_v4_conf_pilot4","3VD82FOHKQPCU8WC0BEC4EOHZU1OCQ","6","0","MAY","7","JULY","8","1","3970",,,,,"1","2018-08-15 19:20:30","245"
"A1YXOL54W4KZ7M","cs_wg_full_v4_conf_pilot4","3S3AMIZX3U6LQB5NA20WTKCIVGUCDH","11","0","JULY","9","APRIL","10","0","1020",,,,,"1","2018-08-15 19:20:31","246"
"A1XB671UQA34Q8","cs_wg_full_v4_conf_pilot4","358UUM7WRZ49F4TW1MN5IN1896UR79","20","0","DECEMBER","6","OCTOBER","10","1","2637",,,,,"1","2018-08-15 19:20:32","247"
"AA8PZKO9XGCKO","cs_wg_full_v4_conf_pilot4","3ND9UOO81K3D2LZK4AYLORRQW5ELWF","29","0","OCTOBER","5","DECEMBER","8","1","5743",,,,,"1","2018-08-15 19:20:32","248"
"AMJOSPFPF8KLH","cs_wg_full_v4_conf_pilot4","32VNZTT0A75CWHBDZOPYFBHYI44R4P","17","0","FEBRUARY","7","MARCH","6","0","1052",,,,,"1","2018-08-15 19:20:32","249"
"AJW3PL5UDH4BP","cs_wg_full_v4_conf_pilot4","3HHRAGRYX86AWAP9OR4L2ON9T9YO99","10","0","SEPTEMBER","10","OCTOBER","4","0","12925",,,,,"1","2018-08-15 19:20:32","250"
"A2EJ7U3TZAKROG","cs_wg_full_v4_conf_pilot4","3JRJSWSMQHM25HN4D40F6ZQ9PFIE3E","20","0","OCTOBER","6","SEPTEMBER","8","1","4477",,,,,"1","2018-08-15 19:20:33","251"
"A1FYWSPNO7KN1O","cs_wg_full_v4_conf_pilot4","3M68NM076H8QB4FRICIDC91CEVAR6A","9","0","OCTOBER","4","JUNE","5","1","2575",,,,,"1","2018-08-15 19:20:33","252"
"A2DHKTD1GSBXR2","cs_wg_full_v4_conf_pilot4","3OHYZ19UGC6O1TZEGXILYJYTZRGOAO","12","0","OCTOBER","4","JULY","7","1","2940",,,,,"1","2018-08-15 19:20:34","253"
"A1YXOL54W4KZ7M","cs_wg_full_v4_conf_pilot4","3S3AMIZX3U6LQB5NA20WTKCIVGUCDH","12","0","JANUARY","4","MAY","5","0","734",,,,,"1","2018-08-15 19:20:34","254"
"A2XNOJZEAY4WFJ","cs_wg_full_v4_conf_pilot4","3VAR3R6G1P2AI56ZJZY72SSY93GO8K","11","0","NOVEMBER","2","SEPTEMBER","12","1","6767",,,,,"1","2018-08-15 19:20:34","255"
"A3R21KIGJQ4A51","cs_wg_full_v4_conf_pilot4","3TVRFO09GKGSRL4AEFU7QA5X57KLX8","26","0","FEBRUARY","1","SEPTEMBER","7","1","4321",,,,,"1","2018-08-15 19:20:34","256"
"A3481D53L3VP7Y","cs_wg_full_v4_conf_pilot4","3YMU66OBIN9FJ3QUYKF5AWCVL0FGH4","13","0","AUGUST","1","FEBRUARY","8","1","4443",,,,,"1","2018-08-15 19:20:35","257"
"AD86UQ62HUAJN","cs_wg_full_v4_conf_pilot4","33L7PJKHCGZQVXB7FGK6W2YL8BXT8B","8","0","JANUARY","3","APRIL","4","1","7721",,,,,"1","2018-08-15 19:20:35","258"
"A1YXOL54W4KZ7M","cs_wg_full_v4_conf_pilot4","3S3AMIZX3U6LQB5NA20WTKCIVGUCDH","13","0","JUNE","3","AUGUST","8","1","245",,,,,"1","2018-08-15 19:20:36","259"
"A1XB671UQA34Q8","cs_wg_full_v4_conf_pilot4","358UUM7WRZ49F4TW1MN5IN1896UR79","21","0","SEPTEMBER","3","NOVEMBER","5","1","2654",,,,,"1","2018-08-15 19:20:36","260"
"A2EJ7U3TZAKROG","cs_wg_full_v4_conf_pilot4","3JRJSWSMQHM25HN4D40F6ZQ9PFIE3E","21","0","SEPTEMBER","8","DECEMBER","12","1","2068",,,,,"1","2018-08-15 19:20:37","261"
"A39T2QQJHCTJO3","cs_wg_full_v4_conf_pilot4","3VD82FOHKQPCU8WC0BEC4EOHZU1OCQ","7","0","NOVEMBER","4","MARCH","3","0","4099",,,,,"1","2018-08-15 19:20:37","262"
"A1YXOL54W4KZ7M","cs_wg_full_v4_conf_pilot4","3S3AMIZX3U6LQB5NA20WTKCIVGUCDH","14","0","DECEMBER","2","JULY","9","0","483",,,,,"1","2018-08-15 19:20:38","263"
"A1FYWSPNO7KN1O","cs_wg_full_v4_conf_pilot4","3M68NM076H8QB4FRICIDC91CEVAR6A","10","0","MARCH","11","JANUARY","7","0","3148",,,,,"1","2018-08-15 19:20:39","264"
"AMJOSPFPF8KLH","cs_wg_full_v4_conf_pilot4","32VNZTT0A75CWHBDZOPYFBHYI44R4P","18","0","FEBRUARY","7","OCTOBER","10","0","2269",,,,,"1","2018-08-15 19:20:39","265"
"A3R21KIGJQ4A51","cs_wg_full_v4_conf_pilot4","3TVRFO09GKGSRL4AEFU7QA5X57KLX8","27","0","NOVEMBER","9","JANUARY","10","1","2795",,,,,"1","2018-08-15 19:20:39","266"
"A1KQV9A4YITCSJ","cs_wg_full_v4_conf_pilot4","3VHP9MDGRNLIOVJJ18VMHKF37TACFS","23","0","OCTOBER","9","DECEMBER","10","0","4931",,,,,"1","2018-08-15 19:20:40","267"
"A1YXOL54W4KZ7M","cs_wg_full_v4_conf_pilot4","3S3AMIZX3U6LQB5NA20WTKCIVGUCDH","15","0","MAY","5","SEPTEMBER","12","1","292",,,,,"1","2018-08-15 19:20:40","268"
"A3481D53L3VP7Y","cs_wg_full_v4_conf_pilot4","3YMU66OBIN9FJ3QUYKF5AWCVL0FGH4","14","0","MAY","12","SEPTEMBER","9","0","3178",,,,,"1","2018-08-15 19:20:40","269"
"AJW3PL5UDH4BP","cs_wg_full_v4_conf_pilot4","3HHRAGRYX86AWAP9OR4L2ON9T9YO99","11","0","FEBRUARY","9","SEPTEMBER","10","1","7140",,,,,"1","2018-08-15 19:20:41","270"
"A1VPQJR2V850OM","cs_wg_full_v4_conf_pilot4","36AHBNMV1RDYTE6S6UILQB41Y4CDYQ","7","0","SEPTEMBER","6","FEBRUARY","1","0","12183",,,,,"1","2018-08-15 19:20:42","271"
"A2EJ7U3TZAKROG","cs_wg_full_v4_conf_pilot4","3JRJSWSMQHM25HN4D40F6ZQ9PFIE3E","22","0","APRIL","1","JUNE","9","1","2851",,,,,"1","2018-08-15 19:20:42","272"
"A3QE6QMELJEI9J","cs_wg_full_v4_conf_pilot4","3OONKJ5DKCKTK346MBIHTUIZH91OBJ","0","0","MARCH","7","JULY","1","0","36301",,,,,"0","2018-08-15 19:20:42","273"
"AD86UQ62HUAJN","cs_wg_full_v4_conf_pilot4","33L7PJKHCGZQVXB7FGK6W2YL8BXT8B","9","0","OCTOBER","8","APRIL","4","0","2054",,,,,"1","2018-08-15 19:20:43","274"
"A1XB671UQA34Q8","cs_wg_full_v4_conf_pilot4","358UUM7WRZ49F4TW1MN5IN1896UR79","22","0","FEBRUARY","1","MAY","4","1","4125",,,,,"1","2018-08-15 19:20:43","275"
"A2DHKTD1GSBXR2","cs_wg_full_v4_conf_pilot4","3OHYZ19UGC6O1TZEGXILYJYTZRGOAO","13","0","JANUARY","3","MAY","11","1","7099",,,,,"1","2018-08-15 19:20:43","276"
"AA8PZKO9XGCKO","cs_wg_full_v4_conf_pilot4","3ND9UOO81K3D2LZK4AYLORRQW5ELWF","30","0","JULY","9","SEPTEMBER","4","0","7259",,,,,"1","2018-08-15 19:20:43","277"
"A1YXOL54W4KZ7M","cs_wg_full_v4_conf_pilot4","3S3AMIZX3U6LQB5NA20WTKCIVGUCDH","16","0","AUGUST","8","MAY","5","0","614",,,,,"1","2018-08-15 19:20:43","278"
"AMJOSPFPF8KLH","cs_wg_full_v4_conf_pilot4","32VNZTT0A75CWHBDZOPYFBHYI44R4P","19","0","DECEMBER","5","SEPTEMBER","3","0","3421",,,,,"1","2018-08-15 19:20:44","279"
"A1FYWSPNO7KN1O","cs_wg_full_v4_conf_pilot4","3M68NM076H8QB4FRICIDC91CEVAR6A","11","0","JULY","3","MAY","8","1","3351",,,,,"1","2018-08-15 19:20:45","280"
"A3R21KIGJQ4A51","cs_wg_full_v4_conf_pilot4","3TVRFO09GKGSRL4AEFU7QA5X57KLX8","28","0","JULY","3","MAY","12","1","3011",,,,,"1","2018-08-15 19:20:45","281"
"A2C4Z939OAKJJP","cs_wg_full_v4_conf_pilot4","3P1L2B7AD1Q5XCQIDO7B7XE4T3FOL6","7","0","MARCH","1","NOVEMBER","8","1","13662",,,,,"1","2018-08-15 19:20:45","282"
"A39T2QQJHCTJO3","cs_wg_full_v4_conf_pilot4","3VD82FOHKQPCU8WC0BEC4EOHZU1OCQ","8","0","MARCH","3","APRIL","1","1","4555",,,,,"1","2018-08-15 19:20:47","283"
"AMJOSPFPF8KLH","cs_wg_full_v4_conf_pilot4","32VNZTT0A75CWHBDZOPYFBHYI44R4P","20","0","APRIL","11","JUNE","2","0","1067",,,,,"1","2018-08-15 19:20:48","284"
"A1KQV9A4YITCSJ","cs_wg_full_v4_conf_pilot4","3VHP9MDGRNLIOVJJ18VMHKF37TACFS","24","0","JUNE","8","NOVEMBER","5","1","4053",,,,,"1","2018-08-15 19:20:48","285"
"A3481D53L3VP7Y","cs_wg_full_v4_conf_pilot4","3YMU66OBIN9FJ3QUYKF5AWCVL0FGH4","15","0","MAY","12","FEBRUARY","8","0","5290",,,,,"1","2018-08-15 19:20:48","286"
"A2EJ7U3TZAKROG","cs_wg_full_v4_conf_pilot4","3JRJSWSMQHM25HN4D40F6ZQ9PFIE3E","23","0","JUNE","9","MARCH","5","0","4045",,,,,"1","2018-08-15 19:20:48","287"
"A1XB671UQA34Q8","cs_wg_full_v4_conf_pilot4","358UUM7WRZ49F4TW1MN5IN1896UR79","23","0","OCTOBER","10","DECEMBER","6","0","3671",,,,,"1","2018-08-15 19:20:48","288"
"A3R21KIGJQ4A51","cs_wg_full_v4_conf_pilot4","3TVRFO09GKGSRL4AEFU7QA5X57KLX8","29","0","AUGUST","5","MAY","12","1","1908",,,,,"1","2018-08-15 19:20:49","289"
"AA8PZKO9XGCKO","cs_wg_full_v4_conf_pilot4","3ND9UOO81K3D2LZK4AYLORRQW5ELWF","31","0","NOVEMBER","12","AUGUST","10","0","3059",,,,,"1","2018-08-15 19:20:49","290"
"AMJOSPFPF8KLH","cs_wg_full_v4_conf_pilot4","32VNZTT0A75CWHBDZOPYFBHYI44R4P","21","0","MAY","9","DECEMBER","5","0","781",,,,,"1","2018-08-15 19:20:50","291"
"A2XNOJZEAY4WFJ","cs_wg_full_v4_conf_pilot4","3VAR3R6G1P2AI56ZJZY72SSY93GO8K","12","0","JUNE","10","DECEMBER","9","0","13356",,,,,"1","2018-08-15 19:20:50","292"
"A1VPQJR2V850OM","cs_wg_full_v4_conf_pilot4","36AHBNMV1RDYTE6S6UILQB41Y4CDYQ","8","0","JUNE","10","MARCH","3","0","6095",,,,,"1","2018-08-15 19:20:50","293"
"A1FYWSPNO7KN1O","cs_wg_full_v4_conf_pilot4","3M68NM076H8QB4FRICIDC91CEVAR6A","12","0","JUNE","5","NOVEMBER","6","1","3804",,,,,"1","2018-08-15 19:20:50","294"
"AJW3PL5UDH4BP","cs_wg_full_v4_conf_pilot4","3HHRAGRYX86AWAP9OR4L2ON9T9YO99","12","0","MARCH","5","JULY","2","0","7914",,,,,"1","2018-08-15 19:20:51","295"
"A2DHKTD1GSBXR2","cs_wg_full_v4_conf_pilot4","3OHYZ19UGC6O1TZEGXILYJYTZRGOAO","14","0","OCTOBER","4","DECEMBER","6","1","2634",,,,,"1","2018-08-15 19:20:52","296"
"A1KQV9A4YITCSJ","cs_wg_full_v4_conf_pilot4","3VHP9MDGRNLIOVJJ18VMHKF37TACFS","25","0","MARCH","12","FEBRUARY","7","0","1135",,,,,"1","2018-08-15 19:20:52","297"
"AD86UQ62HUAJN","cs_wg_full_v4_conf_pilot4","33L7PJKHCGZQVXB7FGK6W2YL8BXT8B","10","0","JANUARY","3","DECEMBER","6","1","6681",,,,,"1","2018-08-15 19:20:52","298"
"A3481D53L3VP7Y","cs_wg_full_v4_conf_pilot4","3YMU66OBIN9FJ3QUYKF5AWCVL0FGH4","16","0","NOVEMBER","5","APRIL","3","0","3552",,,,,"1","2018-08-15 19:20:54","299"
"A3R21KIGJQ4A51","cs_wg_full_v4_conf_pilot4","3TVRFO09GKGSRL4AEFU7QA5X57KLX8","30","0","MAY","12","JULY","3","0","3523",,,,,"1","2018-08-15 19:20:55","300"
"AA8PZKO9XGCKO","cs_wg_full_v4_conf_pilot4","3ND9UOO81K3D2LZK4AYLORRQW5ELWF","32","0","FEBRUARY","2","NOVEMBER","12","1","2913",,,,,"1","2018-08-15 19:20:55","301"
"A2EJ7U3TZAKROG","cs_wg_full_v4_conf_pilot4","3JRJSWSMQHM25HN4D40F6ZQ9PFIE3E","24","0","NOVEMBER","10","JANUARY","7","0","3675",,,,,"1","2018-08-15 19:20:56","302"
"A1KQV9A4YITCSJ","cs_wg_full_v4_conf_pilot4","3VHP9MDGRNLIOVJJ18VMHKF37TACFS","26","0","JANUARY","4","JUNE","8","1","1269",,,,,"1","2018-08-15 19:20:56","303"
"A1XB671UQA34Q8","cs_wg_full_v4_conf_pilot4","358UUM7WRZ49F4TW1MN5IN1896UR79","24","0","DECEMBER","6","JANUARY","12","1","3913",,,,,"1","2018-08-15 19:20:56","304"
"AMJOSPFPF8KLH","cs_wg_full_v4_conf_pilot4","32VNZTT0A75CWHBDZOPYFBHYI44R4P","22","0","OCTOBER","10","FEBRUARY","7","1","2845",,,,,"1","2018-08-15 19:20:56","305"
"A39T2QQJHCTJO3","cs_wg_full_v4_conf_pilot4","3VD82FOHKQPCU8WC0BEC4EOHZU1OCQ","9","0","APRIL","1","FEBRUARY","2","0","6100",,,,,"1","2018-08-15 19:20:56","306"
"A1FYWSPNO7KN1O","cs_wg_full_v4_conf_pilot4","3M68NM076H8QB4FRICIDC91CEVAR6A","13","0","JANUARY","7","AUGUST","10","1","3342",,,,,"1","2018-08-15 19:20:56","308"
"A3QE6QMELJEI9J","cs_wg_full_v4_conf_pilot4","3OONKJ5DKCKTK346MBIHTUIZH91OBJ","1","0","APRIL","8","JANUARY","5","1","6168",,,,,"0","2018-08-15 19:20:56","307"
"A2DHKTD1GSBXR2","cs_wg_full_v4_conf_pilot4","3OHYZ19UGC6O1TZEGXILYJYTZRGOAO","15","0","DECEMBER","6","NOVEMBER","1","0","3685",,,,,"1","2018-08-15 19:20:57","309"
"A2C4Z939OAKJJP","cs_wg_full_v4_conf_pilot4","3P1L2B7AD1Q5XCQIDO7B7XE4T3FOL6","8","0","DECEMBER","4","APRIL","12","1","10951",,,,,"1","2018-08-15 19:20:58","310"
"A1VPQJR2V850OM","cs_wg_full_v4_conf_pilot4","36AHBNMV1RDYTE6S6UILQB41Y4CDYQ","9","0","JULY","7","MAY","5","0","5727",,,,,"1","2018-08-15 19:20:58","311"
"AD86UQ62HUAJN","cs_wg_full_v4_conf_pilot4","33L7PJKHCGZQVXB7FGK6W2YL8BXT8B","11","0","MAY","12","JULY","7","0","4069",,,,,"1","2018-08-15 19:20:59","312"
"A3R21KIGJQ4A51","cs_wg_full_v4_conf_pilot4","3TVRFO09GKGSRL4AEFU7QA5X57KLX8","31","0","JULY","3","APRIL","2","0","2180",,,,,"1","2018-08-15 19:20:59","313"
"AMJOSPFPF8KLH","cs_wg_full_v4_conf_pilot4","32VNZTT0A75CWHBDZOPYFBHYI44R4P","23","0","JULY","8","SEPTEMBER","3","0","1602",,,,,"1","2018-08-15 19:20:59","314"
"A3481D53L3VP7Y","cs_wg_full_v4_conf_pilot4","3YMU66OBIN9FJ3QUYKF5AWCVL0FGH4","17","0","JANUARY","10","FEBRUARY","8","0","3832",,,,,"1","2018-08-15 19:21:00","315"
"AJW3PL5UDH4BP","cs_wg_full_v4_conf_pilot4","3HHRAGRYX86AWAP9OR4L2ON9T9YO99","13","0","JULY","2","JANUARY","11","1","6677",,,,,"1","2018-08-15 19:21:00","316"
"A1KQV9A4YITCSJ","cs_wg_full_v4_conf_pilot4","3VHP9MDGRNLIOVJJ18VMHKF37TACFS","27","0","NOVEMBER","5","FEBRUARY","7","0","1602",,,,,"1","2018-08-15 19:21:00","317"
"A2XNOJZEAY4WFJ","cs_wg_full_v4_conf_pilot4","3VAR3R6G1P2AI56ZJZY72SSY93GO8K","13","0","SEPTEMBER","12","JUNE","10","0","7751",,,,,"1","2018-08-15 19:21:00","318"
"A1FYWSPNO7KN1O","cs_wg_full_v4_conf_pilot4","3M68NM076H8QB4FRICIDC91CEVAR6A","14","0","SEPTEMBER","12","JANUARY","7","0","2519",,,,,"1","2018-08-15 19:21:01","319"
"A1XB671UQA34Q8","cs_wg_full_v4_conf_pilot4","358UUM7WRZ49F4TW1MN5IN1896UR79","25","0","OCTOBER","10","FEBRUARY","1","0","4573",,,,,"1","2018-08-15 19:21:02","320"
"A2EJ7U3TZAKROG","cs_wg_full_v4_conf_pilot4","3JRJSWSMQHM25HN4D40F6ZQ9PFIE3E","25","0","MARCH","5","FEBRUARY","3","0","4548",,,,,"1","2018-08-15 19:21:02","321"
"AA8PZKO9XGCKO","cs_wg_full_v4_conf_pilot4","3ND9UOO81K3D2LZK4AYLORRQW5ELWF","33","0","DECEMBER","8","SEPTEMBER","4","0","6088",,,,,"1","2018-08-15 19:21:03","322"
"AMJOSPFPF8KLH","cs_wg_full_v4_conf_pilot4","32VNZTT0A75CWHBDZOPYFBHYI44R4P","24","0","APRIL","11","AUGUST","4","1","2227",,,,,"1","2018-08-15 19:21:03","323"
"A1KQV9A4YITCSJ","cs_wg_full_v4_conf_pilot4","3VHP9MDGRNLIOVJJ18VMHKF37TACFS","28","0","MAY","3","FEBRUARY","7","1","1424",,,,,"1","2018-08-15 19:21:04","324"
"A3R21KIGJQ4A51","cs_wg_full_v4_conf_pilot4","3TVRFO09GKGSRL4AEFU7QA5X57KLX8","32","0","OCTOBER","6","MARCH","8","1","2670",,,,,"1","2018-08-15 19:21:04","325"
"AD86UQ62HUAJN","cs_wg_full_v4_conf_pilot4","33L7PJKHCGZQVXB7FGK6W2YL8BXT8B","12","0","JUNE","9","JANUARY","3","0","3306",,,,,"1","2018-08-15 19:21:04","326"
"A2XNOJZEAY4WFJ","cs_wg_full_v4_conf_pilot4","3VAR3R6G1P2AI56ZJZY72SSY93GO8K","14","0","AUGUST","8","NOVEMBER","2","0","2213",,,,,"1","2018-08-15 19:21:04","327"
"A3481D53L3VP7Y","cs_wg_full_v4_conf_pilot4","3YMU66OBIN9FJ3QUYKF5AWCVL0FGH4","18","0","JULY","11","JUNE","7","0","2923",,,,,"1","2018-08-15 19:21:05","328"
"A39T2QQJHCTJO3","cs_wg_full_v4_conf_pilot4","3VD82FOHKQPCU8WC0BEC4EOHZU1OCQ","10","0","AUGUST","12","NOVEMBER","4","1","5561",,,,,"1","2018-08-15 19:21:05","329"
"A1FYWSPNO7KN1O","cs_wg_full_v4_conf_pilot4","3M68NM076H8QB4FRICIDC91CEVAR6A","15","0","MAY","8","MARCH","11","1","2434",,,,,"1","2018-08-15 19:21:06","330"
"A1YXOL54W4KZ7M","cs_wg_full_v4_conf_pilot4","3S3AMIZX3U6LQB5NA20WTKCIVGUCDH","17","0","FEBRUARY","7","MARCH","6","0","16517",,,,,"1","2018-08-15 19:21:06","331"
"A1XB671UQA34Q8","cs_wg_full_v4_conf_pilot4","358UUM7WRZ49F4TW1MN5IN1896UR79","26","0","NOVEMBER","5","FEBRUARY","1","0","2300",,,,,"1","2018-08-15 19:21:06","332"
"A2EJ7U3TZAKROG","cs_wg_full_v4_conf_pilot4","3JRJSWSMQHM25HN4D40F6ZQ9PFIE3E","26","0","OCTOBER","6","FEBRUARY","3","0","3237",,,,,"1","2018-08-15 19:21:08","333"
"A3QE6QMELJEI9J","cs_wg_full_v4_conf_pilot4","3OONKJ5DKCKTK346MBIHTUIZH91OBJ","2","0","JUNE","4","NOVEMBER","6","0","5729",,,,,"0","2018-08-15 19:21:08","334"
"AMJOSPFPF8KLH","cs_wg_full_v4_conf_pilot4","32VNZTT0A75CWHBDZOPYFBHYI44R4P","25","0","OCTOBER","10","JANUARY","12","1","2701",,,,,"1","2018-08-15 19:21:08","335"
"A1KQV9A4YITCSJ","cs_wg_full_v4_conf_pilot4","3VHP9MDGRNLIOVJJ18VMHKF37TACFS","29","0","MAY","3","MARCH","12","1","1843",,,,,"1","2018-08-15 19:21:08","336"
"A1YXOL54W4KZ7M","cs_wg_full_v4_conf_pilot4","3S3AMIZX3U6LQB5NA20WTKCIVGUCDH","18","0","DECEMBER","2","MARCH","6","1","346",,,,,"1","2018-08-15 19:21:08","337"
"AA8PZKO9XGCKO","cs_wg_full_v4_conf_pilot4","3ND9UOO81K3D2LZK4AYLORRQW5ELWF","34","0","DECEMBER","8","JANUARY","3","0","2952",,,,,"1","2018-08-15 19:21:09","338"
"A3R21KIGJQ4A51","cs_wg_full_v4_conf_pilot4","3TVRFO09GKGSRL4AEFU7QA5X57KLX8","33","0","DECEMBER","11","MAY","12","1","2669",,,,,"1","2018-08-15 19:21:09","339"
"AD86UQ62HUAJN","cs_wg_full_v4_conf_pilot4","33L7PJKHCGZQVXB7FGK6W2YL8BXT8B","13","0","DECEMBER","6","MAY","12","1","3067",,,,,"1","2018-08-15 19:21:09","340"
"A2C4Z939OAKJJP","cs_wg_full_v4_conf_pilot4","3P1L2B7AD1Q5XCQIDO7B7XE4T3FOL6","9","0","SEPTEMBER","5","JUNE","3","0","6652",,,,,"1","2018-08-15 19:21:09","341"
"AJW3PL5UDH4BP","cs_wg_full_v4_conf_pilot4","3HHRAGRYX86AWAP9OR4L2ON9T9YO99","14","0","DECEMBER","3","MARCH","5","1","7821",,,,,"1","2018-08-15 19:21:09","342"
"A1YXOL54W4KZ7M","cs_wg_full_v4_conf_pilot4","3S3AMIZX3U6LQB5NA20WTKCIVGUCDH","19","0","MAY","5","DECEMBER","2","1","385",,,,,"1","2018-08-15 19:21:10","343"
"A1VPQJR2V850OM","cs_wg_full_v4_conf_pilot4","36AHBNMV1RDYTE6S6UILQB41Y4CDYQ","10","0","MARCH","3","SEPTEMBER","6","1","9182",,,,,"1","2018-08-15 19:21:10","344"
"A3481D53L3VP7Y","cs_wg_full_v4_conf_pilot4","3YMU66OBIN9FJ3QUYKF5AWCVL0FGH4","19","0","DECEMBER","6","AUGUST","1","0","3165",,,,,"1","2018-08-15 19:21:10","345"
"A1FYWSPNO7KN1O","cs_wg_full_v4_conf_pilot4","3M68NM076H8QB4FRICIDC91CEVAR6A","16","0","NOVEMBER","6","JULY","3","0","2750",,,,,"1","2018-08-15 19:21:10","346"
"A1XB671UQA34Q8","cs_wg_full_v4_conf_pilot4","358UUM7WRZ49F4TW1MN5IN1896UR79","27","0","APRIL","2","DECEMBER","6","1","3622",,,,,"1","2018-08-15 19:21:12","347"
"A1KQV9A4YITCSJ","cs_wg_full_v4_conf_pilot4","3VHP9MDGRNLIOVJJ18VMHKF37TACFS","30","0","MARCH","12","SEPTEMBER","1","0","1943",,,,,"1","2018-08-15 19:21:12","348"
"A1YXOL54W4KZ7M","cs_wg_full_v4_conf_pilot4","3S3AMIZX3U6LQB5NA20WTKCIVGUCDH","20","0","JULY","9","MAY","5","0","343",,,,,"1","2018-08-15 19:21:13","349"
"AA8PZKO9XGCKO","cs_wg_full_v4_conf_pilot4","3ND9UOO81K3D2LZK4AYLORRQW5ELWF","35","0","JULY","9","JUNE","7","0","1834",,,,,"1","2018-08-15 19:21:13","350"
"AMJOSPFPF8KLH","cs_wg_full_v4_conf_pilot4","32VNZTT0A75CWHBDZOPYFBHYI44R4P","26","0","MARCH","6","FEBRUARY","7","1","2273",,,,,"1","2018-08-15 19:21:13","351"
"A2XNOJZEAY4WFJ","cs_wg_full_v4_conf_pilot4","3VAR3R6G1P2AI56ZJZY72SSY93GO8K","15","0","MARCH","1","MAY","3","1","5983",,,,,"1","2018-08-15 19:21:13","352"
"A3R21KIGJQ4A51","cs_wg_full_v4_conf_pilot4","3TVRFO09GKGSRL4AEFU7QA5X57KLX8","34","0","MAY","12","FEBRUARY","1","0","2223",,,,,"1","2018-08-15 19:21:13","353"
"A2EJ7U3TZAKROG","cs_wg_full_v4_conf_pilot4","3JRJSWSMQHM25HN4D40F6ZQ9PFIE3E","27","0","OCTOBER","6","JULY","4","0","4123",,,,,"1","2018-08-15 19:21:14","354"
"A3QE6QMELJEI9J","cs_wg_full_v4_conf_pilot4","3OONKJ5DKCKTK346MBIHTUIZH91OBJ","3","0","DECEMBER","2","MAY","3","1","2884",,,,,"0","2018-08-15 19:21:14","355"
"A1YXOL54W4KZ7M","cs_wg_full_v4_conf_pilot4","3S3AMIZX3U6LQB5NA20WTKCIVGUCDH","21","0","AUGUST","8","OCTOBER","11","1","673",,,,,"1","2018-08-15 19:21:15","356"
"A1FYWSPNO7KN1O","cs_wg_full_v4_conf_pilot4","3M68NM076H8QB4FRICIDC91CEVAR6A","17","0","MARCH","11","MAY","8","0","2591",,,,,"1","2018-08-15 19:21:15","357"
"A3481D53L3VP7Y","cs_wg_full_v4_conf_pilot4","3YMU66OBIN9FJ3QUYKF5AWCVL0FGH4","20","0","APRIL","3","OCTOBER","2","0","3768",,,,,"1","2018-08-15 19:21:16","358"
"AMJOSPFPF8KLH","cs_wg_full_v4_conf_pilot4","32VNZTT0A75CWHBDZOPYFBHYI44R4P","27","0","NOVEMBER","1","OCTOBER","10","0","1267",,,,,"1","2018-08-15 19:21:16","359"
"A1YXOL54W4KZ7M","cs_wg_full_v4_conf_pilot4","3S3AMIZX3U6LQB5NA20WTKCIVGUCDH","22","0","OCTOBER","11","SEPTEMBER","12","0","173",,,,,"1","2018-08-15 19:21:17","360"
"AD86UQ62HUAJN","cs_wg_full_v4_conf_pilot4","33L7PJKHCGZQVXB7FGK6W2YL8BXT8B","14","0","SEPTEMBER","5","APRIL","4","0","5266",,,,,"1","2018-08-15 19:21:17","361"
"AA8PZKO9XGCKO","cs_wg_full_v4_conf_pilot4","3ND9UOO81K3D2LZK4AYLORRQW5ELWF","36","0","JANUARY","3","MARCH","1","0","2443",,,,,"1","2018-08-15 19:21:18","362"
"A3R21KIGJQ4A51","cs_wg_full_v4_conf_pilot4","3TVRFO09GKGSRL4AEFU7QA5X57KLX8","35","0","JANUARY","10","SEPTEMBER","7","0","2026",,,,,"1","2018-08-15 19:21:18","363"
"A1KQV9A4YITCSJ","cs_wg_full_v4_conf_pilot4","3VHP9MDGRNLIOVJJ18VMHKF37TACFS","31","0","NOVEMBER","5","JUNE","8","0","2804",,,,,"1","2018-08-15 19:21:18","364"
"A2EJ7U3TZAKROG","cs_wg_full_v4_conf_pilot4","3JRJSWSMQHM25HN4D40F6ZQ9PFIE3E","28","0","APRIL","1","MAY","2","1","2530",,,,,"1","2018-08-15 19:21:19","365"
"A1XB671UQA34Q8","cs_wg_full_v4_conf_pilot4","358UUM7WRZ49F4TW1MN5IN1896UR79","28","0","DECEMBER","6","MARCH","11","1","5180",,,,,"1","2018-08-15 19:21:19","366"
"A2XNOJZEAY4WFJ","cs_wg_full_v4_conf_pilot4","3VAR3R6G1P2AI56ZJZY72SSY93GO8K","16","0","JANUARY","5","FEBRUARY","6","1","3649",,,,,"1","2018-08-15 19:21:20","367"
"A39T2QQJHCTJO3","cs_wg_full_v4_conf_pilot4","3VD82FOHKQPCU8WC0BEC4EOHZU1OCQ","11","0","MARCH","3","FEBRUARY","2","0","11849",,,,,"1","2018-08-15 19:21:20","368"
"AMJOSPFPF8KLH","cs_wg_full_v4_conf_pilot4","32VNZTT0A75CWHBDZOPYFBHYI44R4P","28","0","NOVEMBER","1","JULY","8","1","1350",,,,,"1","2018-08-15 19:21:20","369"
"A1YXOL54W4KZ7M","cs_wg_full_v4_conf_pilot4","3S3AMIZX3U6LQB5NA20WTKCIVGUCDH","23","0","OCTOBER","11","MARCH","6","1","408",,,,,"1","2018-08-15 19:21:20","370"
"A3QE6QMELJEI9J","cs_wg_full_v4_conf_pilot4","3OONKJ5DKCKTK346MBIHTUIZH91OBJ","4","0","JULY","1","FEBRUARY","9","1","3477",,,,,"0","2018-08-15 19:21:21","371"
"A1KQV9A4YITCSJ","cs_wg_full_v4_conf_pilot4","3VHP9MDGRNLIOVJJ18VMHKF37TACFS","32","0","NOVEMBER","5","JULY","6","0","602",,,,,"1","2018-08-15 19:21:22","372"
"A2C4Z939OAKJJP","cs_wg_full_v4_conf_pilot4","3P1L2B7AD1Q5XCQIDO7B7XE4T3FOL6","10","0","NOVEMBER","8","DECEMBER","4","0","9998",,,,,"1","2018-08-15 19:21:22","373"
"A3R21KIGJQ4A51","cs_wg_full_v4_conf_pilot4","3TVRFO09GKGSRL4AEFU7QA5X57KLX8","36","0","SEPTEMBER","7","AUGUST","5","0","2403",,,,,"1","2018-08-15 19:21:22","374"
"AMJOSPFPF8KLH","cs_wg_full_v4_conf_pilot4","32VNZTT0A75CWHBDZOPYFBHYI44R4P","29","0","JANUARY","12","NOVEMBER","1","0","1118",,,,,"1","2018-08-15 19:21:23","375"
"A3481D53L3VP7Y","cs_wg_full_v4_conf_pilot4","3YMU66OBIN9FJ3QUYKF5AWCVL0FGH4","21","0","JULY","11","JANUARY","10","0","4993",,,,,"1","2018-08-15 19:21:23","376"
"A1VPQJR2V850OM","cs_wg_full_v4_conf_pilot4","36AHBNMV1RDYTE6S6UILQB41Y4CDYQ","11","0","SEPTEMBER","6","APRIL","12","1","10101",,,,,"1","2018-08-15 19:21:24","377"
"A1YXOL54W4KZ7M","cs_wg_full_v4_conf_pilot4","3S3AMIZX3U6LQB5NA20WTKCIVGUCDH","24","0","JULY","9","JUNE","3","0","537",,,,,"1","2018-08-15 19:21:24","378"
"AD86UQ62HUAJN","cs_wg_full_v4_conf_pilot4","33L7PJKHCGZQVXB7FGK6W2YL8BXT8B","15","0","OCTOBER","8","SEPTEMBER","5","0","4625",,,,,"1","2018-08-15 19:21:24","379"
"A1FYWSPNO7KN1O","cs_wg_full_v4_conf_pilot4","3M68NM076H8QB4FRICIDC91CEVAR6A","18","0","AUGUST","10","FEBRUARY","2","0","7578",,,,,"1","2018-08-15 19:21:24","380"
"A1KQV9A4YITCSJ","cs_wg_full_v4_conf_pilot4","3VHP9MDGRNLIOVJJ18VMHKF37TACFS","33","0","AUGUST","2","JUNE","8","1","544",,,,,"1","2018-08-15 19:21:25","381"
"A2XNOJZEAY4WFJ","cs_wg_full_v4_conf_pilot4","3VAR3R6G1P2AI56ZJZY72SSY93GO8K","17","0","FEBRUARY","6","OCTOBER","7","1","2812",,,,,"1","2018-08-15 19:21:26","382"
"A1YXOL54W4KZ7M","cs_wg_full_v4_conf_pilot4","3S3AMIZX3U6LQB5NA20WTKCIVGUCDH","25","0","AUGUST","8","SEPTEMBER","12","1","338",,,,,"1","2018-08-15 19:21:26","383"
"A2EJ7U3TZAKROG","cs_wg_full_v4_conf_pilot4","3JRJSWSMQHM25HN4D40F6ZQ9PFIE3E","29","0","JUNE","9","JANUARY","7","0","4156",,,,,"1","2018-08-15 19:21:26","384"
"AMJOSPFPF8KLH","cs_wg_full_v4_conf_pilot4","32VNZTT0A75CWHBDZOPYFBHYI44R4P","30","0","AUGUST","4","OCTOBER","10","1","1429",,,,,"1","2018-08-15 19:21:27","385"
"A1XB671UQA34Q8","cs_wg_full_v4_conf_pilot4","358UUM7WRZ49F4TW1MN5IN1896UR79","29","0","JUNE","8","APRIL","2","0","5300",,,,,"1","2018-08-15 19:21:27","386"
"A1YXOL54W4KZ7M","cs_wg_full_v4_conf_pilot4","3S3AMIZX3U6LQB5NA20WTKCIVGUCDH","26","0","MARCH","6","JULY","9","0","252",,,,,"1","2018-08-15 19:21:28","387"
"A1FYWSPNO7KN1O","cs_wg_full_v4_conf_pilot4","3M68NM076H8QB4FRICIDC91CEVAR6A","19","0","AUGUST","10","JANUARY","7","0","2135",,,,,"1","2018-08-15 19:21:28","388"
"A1KQV9A4YITCSJ","cs_wg_full_v4_conf_pilot4","3VHP9MDGRNLIOVJJ18VMHKF37TACFS","34","0","AUGUST","2","JULY","6","0","548",,,,,"1","2018-08-15 19:21:28","389"
"AD86UQ62HUAJN","cs_wg_full_v4_conf_pilot4","33L7PJKHCGZQVXB7FGK6W2YL8BXT8B","16","0","AUGUST","11","FEBRUARY","1","0","2611",,,,,"1","2018-08-15 19:21:29","390"
"A3QE6QMELJEI9J","cs_wg_full_v4_conf_pilot4","3OONKJ5DKCKTK346MBIHTUIZH91OBJ","5","0","NOVEMBER","6","JANUARY","5","1","3993",,,,,"0","2018-08-15 19:21:29","391"
"A3R21KIGJQ4A51","cs_wg_full_v4_conf_pilot4","3TVRFO09GKGSRL4AEFU7QA5X57KLX8","37","0","MARCH","8","JANUARY","10","1","5032",,,,,"1","2018-08-15 19:21:29","392"
"AMJOSPFPF8KLH","cs_wg_full_v4_conf_pilot4","32VNZTT0A75CWHBDZOPYFBHYI44R4P","31","0","AUGUST","4","SEPTEMBER","3","0","1099",,,,,"1","2018-08-15 19:21:29","393"
"A1YXOL54W4KZ7M","cs_wg_full_v4_conf_pilot4","3S3AMIZX3U6LQB5NA20WTKCIVGUCDH","27","0","SEPTEMBER","12","DECEMBER","2","1","443",,,,,"1","2018-08-15 19:21:30","394"
"AJW3PL5UDH4BP","cs_wg_full_v4_conf_pilot4","3HHRAGRYX86AWAP9OR4L2ON9T9YO99","15","0","SEPTEMBER","10","NOVEMBER","7","0","19154",,,,,"1","2018-08-15 19:21:30","395"
"AA8PZKO9XGCKO","cs_wg_full_v4_conf_pilot4","3ND9UOO81K3D2LZK4AYLORRQW5ELWF","37","0","DECEMBER","8","JUNE","7","0","5611",,,,,"1","2018-08-15 19:21:31","396"
"A1KQV9A4YITCSJ","cs_wg_full_v4_conf_pilot4","3VHP9MDGRNLIOVJJ18VMHKF37TACFS","35","0","FEBRUARY","7","JANUARY","4","1","412",,,,,"1","2018-08-15 19:21:31","397"
"A3481D53L3VP7Y","cs_wg_full_v4_conf_pilot4","3YMU66OBIN9FJ3QUYKF5AWCVL0FGH4","22","0","MARCH","4","JUNE","7","1","4437",,,,,"1","2018-08-15 19:21:31","398"
"A1XB671UQA34Q8","cs_wg_full_v4_conf_pilot4","358UUM7WRZ49F4TW1MN5IN1896UR79","30","0","JANUARY","12","MARCH","11","0","2715",,,,,"1","2018-08-15 19:21:31","399"
"AD86UQ62HUAJN","cs_wg_full_v4_conf_pilot4","33L7PJKHCGZQVXB7FGK6W2YL8BXT8B","17","0","AUGUST","11","APRIL","4","0","935",,,,,"1","2018-08-15 19:21:32","400"
"A1FYWSPNO7KN1O","cs_wg_full_v4_conf_pilot4","3M68NM076H8QB4FRICIDC91CEVAR6A","20","0","OCTOBER","4","NOVEMBER","6","1","2419",,,,,"1","2018-08-15 19:21:33","401"
"A2C4Z939OAKJJP","cs_wg_full_v4_conf_pilot4","3P1L2B7AD1Q5XCQIDO7B7XE4T3FOL6","11","0","DECEMBER","4","SEPTEMBER","5","1","7830",,,,,"1","2018-08-15 19:21:33","402"
"A1KQV9A4YITCSJ","cs_wg_full_v4_conf_pilot4","3VHP9MDGRNLIOVJJ18VMHKF37TACFS","36","0","MARCH","12","OCTOBER","9","0","262",,,,,"1","2018-08-15 19:21:33","403"
"A3R21KIGJQ4A51","cs_wg_full_v4_conf_pilot4","3TVRFO09GKGSRL4AEFU7QA5X57KLX8","38","0","JANUARY","10","NOVEMBER","9","0","2332",,,,,"1","2018-08-15 19:21:34","404"
"A1VPQJR2V850OM","cs_wg_full_v4_conf_pilot4","36AHBNMV1RDYTE6S6UILQB41Y4CDYQ","12","0","MAY","5","AUGUST","4","0","7923",,,,,"1","2018-08-15 19:21:34","405"
"A2EJ7U3TZAKROG","cs_wg_full_v4_conf_pilot4","3JRJSWSMQHM25HN4D40F6ZQ9PFIE3E","30","0","SEPTEMBER","8","JANUARY","7","0","4798",,,,,"1","2018-08-15 19:21:34","406"
"A2XNOJZEAY4WFJ","cs_wg_full_v4_conf_pilot4","3VAR3R6G1P2AI56ZJZY72SSY93GO8K","18","0","MAY","3","JULY","11","1","5041",,,,,"1","2018-08-15 19:21:34","407"
"A1XB671UQA34Q8","cs_wg_full_v4_conf_pilot4","358UUM7WRZ49F4TW1MN5IN1896UR79","31","0","JUNE","8","MAY","4","0","1770",,,,,"1","2018-08-15 19:21:35","408"
"A3QE6QMELJEI9J","cs_wg_full_v4_conf_pilot4","3OONKJ5DKCKTK346MBIHTUIZH91OBJ","6","0","JUNE","4","APRIL","8","0","2576",,,,,"0","2018-08-15 19:21:35","409"
"AA8PZKO9XGCKO","cs_wg_full_v4_conf_pilot4","3ND9UOO81K3D2LZK4AYLORRQW5ELWF","38","0","APRIL","6","DECEMBER","8","1","2783",,,,,"1","2018-08-15 19:21:36","410"
"A1FYWSPNO7KN1O","cs_wg_full_v4_conf_pilot4","3M68NM076H8QB4FRICIDC91CEVAR6A","21","0","FEBRUARY","2","MAY","8","1","2116",,,,,"1","2018-08-15 19:21:37","411"
"A1KQV9A4YITCSJ","cs_wg_full_v4_conf_pilot4","3VHP9MDGRNLIOVJJ18VMHKF37TACFS","37","0","JULY","6","NOVEMBER","5","0","1344",,,,,"1","2018-08-15 19:21:37","412"
"A2C509MUKR5CIJ","cs_wg_full_v4_conf_pilot4","3NS0A6KXC491AOQO46LCA3G0HQWZGD","0","0","AUGUST","7","JULY","6","0","9061",,,,,"1","2018-08-15 19:21:37","413"
"A1YXOL54W4KZ7M","cs_wg_full_v4_conf_pilot4","3S3AMIZX3U6LQB5NA20WTKCIVGUCDH","28","0","MAY","5","OCTOBER","11","0","3525",,,,,"1","2018-08-15 19:21:37","414"
"A2XNOJZEAY4WFJ","cs_wg_full_v4_conf_pilot4","3VAR3R6G1P2AI56ZJZY72SSY93GO8K","19","0","MARCH","1","OCTOBER","7","1","1913",,,,,"1","2018-08-15 19:21:38","415"
"AD86UQ62HUAJN","cs_wg_full_v4_conf_pilot4","33L7PJKHCGZQVXB7FGK6W2YL8BXT8B","18","0","JULY","7","MARCH","10","1","3695",,,,,"1","2018-08-15 19:21:38","416"
"A39T2QQJHCTJO3","cs_wg_full_v4_conf_pilot4","3VD82FOHKQPCU8WC0BEC4EOHZU1OCQ","12","0","OCTOBER","10","NOVEMBER","4","1","15506",,,,,"1","2018-08-15 19:21:38","417"
"A1YXOL54W4KZ7M","cs_wg_full_v4_conf_pilot4","3S3AMIZX3U6LQB5NA20WTKCIVGUCDH","29","0","JUNE","3","MARCH","6","1","331",,,,,"1","2018-08-15 19:21:39","418"
"A3481D53L3VP7Y","cs_wg_full_v4_conf_pilot4","3YMU66OBIN9FJ3QUYKF5AWCVL0FGH4","23","0","NOVEMBER","5","SEPTEMBER","9","1","4477",,,,,"1","2018-08-15 19:21:39","419"
"A3R21KIGJQ4A51","cs_wg_full_v4_conf_pilot4","3TVRFO09GKGSRL4AEFU7QA5X57KLX8","39","0","APRIL","2","DECEMBER","11","1","3525",,,,,"1","2018-08-15 19:21:39","420"
"A1XB671UQA34Q8","cs_wg_full_v4_conf_pilot4","358UUM7WRZ49F4TW1MN5IN1896UR79","32","0","MARCH","11","OCTOBER","10","0","2707",,,,,"1","2018-08-15 19:21:39","421"
"A1KQV9A4YITCSJ","cs_wg_full_v4_conf_pilot4","3VHP9MDGRNLIOVJJ18VMHKF37TACFS","38","0","MAY","3","NOVEMBER","5","0","709",,,,,"1","2018-08-15 19:21:40","422"
"AA8PZKO9XGCKO","cs_wg_full_v4_conf_pilot4","3ND9UOO81K3D2LZK4AYLORRQW5ELWF","39","0","APRIL","6","NOVEMBER","12","1","1873",,,,,"1","2018-08-15 19:21:40","423"
"A1VPQJR2V850OM","cs_wg_full_v4_conf_pilot4","36AHBNMV1RDYTE6S6UILQB41Y4CDYQ","13","0","JUNE","10","MAY","5","0","4335",,,,,"1","2018-08-15 19:21:41","424"
"A1FYWSPNO7KN1O","cs_wg_full_v4_conf_pilot4","3M68NM076H8QB4FRICIDC91CEVAR6A","22","0","SEPTEMBER","12","NOVEMBER","6","0","1824",,,,,"1","2018-08-15 19:21:41","425"
"A3QE6QMELJEI9J","cs_wg_full_v4_conf_pilot4","3OONKJ5DKCKTK346MBIHTUIZH91OBJ","7","0","DECEMBER","2","FEBRUARY","9","1","3235",,,,,"0","2018-08-15 19:21:42","426"
"AJW3PL5UDH4BP","cs_wg_full_v4_conf_pilot4","3HHRAGRYX86AWAP9OR4L2ON9T9YO99","16","0","DECEMBER","3","JANUARY","11","1","7573",,,,,"1","2018-08-15 19:21:42","427"
"A2EJ7U3TZAKROG","cs_wg_full_v4_conf_pilot4","3JRJSWSMQHM25HN4D40F6ZQ9PFIE3E","31","0","MAY","2","JUNE","9","1","4039",,,,,"1","2018-08-15 19:21:43","428"
"A1XB671UQA34Q8","cs_wg_full_v4_conf_pilot4","358UUM7WRZ49F4TW1MN5IN1896UR79","33","0","OCTOBER","10","JUNE","8","0","1805",,,,,"1","2018-08-15 19:21:43","429"
"A2C4Z939OAKJJP","cs_wg_full_v4_conf_pilot4","3P1L2B7AD1Q5XCQIDO7B7XE4T3FOL6","12","0","AUGUST","2","MAY","9","1","8374",,,,,"1","2018-08-15 19:21:44","430"
"A1KQV9A4YITCSJ","cs_wg_full_v4_conf_pilot4","3VHP9MDGRNLIOVJJ18VMHKF37TACFS","39","0","DECEMBER","10","OCTOBER","9","1","1558",,,,,"1","2018-08-15 19:21:44","431"
"AA8PZKO9XGCKO","cs_wg_full_v4_conf_pilot4","3ND9UOO81K3D2LZK4AYLORRQW5ELWF","40","0","FEBRUARY","2","MARCH","1","0","1672",,,,,"1","2018-08-15 19:21:44","432"
"A1FYWSPNO7KN1O","cs_wg_full_v4_conf_pilot4","3M68NM076H8QB4FRICIDC91CEVAR6A","23","0","AUGUST","10","MAY","8","0","1673",,,,,"1","2018-08-15 19:21:45","433"
"A2XNOJZEAY4WFJ","cs_wg_full_v4_conf_pilot4","3VAR3R6G1P2AI56ZJZY72SSY93GO8K","20","0","JUNE","10","FEBRUARY","6","0","5580",,,,,"1","2018-08-15 19:21:45","434"
"A3481D53L3VP7Y","cs_wg_full_v4_conf_pilot4","3YMU66OBIN9FJ3QUYKF5AWCVL0FGH4","24","0","JULY","11","NOVEMBER","5","0","3881",,,,,"1","2018-08-15 19:21:46","435"
"A3R21KIGJQ4A51","cs_wg_full_v4_conf_pilot4","3TVRFO09GKGSRL4AEFU7QA5X57KLX8","40","0","SEPTEMBER","7","MARCH","8","1","4795",,,,,"1","2018-08-15 19:21:46","436"
"A1XB671UQA34Q8","cs_wg_full_v4_conf_pilot4","358UUM7WRZ49F4TW1MN5IN1896UR79","34","0","JANUARY","12","DECEMBER","6","0","1660",,,,,"1","2018-08-15 19:21:47","437"
"A1YXOL54W4KZ7M","cs_wg_full_v4_conf_pilot4","3S3AMIZX3U6LQB5NA20WTKCIVGUCDH","30","0","JULY","9","OCTOBER","11","1","5677",,,,,"1","2018-08-15 19:21:48","438"
"A2EJ7U3TZAKROG","cs_wg_full_v4_conf_pilot4","3JRJSWSMQHM25HN4D40F6ZQ9PFIE3E","32","0","OCTOBER","6","NOVEMBER","10","1","2769",,,,,"1","2018-08-15 19:21:48","439"
"A1KQV9A4YITCSJ","cs_wg_full_v4_conf_pilot4","3VHP9MDGRNLIOVJJ18VMHKF37TACFS","40","0","SEPTEMBER","1","FEBRUARY","7","0","715",,,,,"1","2018-08-15 19:21:49","440"
"A3QE6QMELJEI9J","cs_wg_full_v4_conf_pilot4","3OONKJ5DKCKTK346MBIHTUIZH91OBJ","8","0","OCTOBER","12","FEBRUARY","9","1","3001",,,,,"0","2018-08-15 19:21:49","441"
"A2XNOJZEAY4WFJ","cs_wg_full_v4_conf_pilot4","3VAR3R6G1P2AI56ZJZY72SSY93GO8K","21","0","MARCH","1","AUGUST","8","1","1797",,,,,"1","2018-08-15 19:21:49","442"
"AD86UQ62HUAJN","cs_wg_full_v4_conf_pilot4","33L7PJKHCGZQVXB7FGK6W2YL8BXT8B","19","0","DECEMBER","6","NOVEMBER","2","0","8414",,,,,"1","2018-08-15 19:21:49","443"
"AJW3PL5UDH4BP","cs_wg_full_v4_conf_pilot4","3HHRAGRYX86AWAP9OR4L2ON9T9YO99","17","0","SEPTEMBER","10","JULY","2","0","5440",,,,,"1","2018-08-15 19:21:50","444"
"A1FYWSPNO7KN1O","cs_wg_full_v4_conf_pilot4","3M68NM076H8QB4FRICIDC91CEVAR6A","24","0","FEBRUARY","2","JULY","3","1","3411",,,,,"1","2018-08-15 19:21:50","445"
"A1VPQJR2V850OM","cs_wg_full_v4_conf_pilot4","36AHBNMV1RDYTE6S6UILQB41Y4CDYQ","14","0","OCTOBER","9","MARCH","3","0","7096",,,,,"1","2018-08-15 19:21:50","446"
"A2C509MUKR5CIJ","cs_wg_full_v4_conf_pilot4","3NS0A6KXC491AOQO46LCA3G0HQWZGD","1","0","APRIL","10","MARCH","3","0","9958",,,,,"1","2018-08-15 19:21:51","447"
"A1YXOL54W4KZ7M","cs_wg_full_v4_conf_pilot4","3S3AMIZX3U6LQB5NA20WTKCIVGUCDH","31","0","NOVEMBER","1","FEBRUARY","7","1","762",,,,,"1","2018-08-15 19:21:51","448"
"A3R21KIGJQ4A51","cs_wg_full_v4_conf_pilot4","3TVRFO09GKGSRL4AEFU7QA5X57KLX8","41","0","OCTOBER","6","JULY","3","0","3058",,,,,"1","2018-08-15 19:21:51","449"
"A1XB671UQA34Q8","cs_wg_full_v4_conf_pilot4","358UUM7WRZ49F4TW1MN5IN1896UR79","35","0","JUNE","8","NOVEMBER","5","0","2867",,,,,"1","2018-08-15 19:21:51","450"
"AMJOSPFPF8KLH","cs_wg_full_v4_conf_pilot4","32VNZTT0A75CWHBDZOPYFBHYI44R4P","32","0","OCTOBER","10","APRIL","11","0","19405",,,,,"1","2018-08-15 19:21:52","451"
"A1KQV9A4YITCSJ","cs_wg_full_v4_conf_pilot4","3VHP9MDGRNLIOVJJ18VMHKF37TACFS","41","0","JULY","6","DECEMBER","10","1","1087",,,,,"1","2018-08-15 19:21:52","452"
"AD86UQ62HUAJN","cs_wg_full_v4_conf_pilot4","33L7PJKHCGZQVXB7FGK6W2YL8BXT8B","20","0","NOVEMBER","2","JUNE","9","1","953",,,,,"1","2018-08-15 19:21:53","453"
"A1YXOL54W4KZ7M","cs_wg_full_v4_conf_pilot4","3S3AMIZX3U6LQB5NA20WTKCIVGUCDH","32","0","DECEMBER","2","JUNE","3","0","332",,,,,"1","2018-08-15 19:21:53","454"
"A2C4Z939OAKJJP","cs_wg_full_v4_conf_pilot4","3P1L2B7AD1Q5XCQIDO7B7XE4T3FOL6","13","0","JANUARY","11","NOVEMBER","8","0","6931",,,,,"1","2018-08-15 19:21:53","455"
"A2XNOJZEAY4WFJ","cs_wg_full_v4_conf_pilot4","3VAR3R6G1P2AI56ZJZY72SSY93GO8K","22","0","MARCH","1","FEBRUARY","6","1","2583",,,,,"1","2018-08-15 19:21:53","456"
"A3481D53L3VP7Y","cs_wg_full_v4_conf_pilot4","3YMU66OBIN9FJ3QUYKF5AWCVL0FGH4","25","0","APRIL","3","MARCH","4","1","5276",,,,,"1","2018-08-15 19:21:54","457"
"A3QE6QMELJEI9J","cs_wg_full_v4_conf_pilot4","3OONKJ5DKCKTK346MBIHTUIZH91OBJ","9","0","MAY","3","AUGUST","11","0","2380",,,,,"0","2018-08-15 19:21:54","458"
"AJW3PL5UDH4BP","cs_wg_full_v4_conf_pilot4","3HHRAGRYX86AWAP9OR4L2ON9T9YO99","18","0","MARCH","5","JUNE","1","0","3253",,,,,"1","2018-08-15 19:21:55","459"
"AMJOSPFPF8KLH","cs_wg_full_v4_conf_pilot4","32VNZTT0A75CWHBDZOPYFBHYI44R4P","33","0","AUGUST","4","MAY","9","0","1491",,,,,"1","2018-08-15 19:21:55","460"
"A1KQV9A4YITCSJ","cs_wg_full_v4_conf_pilot4","3VHP9MDGRNLIOVJJ18VMHKF37TACFS","42","0","JANUARY","4","NOVEMBER","5","0","707",,,,,"1","2018-08-15 19:21:55","461"
"A1YXOL54W4KZ7M","cs_wg_full_v4_conf_pilot4","3S3AMIZX3U6LQB5NA20WTKCIVGUCDH","33","0","JANUARY","4","FEBRUARY","7","1","322",,,,,"1","2018-08-15 19:21:55","462"
"A1XB671UQA34Q8","cs_wg_full_v4_conf_pilot4","358UUM7WRZ49F4TW1MN5IN1896UR79","36","0","OCTOBER","10","JULY","7","0","1880",,,,,"1","2018-08-15 19:21:55","463"
"A1FYWSPNO7KN1O","cs_wg_full_v4_conf_pilot4","3M68NM076H8QB4FRICIDC91CEVAR6A","25","0","JANUARY","7","MAY","8","1","3088",,,,,"1","2018-08-15 19:21:55","464"
"A2EJ7U3TZAKROG","cs_wg_full_v4_conf_pilot4","3JRJSWSMQHM25HN4D40F6ZQ9PFIE3E","33","0","OCTOBER","6","JUNE","9","1","4349",,,,,"1","2018-08-15 19:21:56","465"
"AD86UQ62HUAJN","cs_wg_full_v4_conf_pilot4","33L7PJKHCGZQVXB7FGK6W2YL8BXT8B","21","0","APRIL","4","DECEMBER","6","0","913",,,,,"1","2018-08-15 19:21:56","466"
"A3R21KIGJQ4A51","cs_wg_full_v4_conf_pilot4","3TVRFO09GKGSRL4AEFU7QA5X57KLX8","42","0","SEPTEMBER","7","FEBRUARY","1","0","3130",,,,,"1","2018-08-15 19:21:56","467"
"A2XNOJZEAY4WFJ","cs_wg_full_v4_conf_pilot4","3VAR3R6G1P2AI56ZJZY72SSY93GO8K","23","0","MARCH","1","DECEMBER","9","1","1356",,,,,"1","2018-08-15 19:21:57","468"
"A1YXOL54W4KZ7M","cs_wg_full_v4_conf_pilot4","3S3AMIZX3U6LQB5NA20WTKCIVGUCDH","34","0","NOVEMBER","1","MAY","5","1","282",,,,,"1","2018-08-15 19:21:57","469"
"A1KQV9A4YITCSJ","cs_wg_full_v4_conf_pilot4","3VHP9MDGRNLIOVJJ18VMHKF37TACFS","43","0","JULY","6","SEPTEMBER","1","1","543",,,,,"1","2018-08-15 19:21:58","470"
"AMJOSPFPF8KLH","cs_wg_full_v4_conf_pilot4","32VNZTT0A75CWHBDZOPYFBHYI44R4P","34","0","MAY","9","APRIL","11","1","1106",,,,,"1","2018-08-15 19:21:58","471"
"A1VPQJR2V850OM","cs_wg_full_v4_conf_pilot4","36AHBNMV1RDYTE6S6UILQB41Y4CDYQ","15","0","JULY","7","NOVEMBER","11","1","5827",,,,,"1","2018-08-15 19:21:58","472"
"A1YXOL54W4KZ7M","cs_wg_full_v4_conf_pilot4","3S3AMIZX3U6LQB5NA20WTKCIVGUCDH","35","0","OCTOBER","11","JULY","9","1","470",,,,,"1","2018-08-15 19:21:59","473"
"AA8PZKO9XGCKO","cs_wg_full_v4_conf_pilot4","3ND9UOO81K3D2LZK4AYLORRQW5ELWF","41","0","MARCH","1","SEPTEMBER","4","1","8501",,,,,"1","2018-08-15 19:21:59","474"
"A1FYWSPNO7KN1O","cs_wg_full_v4_conf_pilot4","3M68NM076H8QB4FRICIDC91CEVAR6A","26","0","AUGUST","10","JULY","3","0","2225",,,,,"1","2018-08-15 19:21:59","475"
"A2XNOJZEAY4WFJ","cs_wg_full_v4_conf_pilot4","3VAR3R6G1P2AI56ZJZY72SSY93GO8K","24","0","NOVEMBER","2","JANUARY","5","1","1428",,,,,"1","2018-08-15 19:22:00","476"
"A1XB671UQA34Q8","cs_wg_full_v4_conf_pilot4","358UUM7WRZ49F4TW1MN5IN1896UR79","37","0","AUGUST","9","MARCH","11","1","2946",,,,,"1","2018-08-15 19:22:00","477"
"A1YXOL54W4KZ7M","cs_wg_full_v4_conf_pilot4","3S3AMIZX3U6LQB5NA20WTKCIVGUCDH","36","0","OCTOBER","11","JUNE","3","1","481",,,,,"1","2018-08-15 19:22:01","478"
"A3QE6QMELJEI9J","cs_wg_full_v4_conf_pilot4","3OONKJ5DKCKTK346MBIHTUIZH91OBJ","10","0","DECEMBER","2","NOVEMBER","6","1","3490",,,,,"0","2018-08-15 19:22:01","479"
"A1KQV9A4YITCSJ","cs_wg_full_v4_conf_pilot4","3VHP9MDGRNLIOVJJ18VMHKF37TACFS","44","0","JULY","6","OCTOBER","9","1","1189",,,,,"1","2018-08-15 19:22:01","480"
"AMJOSPFPF8KLH","cs_wg_full_v4_conf_pilot4","32VNZTT0A75CWHBDZOPYFBHYI44R4P","35","0","MARCH","6","OCTOBER","10","0","1353",,,,,"1","2018-08-15 19:22:01","481"
"A3R21KIGJQ4A51","cs_wg_full_v4_conf_pilot4","3TVRFO09GKGSRL4AEFU7QA5X57KLX8","43","0","SEPTEMBER","7","MAY","12","1","2804",,,,,"1","2018-08-15 19:22:01","482"
"AA8PZKO9XGCKO","cs_wg_full_v4_conf_pilot4","3ND9UOO81K3D2LZK4AYLORRQW5ELWF","42","0","NOVEMBER","12","MARCH","1","0","1062",,,,,"1","2018-08-15 19:22:02","483"
"A3481D53L3VP7Y","cs_wg_full_v4_conf_pilot4","3YMU66OBIN9FJ3QUYKF5AWCVL0FGH4","26","0","FEBRUARY","8","JUNE","7","0","5797",,,,,"1","2018-08-15 19:22:02","484"
"A2EJ7U3TZAKROG","cs_wg_full_v4_conf_pilot4","3JRJSWSMQHM25HN4D40F6ZQ9PFIE3E","34","0","MAY","2","MARCH","5","1","3642",,,,,"1","2018-08-15 19:22:03","485"
"AJW3PL5UDH4BP","cs_wg_full_v4_conf_pilot4","3HHRAGRYX86AWAP9OR4L2ON9T9YO99","19","0","JANUARY","11","SEPTEMBER","10","0","3354",,,,,"1","2018-08-15 19:22:03","486"
"A2C509MUKR5CIJ","cs_wg_full_v4_conf_pilot4","3NS0A6KXC491AOQO46LCA3G0HQWZGD","2","0","JUNE","11","OCTOBER","12","1","6672",,,,,"1","2018-08-15 19:22:03","487"
"A2XNOJZEAY4WFJ","cs_wg_full_v4_conf_pilot4","3VAR3R6G1P2AI56ZJZY72SSY93GO8K","25","0","OCTOBER","7","MAY","3","0","1977",,,,,"1","2018-08-15 19:22:03","488"
"AD86UQ62HUAJN","cs_wg_full_v4_conf_pilot4","33L7PJKHCGZQVXB7FGK6W2YL8BXT8B","22","0","JULY","7","NOVEMBER","2","1","4410",,,,,"1","2018-08-15 19:22:03","489"
"A1FYWSPNO7KN1O","cs_wg_full_v4_conf_pilot4","3M68NM076H8QB4FRICIDC91CEVAR6A","27","0","SEPTEMBER","12","AUGUST","10","0","2304",,,,,"1","2018-08-15 19:22:03","490"
"A1XB671UQA34Q8","cs_wg_full_v4_conf_pilot4","358UUM7WRZ49F4TW1MN5IN1896UR79","38","0","AUGUST","9","MAY","4","0","2724",,,,,"1","2018-08-15 19:22:04","491"
"A1VPQJR2V850OM","cs_wg_full_v4_conf_pilot4","36AHBNMV1RDYTE6S6UILQB41Y4CDYQ","16","0","SEPTEMBER","6","JULY","7","1","3525",,,,,"1","2018-08-15 19:22:05","492"
"A1KQV9A4YITCSJ","cs_wg_full_v4_conf_pilot4","3VHP9MDGRNLIOVJJ18VMHKF37TACFS","45","0","OCTOBER","9","JUNE","8","0","1430",,,,,"1","2018-08-15 19:22:05","493"
"A1YXOL54W4KZ7M","cs_wg_full_v4_conf_pilot4","3S3AMIZX3U6LQB5NA20WTKCIVGUCDH","37","0","JANUARY","4","SEPTEMBER","12","0","353",,,,,"1","2018-08-15 19:22:05","494"
"A39T2QQJHCTJO3","cs_wg_full_v4_conf_pilot4","3VD82FOHKQPCU8WC0BEC4EOHZU1OCQ","13","0","JANUARY","5","DECEMBER","11","1","3643",,,,,"1","2018-08-15 19:22:06","495"
"A2XNOJZEAY4WFJ","cs_wg_full_v4_conf_pilot4","3VAR3R6G1P2AI56ZJZY72SSY93GO8K","26","0","JANUARY","5","MARCH","1","0","1727",,,,,"1","2018-08-15 19:22:07","496"
"A1FYWSPNO7KN1O","cs_wg_full_v4_conf_pilot4","3M68NM076H8QB4FRICIDC91CEVAR6A","28","0","FEBRUARY","2","DECEMBER","9","1","2296",,,,,"1","2018-08-15 19:22:08","497"
"AD86UQ62HUAJN","cs_wg_full_v4_conf_pilot4","33L7PJKHCGZQVXB7FGK6W2YL8BXT8B","23","0","DECEMBER","6","JUNE","9","1","2071",,,,,"1","2018-08-15 19:22:08","498"
"AMJOSPFPF8KLH","cs_wg_full_v4_conf_pilot4","32VNZTT0A75CWHBDZOPYFBHYI44R4P","36","0","FEBRUARY","7","DECEMBER","5","0","4122",,,,,"1","2018-08-15 19:22:08","499"
"A2C4Z939OAKJJP","cs_wg_full_v4_conf_pilot4","3P1L2B7AD1Q5XCQIDO7B7XE4T3FOL6","14","0","DECEMBER","4","JUNE","3","0","11548",,,,,"1","2018-08-15 19:22:08","500"
"A3QE6QMELJEI9J","cs_wg_full_v4_conf_pilot4","3OONKJ5DKCKTK346MBIHTUIZH91OBJ","11","0","JANUARY","5","MAY","3","0","1502",,,,,"0","2018-08-15 19:22:08","501"
"A1XB671UQA34Q8","cs_wg_full_v4_conf_pilot4","358UUM7WRZ49F4TW1MN5IN1896UR79","39","0","SEPTEMBER","3","MAY","4","1","2296",,,,,"1","2018-08-15 19:22:09","502"
"A2EJ7U3TZAKROG","cs_wg_full_v4_conf_pilot4","3JRJSWSMQHM25HN4D40F6ZQ9PFIE3E","35","0","JANUARY","7","FEBRUARY","3","0","3838",,,,,"1","2018-08-15 19:22:09","503"
"A1YXOL54W4KZ7M","cs_wg_full_v4_conf_pilot4","3S3AMIZX3U6LQB5NA20WTKCIVGUCDH","38","0","APRIL","10","JULY","9","1","365",,,,,"1","2018-08-15 19:22:09","504"
"A3481D53L3VP7Y","cs_wg_full_v4_conf_pilot4","3YMU66OBIN9FJ3QUYKF5AWCVL0FGH4","27","0","JUNE","7","NOVEMBER","5","0","4990",,,,,"1","2018-08-15 19:22:09","505"
"A3R21KIGJQ4A51","cs_wg_full_v4_conf_pilot4","3TVRFO09GKGSRL4AEFU7QA5X57KLX8","44","0","DECEMBER","11","FEBRUARY","1","0","4704",,,,,"1","2018-08-15 19:22:10","506"
"A2XNOJZEAY4WFJ","cs_wg_full_v4_conf_pilot4","3VAR3R6G1P2AI56ZJZY72SSY93GO8K","27","0","MARCH","1","JULY","11","1","1973",,,,,"1","2018-08-15 19:22:11","507"
"AMJOSPFPF8KLH","cs_wg_full_v4_conf_pilot4","32VNZTT0A75CWHBDZOPYFBHYI44R4P","37","0","MARCH","6","DECEMBER","5","1","1403",,,,,"1","2018-08-15 19:22:11","508"
"A1VPQJR2V850OM","cs_wg_full_v4_conf_pilot4","36AHBNMV1RDYTE6S6UILQB41Y4CDYQ","17","0","NOVEMBER","11","SEPTEMBER","6","0","4160",,,,,"1","2018-08-15 19:22:11","509"
"A1KQV9A4YITCSJ","cs_wg_full_v4_conf_pilot4","3VHP9MDGRNLIOVJJ18VMHKF37TACFS","46","0","JUNE","8","AUGUST","2","0","2929",,,,,"1","2018-08-15 19:22:11","510"
"A1FYWSPNO7KN1O","cs_wg_full_v4_conf_pilot4","3M68NM076H8QB4FRICIDC91CEVAR6A","29","0","JULY","3","JUNE","5","1","2270",,,,,"1","2018-08-15 19:22:12","511"
"A1YXOL54W4KZ7M","cs_wg_full_v4_conf_pilot4","3S3AMIZX3U6LQB5NA20WTKCIVGUCDH","39","0","JUNE","3","FEBRUARY","7","0","398",,,,,"1","2018-08-15 19:22:13","512"
"A1XB671UQA34Q8","cs_wg_full_v4_conf_pilot4","358UUM7WRZ49F4TW1MN5IN1896UR79","40","0","OCTOBER","10","AUGUST","9","0","2581",,,,,"1","2018-08-15 19:22:13","513"
"AD86UQ62HUAJN","cs_wg_full_v4_conf_pilot4","33L7PJKHCGZQVXB7FGK6W2YL8BXT8B","24","0","DECEMBER","6","JANUARY","3","0","3587",,,,,"1","2018-08-15 19:22:14","514"
"AMJOSPFPF8KLH","cs_wg_full_v4_conf_pilot4","32VNZTT0A75CWHBDZOPYFBHYI44R4P","38","0","JANUARY","12","SEPTEMBER","3","0","1187",,,,,"1","2018-08-15 19:22:14","515"
"A3QE6QMELJEI9J","cs_wg_full_v4_conf_pilot4","3OONKJ5DKCKTK346MBIHTUIZH91OBJ","12","0","APRIL","8","FEBRUARY","9","1","2513",,,,,"0","2018-08-15 19:22:15","516"
"A2EJ7U3TZAKROG","cs_wg_full_v4_conf_pilot4","3JRJSWSMQHM25HN4D40F6ZQ9PFIE3E","36","0","MARCH","5","JULY","4","0","3875",,,,,"1","2018-08-15 19:22:15","517"
"A3R21KIGJQ4A51","cs_wg_full_v4_conf_pilot4","3TVRFO09GKGSRL4AEFU7QA5X57KLX8","45","0","APRIL","2","NOVEMBER","9","1","3067",,,,,"1","2018-08-15 19:22:15","518"
"A2XNOJZEAY4WFJ","cs_wg_full_v4_conf_pilot4","3VAR3R6G1P2AI56ZJZY72SSY93GO8K","28","0","SEPTEMBER","12","JANUARY","5","0","3200",,,,,"1","2018-08-15 19:22:16","519"
"A1XB671UQA34Q8","cs_wg_full_v4_conf_pilot4","358UUM7WRZ49F4TW1MN5IN1896UR79","41","0","OCTOBER","10","MAY","4","0","1482",,,,,"1","2018-08-15 19:22:16","520"
"A1FYWSPNO7KN1O","cs_wg_full_v4_conf_pilot4","3M68NM076H8QB4FRICIDC91CEVAR6A","30","0","JULY","3","SEPTEMBER","12","1","2038",,,,,"1","2018-08-15 19:22:16","521"
"AJW3PL5UDH4BP","cs_wg_full_v4_conf_pilot4","3HHRAGRYX86AWAP9OR4L2ON9T9YO99","20","0","OCTOBER","4","JUNE","1","0","10552",,,,,"1","2018-08-15 19:22:16","522"
"A1KQV9A4YITCSJ","cs_wg_full_v4_conf_pilot4","3VHP9MDGRNLIOVJJ18VMHKF37TACFS","47","0","OCTOBER","9","MAY","3","0","2338",,,,,"1","2018-08-15 19:22:16","523"
"AMJOSPFPF8KLH","cs_wg_full_v4_conf_pilot4","32VNZTT0A75CWHBDZOPYFBHYI44R4P","39","0","SEPTEMBER","3","OCTOBER","10","0","1315",,,,,"1","2018-08-15 19:22:17","524"
"A1YXOL54W4KZ7M","cs_wg_full_v4_conf_pilot4","3S3AMIZX3U6LQB5NA20WTKCIVGUCDH","40","0","AUGUST","8","JUNE","3","1","367",,,,,"1","2018-08-15 19:22:17","525"
"AD86UQ62HUAJN","cs_wg_full_v4_conf_pilot4","33L7PJKHCGZQVXB7FGK6W2YL8BXT8B","25","0","AUGUST","11","MARCH","10","0","1549",,,,,"1","2018-08-15 19:22:18","526"
"AA8PZKO9XGCKO","cs_wg_full_v4_conf_pilot4","3ND9UOO81K3D2LZK4AYLORRQW5ELWF","43","0","MAY","11","JUNE","7","0","4985",,,,,"1","2018-08-15 19:22:19","527"
"A3481D53L3VP7Y","cs_wg_full_v4_conf_pilot4","3YMU66OBIN9FJ3QUYKF5AWCVL0FGH4","28","0","FEBRUARY","8","NOVEMBER","5","0","7361",,,,,"1","2018-08-15 19:22:19","528"
"A2XNOJZEAY4WFJ","cs_wg_full_v4_conf_pilot4","3VAR3R6G1P2AI56ZJZY72SSY93GO8K","29","0","DECEMBER","9","OCTOBER","7","0","1416",,,,,"1","2018-08-15 19:22:19","529"
"A1YXOL54W4KZ7M","cs_wg_full_v4_conf_pilot4","3S3AMIZX3U6LQB5NA20WTKCIVGUCDH","41","0","OCTOBER","11","MAY","5","0","651",,,,,"1","2018-08-15 19:22:19","530"
"A3QE6QMELJEI9J","cs_wg_full_v4_conf_pilot4","3OONKJ5DKCKTK346MBIHTUIZH91OBJ","13","0","AUGUST","11","JULY","1","0","2053",,,,,"0","2018-08-15 19:22:20","531"
"A2C509MUKR5CIJ","cs_wg_full_v4_conf_pilot4","3NS0A6KXC491AOQO46LCA3G0HQWZGD","3","0","SEPTEMBER","2","JUNE","11","1","13845",,,,,"1","2018-08-15 19:22:20","532"
"A1KQV9A4YITCSJ","cs_wg_full_v4_conf_pilot4","3VHP9MDGRNLIOVJJ18VMHKF37TACFS","48","0","APRIL","11","SEPTEMBER","1","0","1570",,,,,"1","2018-08-15 19:22:20","533"
"AMJOSPFPF8KLH","cs_wg_full_v4_conf_pilot4","32VNZTT0A75CWHBDZOPYFBHYI44R4P","40","0","JANUARY","12","FEBRUARY","7","0","749",,,,,"1","2018-08-15 19:22:20","534"
"A1FYWSPNO7KN1O","cs_wg_full_v4_conf_pilot4","3M68NM076H8QB4FRICIDC91CEVAR6A","31","0","MAY","8","JANUARY","7","0","2288",,,,,"1","2018-08-15 19:22:20","535"
"A1XB671UQA34Q8","cs_wg_full_v4_conf_pilot4","358UUM7WRZ49F4TW1MN5IN1896UR79","42","0","APRIL","2","SEPTEMBER","3","1","2405",,,,,"1","2018-08-15 19:22:20","536"
"A2EJ7U3TZAKROG","cs_wg_full_v4_conf_pilot4","3JRJSWSMQHM25HN4D40F6ZQ9PFIE3E","37","0","NOVEMBER","10","OCTOBER","6","0","3912",,,,,"1","2018-08-15 19:22:21","537"
"A3R21KIGJQ4A51","cs_wg_full_v4_conf_pilot4","3TVRFO09GKGSRL4AEFU7QA5X57KLX8","46","0","DECEMBER","11","OCTOBER","6","0","4356",,,,,"1","2018-08-15 19:22:21","538"
"A2XNOJZEAY4WFJ","cs_wg_full_v4_conf_pilot4","3VAR3R6G1P2AI56ZJZY72SSY93GO8K","30","0","DECEMBER","9","NOVEMBER","2","0","1582",,,,,"1","2018-08-15 19:22:22","539"
"AMJOSPFPF8KLH","cs_wg_full_v4_conf_pilot4","32VNZTT0A75CWHBDZOPYFBHYI44R4P","41","0","DECEMBER","5","AUGUST","4","0","987",,,,,"1","2018-08-15 19:22:23","540"
"AD86UQ62HUAJN","cs_wg_full_v4_conf_pilot4","33L7PJKHCGZQVXB7FGK6W2YL8BXT8B","26","0","DECEMBER","6","OCTOBER","8","1","2681",,,,,"1","2018-08-15 19:22:23","541"
"A1XB671UQA34Q8","cs_wg_full_v4_conf_pilot4","358UUM7WRZ49F4TW1MN5IN1896UR79","43","0","APRIL","2","MARCH","11","1","1483",,,,,"1","2018-08-15 19:22:23","542"
"AA8PZKO9XGCKO","cs_wg_full_v4_conf_pilot4","3ND9UOO81K3D2LZK4AYLORRQW5ELWF","44","0","FEBRUARY","2","JULY","9","1","2395",,,,,"1","2018-08-15 19:22:24","543"
"A6416P85A3C3E","cs_wg_full_v4_conf_pilot4","352YTHGROVEZ7NXA3JD417FSVV6H4I","0","0","MARCH","4","SEPTEMBER","3","1","13169",,,,,"0","2018-08-15 19:22:24","544"
"A1FYWSPNO7KN1O","cs_wg_full_v4_conf_pilot4","3M68NM076H8QB4FRICIDC91CEVAR6A","32","0","JUNE","5","OCTOBER","4","0","2355",,,,,"1","2018-08-15 19:22:25","545"
"A1YXOL54W4KZ7M","cs_wg_full_v4_conf_pilot4","3S3AMIZX3U6LQB5NA20WTKCIVGUCDH","42","0","MAY","5","JUNE","3","1","1117",,,,,"1","2018-08-15 19:22:25","546"
"A2C4Z939OAKJJP","cs_wg_full_v4_conf_pilot4","3P1L2B7AD1Q5XCQIDO7B7XE4T3FOL6","15","0","APRIL","12","JULY","7","0","14213",,,,,"1","2018-08-15 19:22:25","547"
"A3R21KIGJQ4A51","cs_wg_full_v4_conf_pilot4","3TVRFO09GKGSRL4AEFU7QA5X57KLX8","47","0","AUGUST","5","JANUARY","10","1","2005",,,,,"1","2018-08-15 19:22:25","548"
"A2XNOJZEAY4WFJ","cs_wg_full_v4_conf_pilot4","3VAR3R6G1P2AI56ZJZY72SSY93GO8K","31","0","MAY","3","AUGUST","8","1","1967",,,,,"1","2018-08-15 19:22:26","549"
"A1KQV9A4YITCSJ","cs_wg_full_v4_conf_pilot4","3VHP9MDGRNLIOVJJ18VMHKF37TACFS","49","0","NOVEMBER","5","DECEMBER","10","0","3469",,,,,"1","2018-08-15 19:22:26","550"
"A2DHKTD1GSBXR2","cs_wg_full_v4_conf_pilot4","3OHYZ19UGC6O1TZEGXILYJYTZRGOAO","16","0","NOVEMBER","1","OCTOBER","4","1","85147",,,,,"1","2018-08-15 19:22:26","551"
"A3QE6QMELJEI9J","cs_wg_full_v4_conf_pilot4","3OONKJ5DKCKTK346MBIHTUIZH91OBJ","14","0","NOVEMBER","6","JULY","1","0","2516",,,,,"0","2018-08-15 19:22:26","552"
"AJW3PL5UDH4BP","cs_wg_full_v4_conf_pilot4","3HHRAGRYX86AWAP9OR4L2ON9T9YO99","21","0","NOVEMBER","7","FEBRUARY","9","1","8097",,,,,"1","2018-08-15 19:22:26","553"
"A2EJ7U3TZAKROG","cs_wg_full_v4_conf_pilot4","3JRJSWSMQHM25HN4D40F6ZQ9PFIE3E","38","0","JULY","4","OCTOBER","6","1","3735",,,,,"1","2018-08-15 19:22:26","554"
"A1YXOL54W4KZ7M","cs_wg_full_v4_conf_pilot4","3S3AMIZX3U6LQB5NA20WTKCIVGUCDH","43","0","FEBRUARY","7","APRIL","10","0","574",,,,,"1","2018-08-15 19:22:27","555"
"AMJOSPFPF8KLH","cs_wg_full_v4_conf_pilot4","32VNZTT0A75CWHBDZOPYFBHYI44R4P","42","0","JUNE","2","JULY","8","1","1865",,,,,"1","2018-08-15 19:22:27","556"
"A1XB671UQA34Q8","cs_wg_full_v4_conf_pilot4","358UUM7WRZ49F4TW1MN5IN1896UR79","44","0","JANUARY","12","JUNE","8","0","1977",,,,,"1","2018-08-15 19:22:27","557"
"AD86UQ62HUAJN","cs_wg_full_v4_conf_pilot4","33L7PJKHCGZQVXB7FGK6W2YL8BXT8B","27","0","DECEMBER","6","AUGUST","11","1","2109",,,,,"1","2018-08-15 19:22:27","558"
"A3R21KIGJQ4A51","cs_wg_full_v4_conf_pilot4","3TVRFO09GKGSRL4AEFU7QA5X57KLX8","48","0","MARCH","8","JUNE","4","0","2284",,,,,"1","2018-08-15 19:22:29","559"
"A1YXOL54W4KZ7M","cs_wg_full_v4_conf_pilot4","3S3AMIZX3U6LQB5NA20WTKCIVGUCDH","44","0","MARCH","6","FEBRUARY","7","1","444",,,,,"1","2018-08-15 19:22:29","560"
"A2XNOJZEAY4WFJ","cs_wg_full_v4_conf_pilot4","3VAR3R6G1P2AI56ZJZY72SSY93GO8K","32","0","JANUARY","5","APRIL","4","0","1890",,,,,"1","2018-08-15 19:22:29","561"
"AMJOSPFPF8KLH","cs_wg_full_v4_conf_pilot4","32VNZTT0A75CWHBDZOPYFBHYI44R4P","43","0","JULY","8","JUNE","2","0","1490",,,,,"1","2018-08-15 19:22:30","562"
"A1KQV9A4YITCSJ","cs_wg_full_v4_conf_pilot4","3VHP9MDGRNLIOVJJ18VMHKF37TACFS","50","0","SEPTEMBER","1","DECEMBER","10","1","1347",,,,,"1","2018-08-15 19:22:30","563"
"A1FYWSPNO7KN1O","cs_wg_full_v4_conf_pilot4","3M68NM076H8QB4FRICIDC91CEVAR6A","33","0","JUNE","5","MARCH","11","1","3691",,,,,"1","2018-08-15 19:22:30","564"
"A1VPQJR2V850OM","cs_wg_full_v4_conf_pilot4","36AHBNMV1RDYTE6S6UILQB41Y4CDYQ","18","0","OCTOBER","9","JANUARY","8","0","16771",,,,,"1","2018-08-15 19:22:31","565"
"A1XB671UQA34Q8","cs_wg_full_v4_conf_pilot4","358UUM7WRZ49F4TW1MN5IN1896UR79","45","0","MARCH","11","JULY","7","0","1967",,,,,"1","2018-08-15 19:22:31","566"
"AA8PZKO9XGCKO","cs_wg_full_v4_conf_pilot4","3ND9UOO81K3D2LZK4AYLORRQW5ELWF","45","0","JUNE","7","SEPTEMBER","4","1","4340",,,,,"1","2018-08-15 19:22:31","567"
"A1YXOL54W4KZ7M","cs_wg_full_v4_conf_pilot4","3S3AMIZX3U6LQB5NA20WTKCIVGUCDH","45","0","NOVEMBER","1","JULY","9","0","788",,,,,"1","2018-08-15 19:22:31","568"
"A3481D53L3VP7Y","cs_wg_full_v4_conf_pilot4","3YMU66OBIN9FJ3QUYKF5AWCVL0FGH4","29","0","JANUARY","10","MAY","12","0","2371",,,,,"1","2018-08-15 19:22:32","569"
"AD86UQ62HUAJN","cs_wg_full_v4_conf_pilot4","33L7PJKHCGZQVXB7FGK6W2YL8BXT8B","28","0","MARCH","10","DECEMBER","6","0","2665",,,,,"1","2018-08-15 19:22:32","570"
"A2EJ7U3TZAKROG","cs_wg_full_v4_conf_pilot4","3JRJSWSMQHM25HN4D40F6ZQ9PFIE3E","39","0","MARCH","5","APRIL","1","0","3610",,,,,"1","2018-08-15 19:22:32","571"
"A3QE6QMELJEI9J","cs_wg_full_v4_conf_pilot4","3OONKJ5DKCKTK346MBIHTUIZH91OBJ","15","0","JULY","1","JUNE","4","1","2957",,,,,"0","2018-08-15 19:22:32","572"
"A6416P85A3C3E","cs_wg_full_v4_conf_pilot4","352YTHGROVEZ7NXA3JD417FSVV6H4I","1","0","NOVEMBER","7","SEPTEMBER","3","0","3615",,,,,"0","2018-08-15 19:22:32","573"
"A2XNOJZEAY4WFJ","cs_wg_full_v4_conf_pilot4","3VAR3R6G1P2AI56ZJZY72SSY93GO8K","33","0","MARCH","1","JUNE","10","1","1682",,,,,"1","2018-08-15 19:22:33","574"
"A2C509MUKR5CIJ","cs_wg_full_v4_conf_pilot4","3NS0A6KXC491AOQO46LCA3G0HQWZGD","4","0","JULY","6","JANUARY","4","0","10188",,,,,"1","2018-08-15 19:22:33","575"
"A1XB671UQA34Q8","cs_wg_full_v4_conf_pilot4","358UUM7WRZ49F4TW1MN5IN1896UR79","46","0","JANUARY","12","JULY","7","0","1057",,,,,"1","2018-08-15 19:22:33","576"
"AMJOSPFPF8KLH","cs_wg_full_v4_conf_pilot4","32VNZTT0A75CWHBDZOPYFBHYI44R4P","44","0","JULY","8","FEBRUARY","7","1","1381",,,,,"1","2018-08-15 19:22:34","577"
"AJW3PL5UDH4BP","cs_wg_full_v4_conf_pilot4","3HHRAGRYX86AWAP9OR4L2ON9T9YO99","22","0","OCTOBER","4","MAY","12","1","6010",,,,,"1","2018-08-15 19:22:34","578"
"A1YXOL54W4KZ7M","cs_wg_full_v4_conf_pilot4","3S3AMIZX3U6LQB5NA20WTKCIVGUCDH","46","0","NOVEMBER","1","JANUARY","4","1","926",,,,,"1","2018-08-15 19:22:34","579"
"A1KQV9A4YITCSJ","cs_wg_full_v4_conf_pilot4","3VHP9MDGRNLIOVJJ18VMHKF37TACFS","51","0","APRIL","11","MAY","3","0","2606",,,,,"1","2018-08-15 19:22:35","580"
"A3R21KIGJQ4A51","cs_wg_full_v4_conf_pilot4","3TVRFO09GKGSRL4AEFU7QA5X57KLX8","49","0","SEPTEMBER","7","OCTOBER","6","1","4646",,,,,"1","2018-08-15 19:22:36","581"
"A1FYWSPNO7KN1O","cs_wg_full_v4_conf_pilot4","3M68NM076H8QB4FRICIDC91CEVAR6A","34","0","JUNE","5","DECEMBER","9","1","3743",,,,,"1","2018-08-15 19:22:36","582"
"AD86UQ62HUAJN","cs_wg_full_v4_conf_pilot4","33L7PJKHCGZQVXB7FGK6W2YL8BXT8B","29","0","MARCH","10","SEPTEMBER","5","0","1743",,,,,"1","2018-08-15 19:22:36","583"
"A1YXOL54W4KZ7M","cs_wg_full_v4_conf_pilot4","3S3AMIZX3U6LQB5NA20WTKCIVGUCDH","47","0","AUGUST","8","JANUARY","4","0","502",,,,,"1","2018-08-15 19:22:36","584"
"A6416P85A3C3E","cs_wg_full_v4_conf_pilot4","352YTHGROVEZ7NXA3JD417FSVV6H4I","2","0","FEBRUARY","1","SEPTEMBER","3","1","2001",,,,,"0","2018-08-15 19:22:36","585"
"AA8PZKO9XGCKO","cs_wg_full_v4_conf_pilot4","3ND9UOO81K3D2LZK4AYLORRQW5ELWF","46","0","APRIL","6","FEBRUARY","2","0","2769",,,,,"1","2018-08-15 19:22:36","586"
"A2XNOJZEAY4WFJ","cs_wg_full_v4_conf_pilot4","3VAR3R6G1P2AI56ZJZY72SSY93GO8K","34","0","SEPTEMBER","12","MARCH","1","0","1817",,,,,"1","2018-08-15 19:22:37","587"
"A1XB671UQA34Q8","cs_wg_full_v4_conf_pilot4","358UUM7WRZ49F4TW1MN5IN1896UR79","47","0","OCTOBER","10","JANUARY","12","0","903",,,,,"1","2018-08-15 19:22:37","588"
"A39T2QQJHCTJO3","cs_wg_full_v4_conf_pilot4","3VD82FOHKQPCU8WC0BEC4EOHZU1OCQ","14","0","JANUARY","5","AUGUST","12","1","28146",,,,,"1","2018-08-15 19:22:37","589"
"A1VPQJR2V850OM","cs_wg_full_v4_conf_pilot4","36AHBNMV1RDYTE6S6UILQB41Y4CDYQ","19","0","JUNE","10","SEPTEMBER","6","0","4525",,,,,"1","2018-08-15 19:22:37","590"
"A3QE6QMELJEI9J","cs_wg_full_v4_conf_pilot4","3OONKJ5DKCKTK346MBIHTUIZH91OBJ","16","0","MARCH","7","DECEMBER","2","1","2728",,,,,"0","2018-08-15 19:22:38","591"
"A2EJ7U3TZAKROG","cs_wg_full_v4_conf_pilot4","3JRJSWSMQHM25HN4D40F6ZQ9PFIE3E","40","0","JANUARY","7","JUNE","9","1","4077",,,,,"1","2018-08-15 19:22:38","592"
"A3R21KIGJQ4A51","cs_wg_full_v4_conf_pilot4","3TVRFO09GKGSRL4AEFU7QA5X57KLX8","50","0","SEPTEMBER","7","JULY","3","0","1336",,,,,"1","2018-08-15 19:22:39","593"
"A1YXOL54W4KZ7M","cs_wg_full_v4_conf_pilot4","3S3AMIZX3U6LQB5NA20WTKCIVGUCDH","48","0","SEPTEMBER","12","JANUARY","4","1","624",,,,,"1","2018-08-15 19:22:39","594"
"A1XB671UQA34Q8","cs_wg_full_v4_conf_pilot4","358UUM7WRZ49F4TW1MN5IN1896UR79","48","0","JANUARY","12","AUGUST","9","0","1012",,,,,"1","2018-08-15 19:22:40","595"
"A1FYWSPNO7KN1O","cs_wg_full_v4_conf_pilot4","3M68NM076H8QB4FRICIDC91CEVAR6A","35","0","APRIL","1","JANUARY","7","1","1952",,,,,"1","2018-08-15 19:22:40","596"
"A2C4Z939OAKJJP","cs_wg_full_v4_conf_pilot4","3P1L2B7AD1Q5XCQIDO7B7XE4T3FOL6","16","0","OCTOBER","6","NOVEMBER","8","1","9302",,,,,"1","2018-08-15 19:22:40","597"
"A6416P85A3C3E","cs_wg_full_v4_conf_pilot4","352YTHGROVEZ7NXA3JD417FSVV6H4I","3","0","JUNE","6","FEBRUARY","1","0","1529",,,,,"0","2018-08-15 19:22:40","598"
"AMJOSPFPF8KLH","cs_wg_full_v4_conf_pilot4","32VNZTT0A75CWHBDZOPYFBHYI44R4P","45","0","DECEMBER","5","MARCH","6","0","1691",,,,,"1","2018-08-15 19:22:41","599"
"A1YXOL54W4KZ7M","cs_wg_full_v4_conf_pilot4","3S3AMIZX3U6LQB5NA20WTKCIVGUCDH","49","0","MARCH","6","SEPTEMBER","12","0","473",,,,,"1","2018-08-15 19:22:41","600"
"AD86UQ62HUAJN","cs_wg_full_v4_conf_pilot4","33L7PJKHCGZQVXB7FGK6W2YL8BXT8B","30","0","MARCH","10","JUNE","9","0","2955",,,,,"1","2018-08-15 19:22:41","601"
"A1KQV9A4YITCSJ","cs_wg_full_v4_conf_pilot4","3VHP9MDGRNLIOVJJ18VMHKF37TACFS","52","0","DECEMBER","10","APRIL","11","1","3541",,,,,"1","2018-08-15 19:22:41","602"
"A2XNOJZEAY4WFJ","cs_wg_full_v4_conf_pilot4","3VAR3R6G1P2AI56ZJZY72SSY93GO8K","35","0","NOVEMBER","2","DECEMBER","9","1","2448",,,,,"1","2018-08-15 19:22:41","603"
"A2DHKTD1GSBXR2","cs_wg_full_v4_conf_pilot4","3OHYZ19UGC6O1TZEGXILYJYTZRGOAO","17","0","APRIL","10","JULY","7","0","12352",,,,,"1","2018-08-15 19:22:41","604"
"AA8PZKO9XGCKO","cs_wg_full_v4_conf_pilot4","3ND9UOO81K3D2LZK4AYLORRQW5ELWF","47","0","DECEMBER","8","MAY","11","1","2842",,,,,"1","2018-08-15 19:22:41","605"
"A3481D53L3VP7Y","cs_wg_full_v4_conf_pilot4","3YMU66OBIN9FJ3QUYKF5AWCVL0FGH4","30","0","FEBRUARY","8","JULY","11","1","7241",,,,,"1","2018-08-15 19:22:42","606"
"A3QE6QMELJEI9J","cs_wg_full_v4_conf_pilot4","3OONKJ5DKCKTK346MBIHTUIZH91OBJ","17","0","FEBRUARY","9","SEPTEMBER","10","0","1919",,,,,"0","2018-08-15 19:22:42","607"
"A39T2QQJHCTJO3","cs_wg_full_v4_conf_pilot4","3VD82FOHKQPCU8WC0BEC4EOHZU1OCQ","15","0","SEPTEMBER","9","JANUARY","5","0","3280",,,,,"1","2018-08-15 19:22:43","608"
"A1YXOL54W4KZ7M","cs_wg_full_v4_conf_pilot4","3S3AMIZX3U6LQB5NA20WTKCIVGUCDH","50","0","JUNE","3","SEPTEMBER","12","1","400",,,,,"1","2018-08-15 19:22:43","609"
"A3R21KIGJQ4A51","cs_wg_full_v4_conf_pilot4","3TVRFO09GKGSRL4AEFU7QA5X57KLX8","51","0","NOVEMBER","9","MAY","12","1","2994",,,,,"1","2018-08-15 19:22:43","610"
"A1VPQJR2V850OM","cs_wg_full_v4_conf_pilot4","36AHBNMV1RDYTE6S6UILQB41Y4CDYQ","20","0","NOVEMBER","11","MARCH","3","0","2665",,,,,"1","2018-08-15 19:22:43","611"
"A1XB671UQA34Q8","cs_wg_full_v4_conf_pilot4","358UUM7WRZ49F4TW1MN5IN1896UR79","49","0","NOVEMBER","5","JUNE","8","1","1932",,,,,"1","2018-08-15 19:22:43","612"
"A1FYWSPNO7KN1O","cs_wg_full_v4_conf_pilot4","3M68NM076H8QB4FRICIDC91CEVAR6A","36","0","JUNE","5","APRIL","1","0","1283",,,,,"1","2018-08-15 19:22:43","613"
"A2XNOJZEAY4WFJ","cs_wg_full_v4_conf_pilot4","3VAR3R6G1P2AI56ZJZY72SSY93GO8K","36","0","JANUARY","5","AUGUST","8","1","1703",,,,,"1","2018-08-15 19:22:44","614"
"AMJOSPFPF8KLH","cs_wg_full_v4_conf_pilot4","32VNZTT0A75CWHBDZOPYFBHYI44R4P","46","0","FEBRUARY","7","NOVEMBER","1","0","1703",,,,,"1","2018-08-15 19:22:44","615"
"A1YXOL54W4KZ7M","cs_wg_full_v4_conf_pilot4","3S3AMIZX3U6LQB5NA20WTKCIVGUCDH","51","0","APRIL","10","NOVEMBER","1","1","409",,,,,"1","2018-08-15 19:22:45","616"
"A2EJ7U3TZAKROG","cs_wg_full_v4_conf_pilot4","3JRJSWSMQHM25HN4D40F6ZQ9PFIE3E","41","0","JULY","4","AUGUST","11","1","3915",,,,,"1","2018-08-15 19:22:45","617"
"AD86UQ62HUAJN","cs_wg_full_v4_conf_pilot4","33L7PJKHCGZQVXB7FGK6W2YL8BXT8B","31","0","APRIL","4","AUGUST","11","1","3205",,,,,"1","2018-08-15 19:22:46","618"
"A1XB671UQA34Q8","cs_wg_full_v4_conf_pilot4","358UUM7WRZ49F4TW1MN5IN1896UR79","50","0","JUNE","8","JANUARY","12","1","1292",,,,,"1","2018-08-15 19:22:46","619"
"A3R21KIGJQ4A51","cs_wg_full_v4_conf_pilot4","3TVRFO09GKGSRL4AEFU7QA5X57KLX8","52","0","JUNE","4","FEBRUARY","1","0","1851",,,,,"1","2018-08-15 19:22:47","620"
"A1VPQJR2V850OM","cs_wg_full_v4_conf_pilot4","36AHBNMV1RDYTE6S6UILQB41Y4CDYQ","21","0","SEPTEMBER","6","AUGUST","4","0","1881",,,,,"1","2018-08-15 19:22:47","621"
"A1YXOL54W4KZ7M","cs_wg_full_v4_conf_pilot4","3S3AMIZX3U6LQB5NA20WTKCIVGUCDH","52","0","OCTOBER","11","JANUARY","4","0","375",,,,,"1","2018-08-15 19:22:47","622"
"A1FYWSPNO7KN1O","cs_wg_full_v4_conf_pilot4","3M68NM076H8QB4FRICIDC91CEVAR6A","37","0","OCTOBER","4","MAY","8","1","2401",,,,,"1","2018-08-15 19:22:48","623"
"A3QE6QMELJEI9J","cs_wg_full_v4_conf_pilot4","3OONKJ5DKCKTK346MBIHTUIZH91OBJ","18","0","JULY","1","JANUARY","5","1","2355",,,,,"0","2018-08-15 19:22:48","624"
"AMJOSPFPF8KLH","cs_wg_full_v4_conf_pilot4","32VNZTT0A75CWHBDZOPYFBHYI44R4P","47","0","SEPTEMBER","3","MAY","9","0","1836",,,,,"1","2018-08-15 19:22:48","625"
"A2XNOJZEAY4WFJ","cs_wg_full_v4_conf_pilot4","3VAR3R6G1P2AI56ZJZY72SSY93GO8K","37","0","DECEMBER","9","AUGUST","8","0","1744",,,,,"1","2018-08-15 19:22:48","626"
"A6416P85A3C3E","cs_wg_full_v4_conf_pilot4","352YTHGROVEZ7NXA3JD417FSVV6H4I","4","0","DECEMBER","5","JUNE","6","0","4123",,,,,"0","2018-08-15 19:22:49","627"
"A1YXOL54W4KZ7M","cs_wg_full_v4_conf_pilot4","3S3AMIZX3U6LQB5NA20WTKCIVGUCDH","53","0","AUGUST","8","NOVEMBER","1","1","868",,,,,"1","2018-08-15 19:22:49","628"
"AA8PZKO9XGCKO","cs_wg_full_v4_conf_pilot4","3ND9UOO81K3D2LZK4AYLORRQW5ELWF","48","0","FEBRUARY","2","OCTOBER","5","1","4648",,,,,"1","2018-08-15 19:22:49","629"
"A3481D53L3VP7Y","cs_wg_full_v4_conf_pilot4","3YMU66OBIN9FJ3QUYKF5AWCVL0FGH4","31","0","OCTOBER","2","APRIL","3","1","5179",,,,,"1","2018-08-15 19:22:49","630"
"A1XB671UQA34Q8","cs_wg_full_v4_conf_pilot4","358UUM7WRZ49F4TW1MN5IN1896UR79","51","0","SEPTEMBER","3","OCTOBER","10","1","1405",,,,,"1","2018-08-15 19:22:50","631"
