"subject","version","assignmentId","trial","trial_type","word","value","alt","choice","rt","resp","resp2","stamp","id"
"A2HSCKH5NKN5LP","cs_wg_v9_pilot3","392CY0QWG1SZ3I8U91VP1JG6H5NI4S","0","0","COMMUNITY","10","5","0","2599","Community","10","2018-01-10 17:01:20","150141"
"A2HSCKH5NKN5LP","cs_wg_v9_pilot3","392CY0QWG1SZ3I8U91VP1JG6H5NI4S","1","0","LADDER","10","5","0","1561","Ladder","10","2018-01-10 17:01:30","150142"
"AIZEEJUMWJ0WX","cs_wg_v9_pilot3","3TU5ZICBRD2D3HJFYCQBRXNXA108QS","0","0","STOMACH","1","5","1","3460","stomach","1","2018-01-10 17:01:31","150143"
"AIUKV0KVALMY6","cs_wg_v9_pilot3","3EJJQNKU9R668TZ8EV9H90Q196SHRH","0","0","DOORWAY","0","5","0","5348","doorway","0","2018-01-10 17:01:35","150144"
"AOB6ZJTDB416G","cs_wg_v9_pilot3","3634BBTX0OV91Y5JTIR8SNDX6VWFID","0","0","STRUCTURE","1","5","0","4146","structure","1","2018-01-10 17:01:37","150145"
"A2HSCKH5NKN5LP","cs_wg_v9_pilot3","392CY0QWG1SZ3I8U91VP1JG6H5NI4S","2","0","DOORWAY","0","5","0","1927","Doorway","0","2018-01-10 17:01:40","150146"
"AIZEEJUMWJ0WX","cs_wg_v9_pilot3","3TU5ZICBRD2D3HJFYCQBRXNXA108QS","1","0","DOORWAY","9","5","1","2466","doorway","9","2018-01-10 17:01:45","150147"
"AIUKV0KVALMY6","cs_wg_v9_pilot3","3EJJQNKU9R668TZ8EV9H90Q196SHRH","1","0","KEYBOARD","1","5","0","2376","keyboard","1","2018-01-10 17:01:46","150148"
"A3P0P0DRSOX52W","cs_wg_v9_pilot3","3X08E93BHVJXPLH7QOFF1EAF45Y667","0","0","BOOKSHELF","0","5","1","3112","Bookshelf","Bookshelf","2018-01-10 17:01:49","150149"
"A2HSCKH5NKN5LP","cs_wg_v9_pilot3","392CY0QWG1SZ3I8U91VP1JG6H5NI4S","3","0","UMBRELLA","10","5","0","1929","Umbrella","10","2018-01-10 17:01:50","150150"
"AOB6ZJTDB416G","cs_wg_v9_pilot3","3634BBTX0OV91Y5JTIR8SNDX6VWFID","1","0","UMBRELLA","1","5","1","2143","umbrella","1","2018-01-10 17:01:51","150151"
"A29RJVVL54THB5","cs_wg_v9_pilot3","3SB4CE2TJVWBV2D6HO5HHWPLXSNAXV","0","0","HELICOPTER","0","5","1","5712","helicopter","0","2018-01-10 17:01:51","150152"
"A3GE84T9AR3YS9","cs_wg_v9_pilot3","3EKVH9QMEY58STDLD9BQH73V5MJD2P","0","0","FOOTBALL","10","5","0","5551","football","10","2018-01-10 17:01:57","150153"
"AIUKV0KVALMY6","cs_wg_v9_pilot3","3EJJQNKU9R668TZ8EV9H90Q196SHRH","2","0","COMMUNITY","10","5","0","3215","community","10","2018-01-10 17:01:59","150154"
"A2HSCKH5NKN5LP","cs_wg_v9_pilot3","392CY0QWG1SZ3I8U91VP1JG6H5NI4S","4","0","BOOKSHELF","0","5","1","1738","Bookshelf","0","2018-01-10 17:02:00","150155"
"AIZEEJUMWJ0WX","cs_wg_v9_pilot3","3TU5ZICBRD2D3HJFYCQBRXNXA108QS","2","0","DOORWAY","9","5","0","7749","doorway","9","2018-01-10 17:02:03","150156"
"A29RJVVL54THB5","cs_wg_v9_pilot3","3SB4CE2TJVWBV2D6HO5HHWPLXSNAXV","1","0","LADDER","1","5","1","2352","ladder","1","2018-01-10 17:02:03","150157"
"AOB6ZJTDB416G","cs_wg_v9_pilot3","3634BBTX0OV91Y5JTIR8SNDX6VWFID","2","0","STOMACH","1","5","1","3159","stomach","1","2018-01-10 17:02:04","150158"
"A2HSCKH5NKN5LP","cs_wg_v9_pilot3","392CY0QWG1SZ3I8U91VP1JG6H5NI4S","5","0","STOMACH","9","5","0","1537","Stomach","9","2018-01-10 17:02:08","150159"
"A3GE84T9AR3YS9","cs_wg_v9_pilot3","3EKVH9QMEY58STDLD9BQH73V5MJD2P","1","0","KEYBOARD","0","5","0","2631","keyboard","0","2018-01-10 17:02:09","150160"
"AOB6ZJTDB416G","cs_wg_v9_pilot3","3634BBTX0OV91Y5JTIR8SNDX6VWFID","3","0","STOMACH","1","5","1","2562","stomach","1","2018-01-10 17:02:16","150161"
"A2HSCKH5NKN5LP","cs_wg_v9_pilot3","392CY0QWG1SZ3I8U91VP1JG6H5NI4S","6","0","LADDER","10","5","0","1857","Ladder","10","2018-01-10 17:02:16","150162"
"AIUKV0KVALMY6","cs_wg_v9_pilot3","3EJJQNKU9R668TZ8EV9H90Q196SHRH","3","0","UMBRELLA","10","5","1","2803","umbrella","5","2018-01-10 17:02:16","150163"
"A29RJVVL54THB5","cs_wg_v9_pilot3","3SB4CE2TJVWBV2D6HO5HHWPLXSNAXV","2","0","HELICOPTER","0","5","1","1864","helicopter","0","2018-01-10 17:02:17","150164"
"AIZEEJUMWJ0WX","cs_wg_v9_pilot3","3TU5ZICBRD2D3HJFYCQBRXNXA108QS","3","0","TRAFFIC","10","5","1","3851","traffic","10","2018-01-10 17:02:17","150165"
"A3P0P0DRSOX52W","cs_wg_v9_pilot3","3X08E93BHVJXPLH7QOFF1EAF45Y667","1","0","DOORWAY","10","5","0","11228","doorway","10","2018-01-10 17:02:18","150166"
"A3GE84T9AR3YS9","cs_wg_v9_pilot3","3EKVH9QMEY58STDLD9BQH73V5MJD2P","2","0","FOOTBALL","10","5","0","3021","football","10","2018-01-10 17:02:20","150167"
"A2HSCKH5NKN5LP","cs_wg_v9_pilot3","392CY0QWG1SZ3I8U91VP1JG6H5NI4S","7","0","STOMACH","9","5","0","1217","Stomach","9","2018-01-10 17:02:22","150168"
"AOB6ZJTDB416G","cs_wg_v9_pilot3","3634BBTX0OV91Y5JTIR8SNDX6VWFID","4","0","STOMACH","1","5","1","1702","stomach","1","2018-01-10 17:02:25","150169"
"A29RJVVL54THB5","cs_wg_v9_pilot3","3SB4CE2TJVWBV2D6HO5HHWPLXSNAXV","3","0","LADDER","1","5","1","1583","ladder","1","2018-01-10 17:02:26","150170"
"AIZEEJUMWJ0WX","cs_wg_v9_pilot3","3TU5ZICBRD2D3HJFYCQBRXNXA108QS","4","0","BASKET","10","5","1","1902","basket","10","2018-01-10 17:02:29","150171"
"A3GE84T9AR3YS9","cs_wg_v9_pilot3","3EKVH9QMEY58STDLD9BQH73V5MJD2P","3","0","FOOTBALL","10","5","0","1382","football","10","2018-01-10 17:02:29","150172"
"AIUKV0KVALMY6","cs_wg_v9_pilot3","3EJJQNKU9R668TZ8EV9H90Q196SHRH","4","0","HELICOPTER","9","5","0","2513","helicopter","9","2018-01-10 17:02:29","150173"
"A2MQMMCVZJTFL2","cs_wg_v9_pilot3","3QL2OFSM96JUCNW0ZWEZPPOBVHYNCQ","0","0","WEDDING","1","5","1","3883","WEDDING","1","2018-01-10 17:02:30","150174"
"A2HSCKH5NKN5LP","cs_wg_v9_pilot3","392CY0QWG1SZ3I8U91VP1JG6H5NI4S","8","0","COMMUNITY","10","5","0","1434","Community","10","2018-01-10 17:02:30","150175"
"A1F1A2FXG1I6ZY","cs_wg_v9_pilot3","3JPSL1DZ5S06J8Z2FII8JUYNVEDNAO","0","0","DOORWAY","1","5","0","7452","doorway","1","2018-01-10 17:02:31","150176"
"A29RJVVL54THB5","cs_wg_v9_pilot3","3SB4CE2TJVWBV2D6HO5HHWPLXSNAXV","4","0","UMBRELLA","1","5","1","2340","umbrella","1","2018-01-10 17:02:37","150177"
"AOB6ZJTDB416G","cs_wg_v9_pilot3","3634BBTX0OV91Y5JTIR8SNDX6VWFID","5","0","STRUCTURE","1","5","1","2468","structure","1","2018-01-10 17:02:38","150178"
"A2HSCKH5NKN5LP","cs_wg_v9_pilot3","392CY0QWG1SZ3I8U91VP1JG6H5NI4S","9","0","COMMUNITY","10","5","0","2671","Community","10","2018-01-10 17:02:40","150179"
"AIZEEJUMWJ0WX","cs_wg_v9_pilot3","3TU5ZICBRD2D3HJFYCQBRXNXA108QS","5","0","TRAFFIC","10","5","0","1992","traffic","10","2018-01-10 17:02:41","150180"
"AIUKV0KVALMY6","cs_wg_v9_pilot3","3EJJQNKU9R668TZ8EV9H90Q196SHRH","5","0","UMBRELLA","10","5","1","2884","umbrella","10","2018-01-10 17:02:42","150181"
"A2MQMMCVZJTFL2","cs_wg_v9_pilot3","3QL2OFSM96JUCNW0ZWEZPPOBVHYNCQ","1","0","STOMACH","10","5","1","5736","STOMACH","10","2018-01-10 17:02:43","150182"
"A3GE84T9AR3YS9","cs_wg_v9_pilot3","3EKVH9QMEY58STDLD9BQH73V5MJD2P","4","0","HELICOPTER","0","5","1","4522","helicoptor","0","2018-01-10 17:02:45","150183"
"A1F1A2FXG1I6ZY","cs_wg_v9_pilot3","3JPSL1DZ5S06J8Z2FII8JUYNVEDNAO","1","0","BOOKSHELF","0","5","0","3185","bookshelf","0","2018-01-10 17:02:46","150184"
"AOB6ZJTDB416G","cs_wg_v9_pilot3","3634BBTX0OV91Y5JTIR8SNDX6VWFID","6","0","STOMACH","1","5","1","1588","stomach","1","2018-01-10 17:02:47","150185"
"A29RJVVL54THB5","cs_wg_v9_pilot3","3SB4CE2TJVWBV2D6HO5HHWPLXSNAXV","5","0","TRAFFIC","10","5","1","1499","traffic","10","2018-01-10 17:02:48","150186"
"A2HA52MJN7CTLM","cs_wg_v9_pilot3","3IKZ72A5B4H1FZGAQY40XV9ESUQFNT","0","0","MACHINE","10","5","0","3561","Machine","10","2018-01-10 17:02:48","150187"
"A2HSCKH5NKN5LP","cs_wg_v9_pilot3","392CY0QWG1SZ3I8U91VP1JG6H5NI4S","10","0","WEDDING","0","5","0","2123","Wedding","0","2018-01-10 17:02:50","150188"
"A3P0P0DRSOX52W","cs_wg_v9_pilot3","3X08E93BHVJXPLH7QOFF1EAF45Y667","2","0","MACHINE","0","5","1","2729","machine","0","2018-01-10 17:02:52","150189"
"A3K43RI91Y567E","cs_wg_v9_pilot3","32ZKVD547FO4YEBK3DYP5RKN8F73BJ","0","0","TRAFFIC","0","5","0","4884","traffic","0","2018-01-10 17:02:52","150190"
"AIZEEJUMWJ0WX","cs_wg_v9_pilot3","3TU5ZICBRD2D3HJFYCQBRXNXA108QS","6","0","WEDDING","0","5","1","2264","wedding","0","2018-01-10 17:02:53","150191"
"AIUKV0KVALMY6","cs_wg_v9_pilot3","3EJJQNKU9R668TZ8EV9H90Q196SHRH","6","0","DOORWAY","0","5","1","3522","doorway","0","2018-01-10 17:02:53","150192"
"A2MQMMCVZJTFL2","cs_wg_v9_pilot3","3QL2OFSM96JUCNW0ZWEZPPOBVHYNCQ","2","0","KEYBOARD","1","5","1","2323","KEYBOARD","1","2018-01-10 17:02:55","150193"
"A3GE84T9AR3YS9","cs_wg_v9_pilot3","3EKVH9QMEY58STDLD9BQH73V5MJD2P","5","0","COMMUNITY","10","5","0","2455","community","10","2018-01-10 17:02:55","150194"
"A29RJVVL54THB5","cs_wg_v9_pilot3","3SB4CE2TJVWBV2D6HO5HHWPLXSNAXV","6","0","COMMUNITY","0","5","1","1748","community","0","2018-01-10 17:02:57","150195"
"A1F1A2FXG1I6ZY","cs_wg_v9_pilot3","3JPSL1DZ5S06J8Z2FII8JUYNVEDNAO","2","0","BOOKSHELF","0","5","1","2861","bookshelf","0","2018-01-10 17:02:58","150196"
"A2HSCKH5NKN5LP","cs_wg_v9_pilot3","392CY0QWG1SZ3I8U91VP1JG6H5NI4S","11","0","DOORWAY","0","5","0","1174","Doorway","0","2018-01-10 17:02:58","150197"
"A16L21AR8X012","cs_wg_v9_pilot3","3MB8LZR5BFUM7L53FWFI0GXUVV7KLY","0","0","BASKET","0","5","0","7325","basket","0","2018-01-10 17:02:58","150198"
"A2HA52MJN7CTLM","cs_wg_v9_pilot3","3IKZ72A5B4H1FZGAQY40XV9ESUQFNT","1","0","LADDER","1","5","0","1909","Ladder","1","2018-01-10 17:03:01","150199"
"AIUKV0KVALMY6","cs_wg_v9_pilot3","3EJJQNKU9R668TZ8EV9H90Q196SHRH","7","0","BOOKSHELF","0","5","0","2240","bookshelf","0","2018-01-10 17:03:04","150200"
"A2HSCKH5NKN5LP","cs_wg_v9_pilot3","392CY0QWG1SZ3I8U91VP1JG6H5NI4S","12","0","STRUCTURE","0","5","0","708","Structure","0","2018-01-10 17:03:05","150201"
"AIZEEJUMWJ0WX","cs_wg_v9_pilot3","3TU5ZICBRD2D3HJFYCQBRXNXA108QS","7","0","STOMACH","1","5","1","2279","stomach","1","2018-01-10 17:03:05","150202"
"A32Z4J7YTEB43E","cs_wg_v9_pilot3","3X73LLYYQ1FLTV7GLOS00GLR893NHZ","0","0","FOOTBALL","10","5","1","14435","football","10","2018-01-10 17:03:06","150203"
"AOB6ZJTDB416G","cs_wg_v9_pilot3","3634BBTX0OV91Y5JTIR8SNDX6VWFID","7","0","HELICOPTER","10","5","1","2921","helicopter","10","2018-01-10 17:03:06","150204"
"A3K43RI91Y567E","cs_wg_v9_pilot3","32ZKVD547FO4YEBK3DYP5RKN8F73BJ","1","0","COMMUNITY","1","5","0","2977","community","1","2018-01-10 17:03:06","150205"
"A29RJVVL54THB5","cs_wg_v9_pilot3","3SB4CE2TJVWBV2D6HO5HHWPLXSNAXV","7","0","STRUCTURE","9","5","1","1167","structure","9","2018-01-10 17:03:06","150206"
"A2MQMMCVZJTFL2","cs_wg_v9_pilot3","3QL2OFSM96JUCNW0ZWEZPPOBVHYNCQ","3","0","BOOKSHELF","0","5","1","4513","BOOKSHELF","0","2018-01-10 17:03:07","150207"
"A3GE84T9AR3YS9","cs_wg_v9_pilot3","3EKVH9QMEY58STDLD9BQH73V5MJD2P","6","0","LADDER","9","5","1","2716","ladder","9","2018-01-10 17:03:07","150208"
"A3P0P0DRSOX52W","cs_wg_v9_pilot3","3X08E93BHVJXPLH7QOFF1EAF45Y667","3","0","KEYBOARD","1","5","1","3791","Keyboard","1","2018-01-10 17:03:10","150209"
"A2HSCKH5NKN5LP","cs_wg_v9_pilot3","392CY0QWG1SZ3I8U91VP1JG6H5NI4S","13","0","KEYBOARD","9","5","0","611","Keyboard","9","2018-01-10 17:03:11","150210"
"A1F1A2FXG1I6ZY","cs_wg_v9_pilot3","3JPSL1DZ5S06J8Z2FII8JUYNVEDNAO","3","0","DOORWAY","1","5","1","5485","doorway","1","2018-01-10 17:03:12","150211"
"AQP4PHYDXRBPI","cs_wg_v9_pilot3","30JNVC0OR9L6WSK81GKH4AGWDKQHQG","0","0","MACHINE","0","5","1","8989","machine","0","2018-01-10 17:03:14","150212"
"AIUKV0KVALMY6","cs_wg_v9_pilot3","3EJJQNKU9R668TZ8EV9H90Q196SHRH","8","0","DOORWAY","0","5","1","2284","doorway","0","2018-01-10 17:03:14","150213"
"A2HA52MJN7CTLM","cs_wg_v9_pilot3","3IKZ72A5B4H1FZGAQY40XV9ESUQFNT","2","0","MACHINE","10","5","0","2349","Machine","10","2018-01-10 17:03:14","150214"
"A29RJVVL54THB5","cs_wg_v9_pilot3","3SB4CE2TJVWBV2D6HO5HHWPLXSNAXV","8","0","BASKET","9","5","1","1189","basket","9","2018-01-10 17:03:16","150215"
"A16L21AR8X012","cs_wg_v9_pilot3","3MB8LZR5BFUM7L53FWFI0GXUVV7KLY","1","0","MACHINE","10","5","1","3449","machine","10","2018-01-10 17:03:18","150216"
"A2MQMMCVZJTFL2","cs_wg_v9_pilot3","3QL2OFSM96JUCNW0ZWEZPPOBVHYNCQ","4","0","KEYBOARD","1","5","1","4507","KEYBOARD","1","2018-01-10 17:03:19","150217"
"A3GE84T9AR3YS9","cs_wg_v9_pilot3","3EKVH9QMEY58STDLD9BQH73V5MJD2P","7","0","STOMACH","1","5","1","4460","stomach","1","2018-01-10 17:03:19","150218"
"AOB6ZJTDB416G","cs_wg_v9_pilot3","3634BBTX0OV91Y5JTIR8SNDX6VWFID","8","0","TRAFFIC","9","5","1","3590","traffic","9","2018-01-10 17:03:20","150219"
"AIZEEJUMWJ0WX","cs_wg_v9_pilot3","3TU5ZICBRD2D3HJFYCQBRXNXA108QS","8","0","COMMUNITY","9","5","1","5482","community","9","2018-01-10 17:03:21","150220"
"A3P0P0DRSOX52W","cs_wg_v9_pilot3","3X08E93BHVJXPLH7QOFF1EAF45Y667","4","0","TRAFFIC","1","5","1","2395","traffic","1","2018-01-10 17:03:23","150221"
"AIUKV0KVALMY6","cs_wg_v9_pilot3","3EJJQNKU9R668TZ8EV9H90Q196SHRH","9","0","BOOKSHELF","0","5","0","2282","bookshelf","0","2018-01-10 17:03:24","150222"
"A29RJVVL54THB5","cs_wg_v9_pilot3","3SB4CE2TJVWBV2D6HO5HHWPLXSNAXV","9","0","STOMACH","10","5","1","1051","stomach","10","2018-01-10 17:03:25","150223"
"A2HSCKH5NKN5LP","cs_wg_v9_pilot3","392CY0QWG1SZ3I8U91VP1JG6H5NI4S","14","0","KEYBOARD","9","5","0","1889","Keyboard","9","2018-01-10 17:03:26","150224"
"A3K43RI91Y567E","cs_wg_v9_pilot3","32ZKVD547FO4YEBK3DYP5RKN8F73BJ","2","0","TRAFFIC","0","5","1","3794","traffic","0","2018-01-10 17:03:27","150225"
"A1F1A2FXG1I6ZY","cs_wg_v9_pilot3","3JPSL1DZ5S06J8Z2FII8JUYNVEDNAO","4","0","WEDDING","1","5","1","4609","wedding","1","2018-01-10 17:03:27","150226"
"A32Z4J7YTEB43E","cs_wg_v9_pilot3","3X73LLYYQ1FLTV7GLOS00GLR893NHZ","1","0","MACHINE","0","5","0","4185","machine","0","2018-01-10 17:03:28","150227"
"A3GE84T9AR3YS9","cs_wg_v9_pilot3","3EKVH9QMEY58STDLD9BQH73V5MJD2P","8","0","WEDDING","9","5","0","1565","wedding","9","2018-01-10 17:03:28","150228"
"AIZEEJUMWJ0WX","cs_wg_v9_pilot3","3TU5ZICBRD2D3HJFYCQBRXNXA108QS","9","0","STOMACH","1","5","1","2483","stomach","1","2018-01-10 17:03:34","150229"
"A2HSCKH5NKN5LP","cs_wg_v9_pilot3","392CY0QWG1SZ3I8U91VP1JG6H5NI4S","15","0","FOOTBALL","1","5","1","2086","Football","1","2018-01-10 17:03:34","150230"
"AIUKV0KVALMY6","cs_wg_v9_pilot3","3EJJQNKU9R668TZ8EV9H90Q196SHRH","10","0","BOOKSHELF","0","5","1","1780","bookshelf","0","2018-01-10 17:03:34","150231"
"A2MQMMCVZJTFL2","cs_wg_v9_pilot3","3QL2OFSM96JUCNW0ZWEZPPOBVHYNCQ","5","0","MACHINE","9","5","1","1677","MACHINE","9","2018-01-10 17:03:35","150232"
"AQP4PHYDXRBPI","cs_wg_v9_pilot3","30JNVC0OR9L6WSK81GKH4AGWDKQHQG","1","0","FOOTBALL","9","5","1","3601","football","9","2018-01-10 17:03:36","150233"
"A29RJVVL54THB5","cs_wg_v9_pilot3","3SB4CE2TJVWBV2D6HO5HHWPLXSNAXV","10","0","TRAFFIC","10","5","0","2503","traffic","10","2018-01-10 17:03:36","150234"
"A3P0P0DRSOX52W","cs_wg_v9_pilot3","3X08E93BHVJXPLH7QOFF1EAF45Y667","5","0","KEYBOARD","1","5","1","2597","Keyboard","1","2018-01-10 17:03:37","150235"
"A16L21AR8X012","cs_wg_v9_pilot3","3MB8LZR5BFUM7L53FWFI0GXUVV7KLY","2","0","STRUCTURE","1","5","1","3342","structure","1","2018-01-10 17:03:39","150236"
"A1F1A2FXG1I6ZY","cs_wg_v9_pilot3","3JPSL1DZ5S06J8Z2FII8JUYNVEDNAO","5","0","TRAFFIC","0","5","1","1973","traffic","0","2018-01-10 17:03:39","150237"
"AOB6ZJTDB416G","cs_wg_v9_pilot3","3634BBTX0OV91Y5JTIR8SNDX6VWFID","9","0","DOORWAY","9","5","0","7198","doorway","9","2018-01-10 17:03:40","150238"
"A3GE84T9AR3YS9","cs_wg_v9_pilot3","3EKVH9QMEY58STDLD9BQH73V5MJD2P","9","0","HELICOPTER","0","5","1","3240","helicoptor","0","2018-01-10 17:03:41","150239"
"A3K43RI91Y567E","cs_wg_v9_pilot3","32ZKVD547FO4YEBK3DYP5RKN8F73BJ","3","0","LADDER","9","5","1","3029","ladder","9","2018-01-10 17:03:43","150240"
"A2HSCKH5NKN5LP","cs_wg_v9_pilot3","392CY0QWG1SZ3I8U91VP1JG6H5NI4S","16","0","MACHINE","1","5","1","1782","Machine","1","2018-01-10 17:03:43","150241"
"AIZEEJUMWJ0WX","cs_wg_v9_pilot3","3TU5ZICBRD2D3HJFYCQBRXNXA108QS","10","0","BASKET","10","5","0","2344","basket","10","2018-01-10 17:03:44","150242"
"A29RJVVL54THB5","cs_wg_v9_pilot3","3SB4CE2TJVWBV2D6HO5HHWPLXSNAXV","11","0","HELICOPTER","0","5","1","1601","helicopter","0","2018-01-10 17:03:45","150243"
"A32Z4J7YTEB43E","cs_wg_v9_pilot3","3X73LLYYQ1FLTV7GLOS00GLR893NHZ","2","0","HELICOPTER","0","5","0","5124","helicopter","0","2018-01-10 17:03:45","150244"
"AIUKV0KVALMY6","cs_wg_v9_pilot3","3EJJQNKU9R668TZ8EV9H90Q196SHRH","11","0","STOMACH","10","5","0","1479","stomach","10","2018-01-10 17:03:45","150245"
"A3GE84T9AR3YS9","cs_wg_v9_pilot3","3EKVH9QMEY58STDLD9BQH73V5MJD2P","10","0","WEDDING","9","5","0","1649","wedding","9","2018-01-10 17:03:50","150246"
"A2HSCKH5NKN5LP","cs_wg_v9_pilot3","392CY0QWG1SZ3I8U91VP1JG6H5NI4S","17","0","STRUCTURE","0","5","0","1610","Structure","0","2018-01-10 17:03:51","150247"
"A1F1A2FXG1I6ZY","cs_wg_v9_pilot3","3JPSL1DZ5S06J8Z2FII8JUYNVEDNAO","6","0","HELICOPTER","9","5","1","1737","helicopter","9","2018-01-10 17:03:53","150248"
"A16L21AR8X012","cs_wg_v9_pilot3","3MB8LZR5BFUM7L53FWFI0GXUVV7KLY","3","0","LADDER","9","5","1","2835","ladder","9","2018-01-10 17:03:54","150249"
"A2MQMMCVZJTFL2","cs_wg_v9_pilot3","3QL2OFSM96JUCNW0ZWEZPPOBVHYNCQ","6","0","BASKET","0","5","1","13413","BASKET","0","2018-01-10 17:03:55","150250"
"AIZEEJUMWJ0WX","cs_wg_v9_pilot3","3TU5ZICBRD2D3HJFYCQBRXNXA108QS","11","0","LADDER","10","5","1","1613","ladder","10","2018-01-10 17:03:55","150251"
"A29RJVVL54THB5","cs_wg_v9_pilot3","3SB4CE2TJVWBV2D6HO5HHWPLXSNAXV","12","0","COMMUNITY","0","5","0","2088","community","0","2018-01-10 17:03:56","150252"
"AIUKV0KVALMY6","cs_wg_v9_pilot3","3EJJQNKU9R668TZ8EV9H90Q196SHRH","12","0","HELICOPTER","9","5","0","2624","helicopter","9","2018-01-10 17:03:56","150253"
"AOB6ZJTDB416G","cs_wg_v9_pilot3","3634BBTX0OV91Y5JTIR8SNDX6VWFID","10","0","KEYBOARD","0","5","0","4194","keyboard","0","2018-01-10 17:03:56","150254"
"A2HSCKH5NKN5LP","cs_wg_v9_pilot3","392CY0QWG1SZ3I8U91VP1JG6H5NI4S","18","0","LADDER","10","5","0","927","Ladder","10","2018-01-10 17:03:58","150255"
"A3P0P0DRSOX52W","cs_wg_v9_pilot3","3X08E93BHVJXPLH7QOFF1EAF45Y667","6","0","UMBRELLA","9","5","0","3739","Umbrella","9","2018-01-10 17:03:59","150256"
"A3GE84T9AR3YS9","cs_wg_v9_pilot3","3EKVH9QMEY58STDLD9BQH73V5MJD2P","11","0","WEDDING","9","5","0","1056","wedding","9","2018-01-10 17:03:59","150257"
"A2HA52MJN7CTLM","cs_wg_v9_pilot3","3IKZ72A5B4H1FZGAQY40XV9ESUQFNT","5","0","HELICOPTER","10","5","0","2035","Helecopter","10","2018-01-10 17:03:59","150258"
"A3K43RI91Y567E","cs_wg_v9_pilot3","32ZKVD547FO4YEBK3DYP5RKN8F73BJ","4","0","BOOKSHELF","10","5","1","2906","bookshelf","10","2018-01-10 17:04:00","150259"
"A2MQMMCVZJTFL2","cs_wg_v9_pilot3","3QL2OFSM96JUCNW0ZWEZPPOBVHYNCQ","7","0","HELICOPTER","0","5","1","1462","HELICOPTER","0","2018-01-10 17:04:03","150260"
"A32Z4J7YTEB43E","cs_wg_v9_pilot3","3X73LLYYQ1FLTV7GLOS00GLR893NHZ","3","0","MACHINE","0","5","1","6131","machine","0","2018-01-10 17:04:03","150261"
"AIUKV0KVALMY6","cs_wg_v9_pilot3","3EJJQNKU9R668TZ8EV9H90Q196SHRH","13","0","DOORWAY","0","5","1","1941","doorway","0","2018-01-10 17:04:06","150262"
"AR5LYXBO5D982","cs_wg_v9_pilot3","3HPZF4IVNMUOOM0E6YNA65MIZ12CY5","0","0","STOMACH","0","5","1","5292","stomach","0","2018-01-10 17:04:06","150263"
"AIZEEJUMWJ0WX","cs_wg_v9_pilot3","3TU5ZICBRD2D3HJFYCQBRXNXA108QS","12","0","HELICOPTER","0","5","1","1418","helicopter","0","2018-01-10 17:04:07","150264"
"A1F1A2FXG1I6ZY","cs_wg_v9_pilot3","3JPSL1DZ5S06J8Z2FII8JUYNVEDNAO","7","0","UMBRELLA","10","5","1","2432","umbrella","10","2018-01-10 17:04:08","150265"
"A30EI064NHQEQO","cs_wg_v9_pilot3","3QXNC7EIPIWPTTXQM62ACNRQH3K90K","0","0","COMMUNITY","0","5","0","8039","community","0","2018-01-10 17:04:09","150266"
"A2HSCKH5NKN5LP","cs_wg_v9_pilot3","392CY0QWG1SZ3I8U91VP1JG6H5NI4S","19","0","DOORWAY","0","5","1","2536","Doorway","0","2018-01-10 17:04:09","150267"
"A3GE84T9AR3YS9","cs_wg_v9_pilot3","3EKVH9QMEY58STDLD9BQH73V5MJD2P","12","0","BOOKSHELF","9","5","1","2310","bookshelf","9","2018-01-10 17:04:10","150268"
"A2BRZKFG6WAVER","cs_wg_v9_pilot3","3X1FV8S5JXSK14LE39W9PX33FCSGVA","0","0","DOORWAY","10","5","0","4498","Doorway","10","2018-01-10 17:04:10","150269"
"A2HA52MJN7CTLM","cs_wg_v9_pilot3","3IKZ72A5B4H1FZGAQY40XV9ESUQFNT","6","0","STRUCTURE","0","5","0","1972","Structure","0","2018-01-10 17:04:11","150270"
"A3P0P0DRSOX52W","cs_wg_v9_pilot3","3X08E93BHVJXPLH7QOFF1EAF45Y667","7","0","STOMACH","9","5","1","1790","Stomach","9","2018-01-10 17:04:11","150271"
"AOB6ZJTDB416G","cs_wg_v9_pilot3","3634BBTX0OV91Y5JTIR8SNDX6VWFID","11","0","UMBRELLA","1","5","1","8120","umbrella","1","2018-01-10 17:04:13","150272"
"A3K43RI91Y567E","cs_wg_v9_pilot3","32ZKVD547FO4YEBK3DYP5RKN8F73BJ","5","0","COMMUNITY","1","5","1","2530","community","1","2018-01-10 17:04:13","150273"
"A29RJVVL54THB5","cs_wg_v9_pilot3","3SB4CE2TJVWBV2D6HO5HHWPLXSNAXV","13","0","BASKET","9","5","0","3007","basket","9","2018-01-10 17:04:14","150274"
"A16L21AR8X012","cs_wg_v9_pilot3","3MB8LZR5BFUM7L53FWFI0GXUVV7KLY","4","0","TRAFFIC","0","5","1","6423","traffic","0","2018-01-10 17:04:14","150275"
"A2MQMMCVZJTFL2","cs_wg_v9_pilot3","3QL2OFSM96JUCNW0ZWEZPPOBVHYNCQ","8","0","FOOTBALL","10","5","1","2236","FOOTBALL","10","2018-01-10 17:04:15","150276"
"AIUKV0KVALMY6","cs_wg_v9_pilot3","3EJJQNKU9R668TZ8EV9H90Q196SHRH","14","0","TRAFFIC","9","5","0","1130","traffic","9","2018-01-10 17:04:16","150277"
"A1F1A2FXG1I6ZY","cs_wg_v9_pilot3","3JPSL1DZ5S06J8Z2FII8JUYNVEDNAO","8","0","TRAFFIC","0","5","1","2372","traffic","0","2018-01-10 17:04:18","150278"
"A2HSCKH5NKN5LP","cs_wg_v9_pilot3","392CY0QWG1SZ3I8U91VP1JG6H5NI4S","20","0","STRUCTURE","0","5","1","1371","Structure","0","2018-01-10 17:04:19","150279"
"AR5LYXBO5D982","cs_wg_v9_pilot3","3HPZF4IVNMUOOM0E6YNA65MIZ12CY5","1","0","WEDDING","1","5","0","2490","wedding","1","2018-01-10 17:04:19","150280"
"AIZEEJUMWJ0WX","cs_wg_v9_pilot3","3TU5ZICBRD2D3HJFYCQBRXNXA108QS","13","0","UMBRELLA","10","5","1","1788","umbrella","10","2018-01-10 17:04:20","150281"
"A30EI064NHQEQO","cs_wg_v9_pilot3","3QXNC7EIPIWPTTXQM62ACNRQH3K90K","1","0","STRUCTURE","10","5","0","2098","structure","10","2018-01-10 17:04:20","150282"
"A32Z4J7YTEB43E","cs_wg_v9_pilot3","3X73LLYYQ1FLTV7GLOS00GLR893NHZ","4","0","LADDER","9","5","1","3802","ladder","9","2018-01-10 17:04:21","150283"
"A3GE84T9AR3YS9","cs_wg_v9_pilot3","3EKVH9QMEY58STDLD9BQH73V5MJD2P","13","0","MACHINE","0","5","1","1882","machine","0","2018-01-10 17:04:23","150284"
"A29RJVVL54THB5","cs_wg_v9_pilot3","3SB4CE2TJVWBV2D6HO5HHWPLXSNAXV","14","0","HELICOPTER","0","5","1","1944","helicopter","0","2018-01-10 17:04:23","150285"
"A2BRZKFG6WAVER","cs_wg_v9_pilot3","3X1FV8S5JXSK14LE39W9PX33FCSGVA","1","0","BOOKSHELF","10","5","1","2859","Bookshelf","10","2018-01-10 17:04:24","150286"
"A2HA52MJN7CTLM","cs_wg_v9_pilot3","3IKZ72A5B4H1FZGAQY40XV9ESUQFNT","7","0","UMBRELLA","10","5","0","2742","umbrella","10","2018-01-10 17:04:25","150287"
"A2MQMMCVZJTFL2","cs_wg_v9_pilot3","3QL2OFSM96JUCNW0ZWEZPPOBVHYNCQ","9","0","BOOKSHELF","0","5","1","3115","BOOKSHELF","0","2018-01-10 17:04:26","150288"
"A3K43RI91Y567E","cs_wg_v9_pilot3","32ZKVD547FO4YEBK3DYP5RKN8F73BJ","6","0","BASKET","10","5","1","2418","basket","10","2018-01-10 17:04:26","150289"
"AOB6ZJTDB416G","cs_wg_v9_pilot3","3634BBTX0OV91Y5JTIR8SNDX6VWFID","12","0","MACHINE","9","5","0","4690","machine","9","2018-01-10 17:04:26","150290"
"A2HSCKH5NKN5LP","cs_wg_v9_pilot3","392CY0QWG1SZ3I8U91VP1JG6H5NI4S","21","0","WEDDING","0","5","1","1921","Wedding","0","2018-01-10 17:04:27","150291"
"AIUKV0KVALMY6","cs_wg_v9_pilot3","3EJJQNKU9R668TZ8EV9H90Q196SHRH","15","0","HELICOPTER","9","5","0","1646","helicopter","9","2018-01-10 17:04:28","150292"
"A3P0P0DRSOX52W","cs_wg_v9_pilot3","3X08E93BHVJXPLH7QOFF1EAF45Y667","8","0","BOOKSHELF","0","5","1","3457","Bookshelf","0","2018-01-10 17:04:28","150293"
"A1F1A2FXG1I6ZY","cs_wg_v9_pilot3","3JPSL1DZ5S06J8Z2FII8JUYNVEDNAO","9","0","KEYBOARD","1","5","1","2077","keyboard","1","2018-01-10 17:04:30","150294"
"A30EI064NHQEQO","cs_wg_v9_pilot3","3QXNC7EIPIWPTTXQM62ACNRQH3K90K","2","0","UMBRELLA","1","5","0","2483","umbrella","1","2018-01-10 17:04:31","150295"
"AR5LYXBO5D982","cs_wg_v9_pilot3","3HPZF4IVNMUOOM0E6YNA65MIZ12CY5","2","0","KEYBOARD","9","5","0","2712","keyboard","9","2018-01-10 17:04:32","150296"
"A16L21AR8X012","cs_wg_v9_pilot3","3MB8LZR5BFUM7L53FWFI0GXUVV7KLY","5","0","TRAFFIC","0","5","1","4911","traffic","0","2018-01-10 17:04:33","150297"
"A29RJVVL54THB5","cs_wg_v9_pilot3","3SB4CE2TJVWBV2D6HO5HHWPLXSNAXV","15","0","COMMUNITY","0","5","1","1405","community","0","2018-01-10 17:04:33","150298"
"AIZEEJUMWJ0WX","cs_wg_v9_pilot3","3TU5ZICBRD2D3HJFYCQBRXNXA108QS","14","0","COMMUNITY","9","5","0","5068","community","9","2018-01-10 17:04:34","150299"
"A2HSCKH5NKN5LP","cs_wg_v9_pilot3","392CY0QWG1SZ3I8U91VP1JG6H5NI4S","22","0","BOOKSHELF","0","5","0","1298","Bookshelf","0","2018-01-10 17:04:35","150300"
"AIUKV0KVALMY6","cs_wg_v9_pilot3","3EJJQNKU9R668TZ8EV9H90Q196SHRH","16","0","KEYBOARD","1","5","0","1110","keyboard","1","2018-01-10 17:04:36","150301"
"A3GE84T9AR3YS9","cs_wg_v9_pilot3","3EKVH9QMEY58STDLD9BQH73V5MJD2P","14","0","COMMUNITY","10","5","0","4393","community","10","2018-01-10 17:04:36","150302"
"A2MQMMCVZJTFL2","cs_wg_v9_pilot3","3QL2OFSM96JUCNW0ZWEZPPOBVHYNCQ","10","0","BASKET","0","5","0","3225","BASKET","0","2018-01-10 17:04:36","150303"
"A32Z4J7YTEB43E","cs_wg_v9_pilot3","3X73LLYYQ1FLTV7GLOS00GLR893NHZ","5","0","DOORWAY","9","5","0","4368","doorway","9","2018-01-10 17:04:37","150304"
"A2BRZKFG6WAVER","cs_wg_v9_pilot3","3X1FV8S5JXSK14LE39W9PX33FCSGVA","2","0","BOOKSHELF","10","5","0","2456","Bookshelf","10","2018-01-10 17:04:38","150305"
"A2HA52MJN7CTLM","cs_wg_v9_pilot3","3IKZ72A5B4H1FZGAQY40XV9ESUQFNT","8","0","BASKET","9","5","0","1413","Basket","9","2018-01-10 17:04:38","150306"
"A1F1A2FXG1I6ZY","cs_wg_v9_pilot3","3JPSL1DZ5S06J8Z2FII8JUYNVEDNAO","10","0","BASKET","0","5","1","2168","basket","0","2018-01-10 17:04:39","150307"
"A3K43RI91Y567E","cs_wg_v9_pilot3","32ZKVD547FO4YEBK3DYP5RKN8F73BJ","7","0","STOMACH","10","5","1","3400","stomach","10","2018-01-10 17:04:39","150308"
"A30EI064NHQEQO","cs_wg_v9_pilot3","3QXNC7EIPIWPTTXQM62ACNRQH3K90K","3","0","DOORWAY","10","5","0","1065","doorway","10","2018-01-10 17:04:40","150309"
"AOB6ZJTDB416G","cs_wg_v9_pilot3","3634BBTX0OV91Y5JTIR8SNDX6VWFID","13","0","KEYBOARD","0","5","0","3223","keyboard","0","2018-01-10 17:04:41","150310"
"A29RJVVL54THB5","cs_wg_v9_pilot3","3SB4CE2TJVWBV2D6HO5HHWPLXSNAXV","16","0","HELICOPTER","0","5","1","1041","helicopter","0","2018-01-10 17:04:41","150311"
"A3P0P0DRSOX52W","cs_wg_v9_pilot3","3X08E93BHVJXPLH7QOFF1EAF45Y667","9","0","WEDDING","10","5","1","2840","Wedding","10","2018-01-10 17:04:42","150312"
"A2HSCKH5NKN5LP","cs_wg_v9_pilot3","392CY0QWG1SZ3I8U91VP1JG6H5NI4S","23","0","DOORWAY","0","5","1","1444","Doorway","0","2018-01-10 17:04:43","150313"
"A2MQMMCVZJTFL2","cs_wg_v9_pilot3","3QL2OFSM96JUCNW0ZWEZPPOBVHYNCQ","11","0","STRUCTURE","9","5","1","1357","STRUCTURE","9","2018-01-10 17:04:43","150314"
"A3GE84T9AR3YS9","cs_wg_v9_pilot3","3EKVH9QMEY58STDLD9BQH73V5MJD2P","15","0","STRUCTURE","10","5","1","1595","structure","10","2018-01-10 17:04:46","150315"
"AIUKV0KVALMY6","cs_wg_v9_pilot3","3EJJQNKU9R668TZ8EV9H90Q196SHRH","17","0","UMBRELLA","10","5","0","1148","umbrella","10","2018-01-10 17:04:46","150316"
"AIZEEJUMWJ0WX","cs_wg_v9_pilot3","3TU5ZICBRD2D3HJFYCQBRXNXA108QS","15","0","STRUCTURE","1","5","1","1428","structure","1","2018-01-10 17:04:47","150317"
"AR5LYXBO5D982","cs_wg_v9_pilot3","3HPZF4IVNMUOOM0E6YNA65MIZ12CY5","3","0","WEDDING","1","5","1","2991","wedding","1","2018-01-10 17:04:48","150318"
"A16L21AR8X012","cs_wg_v9_pilot3","3MB8LZR5BFUM7L53FWFI0GXUVV7KLY","6","0","FOOTBALL","0","5","0","2921","football","0","2018-01-10 17:04:49","150319"
"A2HA52MJN7CTLM","cs_wg_v9_pilot3","3IKZ72A5B4H1FZGAQY40XV9ESUQFNT","9","0","BASKET","9","5","0","1667","Basket","9","2018-01-10 17:04:49","150320"
"A1F1A2FXG1I6ZY","cs_wg_v9_pilot3","3JPSL1DZ5S06J8Z2FII8JUYNVEDNAO","11","0","STOMACH","9","5","1","2081","stomach","9","2018-01-10 17:04:49","150321"
"A29RJVVL54THB5","cs_wg_v9_pilot3","3SB4CE2TJVWBV2D6HO5HHWPLXSNAXV","17","0","HELICOPTER","0","5","1","1876","helicopter","0","2018-01-10 17:04:50","150322"
"A2BRZKFG6WAVER","cs_wg_v9_pilot3","3X1FV8S5JXSK14LE39W9PX33FCSGVA","3","0","STRUCTURE","10","5","1","3306","Stucture","10","2018-01-10 17:04:51","150323"
"A2HSCKH5NKN5LP","cs_wg_v9_pilot3","392CY0QWG1SZ3I8U91VP1JG6H5NI4S","24","0","KEYBOARD","9","5","1","1500","Keyboard","9","2018-01-10 17:04:51","150324"
"A2MQMMCVZJTFL2","cs_wg_v9_pilot3","3QL2OFSM96JUCNW0ZWEZPPOBVHYNCQ","12","0","FOOTBALL","10","5","1","2579","FOOTBALL","10","2018-01-10 17:04:53","150325"
"A3K43RI91Y567E","cs_wg_v9_pilot3","32ZKVD547FO4YEBK3DYP5RKN8F73BJ","8","0","BOOKSHELF","10","5","0","2949","bookshelf","10","2018-01-10 17:04:54","150326"
"AOB6ZJTDB416G","cs_wg_v9_pilot3","3634BBTX0OV91Y5JTIR8SNDX6VWFID","14","0","WEDDING","10","5","0","4660","wedding","10","2018-01-10 17:04:54","150327"
"A3P0P0DRSOX52W","cs_wg_v9_pilot3","3X08E93BHVJXPLH7QOFF1EAF45Y667","10","0","TRAFFIC","1","5","1","2317","Traffic","1","2018-01-10 17:04:55","150328"
"AIUKV0KVALMY6","cs_wg_v9_pilot3","3EJJQNKU9R668TZ8EV9H90Q196SHRH","18","0","HELICOPTER","9","5","0","1871","helicopter","9","2018-01-10 17:04:56","150329"
"A29RJVVL54THB5","cs_wg_v9_pilot3","3SB4CE2TJVWBV2D6HO5HHWPLXSNAXV","18","0","KEYBOARD","0","5","1","1510","keyboard","0","2018-01-10 17:04:59","150330"
"A1F1A2FXG1I6ZY","cs_wg_v9_pilot3","3JPSL1DZ5S06J8Z2FII8JUYNVEDNAO","12","0","DOORWAY","1","5","1","2342","doorway","1","2018-01-10 17:04:59","150331"
"A3GE84T9AR3YS9","cs_wg_v9_pilot3","3EKVH9QMEY58STDLD9BQH73V5MJD2P","16","0","MACHINE","0","5","0","2519","machine","0","2018-01-10 17:04:59","150332"
"AIZEEJUMWJ0WX","cs_wg_v9_pilot3","3TU5ZICBRD2D3HJFYCQBRXNXA108QS","16","0","DOORWAY","9","5","0","3110","doorway","9","2018-01-10 17:05:00","150333"
"AR5LYXBO5D982","cs_wg_v9_pilot3","3HPZF4IVNMUOOM0E6YNA65MIZ12CY5","4","0","TRAFFIC","1","5","1","3474","traffic","1","2018-01-10 17:05:00","150334"
"A1ZRAXU8G2ORCF","cs_wg_v9_pilot3","31IBVUNM9S0EN4PJSPQR7C3REXSFVA","0","0","STOMACH","1","5","0","8712","stomach","1","2018-01-10 17:05:00","150335"
"A2BRZKFG6WAVER","cs_wg_v9_pilot3","3X1FV8S5JXSK14LE39W9PX33FCSGVA","4","0","TRAFFIC","10","5","0","2226","Traffic","10","2018-01-10 17:05:02","150336"
"A30EI064NHQEQO","cs_wg_v9_pilot3","3QXNC7EIPIWPTTXQM62ACNRQH3K90K","4","0","COMMUNITY","0","5","1","4522","community","0","2018-01-10 17:05:03","150337"
"A2MQMMCVZJTFL2","cs_wg_v9_pilot3","3QL2OFSM96JUCNW0ZWEZPPOBVHYNCQ","13","0","STRUCTURE","9","5","0","2810","STRUCTURE","9","2018-01-10 17:05:04","150338"
"A2HA52MJN7CTLM","cs_wg_v9_pilot3","3IKZ72A5B4H1FZGAQY40XV9ESUQFNT","10","0","DOORWAY","1","5","0","1804","Doorway","1","2018-01-10 17:05:05","150339"
"AIUKV0KVALMY6","cs_wg_v9_pilot3","3EJJQNKU9R668TZ8EV9H90Q196SHRH","19","0","MACHINE","1","5","0","1628","machine","1","2018-01-10 17:05:05","150340"
"A2HSCKH5NKN5LP","cs_wg_v9_pilot3","392CY0QWG1SZ3I8U91VP1JG6H5NI4S","25","0","BOOKSHELF","0","5","1","1397","Doorway","0","2018-01-10 17:05:07","150341"
"A3P0P0DRSOX52W","cs_wg_v9_pilot3","3X08E93BHVJXPLH7QOFF1EAF45Y667","11","0","WEDDING","10","5","1","2464","Wedding","10","2018-01-10 17:05:08","150342"
"A3K43RI91Y567E","cs_wg_v9_pilot3","32ZKVD547FO4YEBK3DYP5RKN8F73BJ","9","0","TRAFFIC","0","5","1","3948","traffic","o","2018-01-10 17:05:08","150343"
"AOB6ZJTDB416G","cs_wg_v9_pilot3","3634BBTX0OV91Y5JTIR8SNDX6VWFID","15","0","LADDER","0","5","0","4621","ladder","0","2018-01-10 17:05:08","150344"
"A29RJVVL54THB5","cs_wg_v9_pilot3","3SB4CE2TJVWBV2D6HO5HHWPLXSNAXV","19","0","STOMACH","10","5","0","1606","stomach","10","2018-01-10 17:05:09","150345"
"A16L21AR8X012","cs_wg_v9_pilot3","3MB8LZR5BFUM7L53FWFI0GXUVV7KLY","7","0","MACHINE","10","5","1","4976","machine","10","2018-01-10 17:05:10","150346"
"A1F1A2FXG1I6ZY","cs_wg_v9_pilot3","3JPSL1DZ5S06J8Z2FII8JUYNVEDNAO","13","0","KEYBOARD","1","5","0","2906","keyboard","1","2018-01-10 17:05:10","150347"
"A3GE84T9AR3YS9","cs_wg_v9_pilot3","3EKVH9QMEY58STDLD9BQH73V5MJD2P","17","0","LADDER","9","5","1","3918","ladder","9","2018-01-10 17:05:11","150348"
"AR5LYXBO5D982","cs_wg_v9_pilot3","3HPZF4IVNMUOOM0E6YNA65MIZ12CY5","5","0","STRUCTURE","10","5","0","4443","structure","10","2018-01-10 17:05:12","150349"
"A2BRZKFG6WAVER","cs_wg_v9_pilot3","3X1FV8S5JXSK14LE39W9PX33FCSGVA","5","0","WEDDING","9","5","0","1847","Wedding","9","2018-01-10 17:05:13","150350"
"A2MQMMCVZJTFL2","cs_wg_v9_pilot3","3QL2OFSM96JUCNW0ZWEZPPOBVHYNCQ","14","0","COMMUNITY","1","5","1","1291","COMMUNITY","1","2018-01-10 17:05:13","150351"
"A30EI064NHQEQO","cs_wg_v9_pilot3","3QXNC7EIPIWPTTXQM62ACNRQH3K90K","5","0","KEYBOARD","0","5","0","2887","keyboard","0","2018-01-10 17:05:13","150352"
"AIZEEJUMWJ0WX","cs_wg_v9_pilot3","3TU5ZICBRD2D3HJFYCQBRXNXA108QS","17","0","UMBRELLA","10","5","0","4502","umbrella","10","2018-01-10 17:05:14","150353"
"AIUKV0KVALMY6","cs_wg_v9_pilot3","3EJJQNKU9R668TZ8EV9H90Q196SHRH","20","0","COMMUNITY","10","5","0","1698","community","10","2018-01-10 17:05:16","150354"
"A2HSCKH5NKN5LP","cs_wg_v9_pilot3","392CY0QWG1SZ3I8U91VP1JG6H5NI4S","26","0","BOOKSHELF","0","5","1","2196","Bookshelf","0","2018-01-10 17:05:16","150355"
"A29RJVVL54THB5","cs_wg_v9_pilot3","3SB4CE2TJVWBV2D6HO5HHWPLXSNAXV","20","0","TRAFFIC","10","5","1","1188","traffic","10","2018-01-10 17:05:17","150356"
"A1ZRAXU8G2ORCF","cs_wg_v9_pilot3","31IBVUNM9S0EN4PJSPQR7C3REXSFVA","1","0","BOOKSHELF","9","5","1","5021","bookself","9","2018-01-10 17:05:17","150357"
"A2HA52MJN7CTLM","cs_wg_v9_pilot3","3IKZ72A5B4H1FZGAQY40XV9ESUQFNT","11","0","KEYBOARD","0","5","0","2033","keyboard","1","2018-01-10 17:05:19","150358"
"A3GE84T9AR3YS9","cs_wg_v9_pilot3","3EKVH9QMEY58STDLD9BQH73V5MJD2P","18","0","LADDER","9","5","0","1375","ladder","9","2018-01-10 17:05:19","150359"
"AOB6ZJTDB416G","cs_wg_v9_pilot3","3634BBTX0OV91Y5JTIR8SNDX6VWFID","16","0","WEDDING","10","5","0","2472","wedding","10","2018-01-10 17:05:20","150360"
"A1F1A2FXG1I6ZY","cs_wg_v9_pilot3","3JPSL1DZ5S06J8Z2FII8JUYNVEDNAO","14","0","STRUCTURE","10","5","1","1952","structure","10","2018-01-10 17:05:21","150361"
"A3P0P0DRSOX52W","cs_wg_v9_pilot3","3X08E93BHVJXPLH7QOFF1EAF45Y667","12","0","BASKET","9","5","1","2412","Basket","9","2018-01-10 17:05:21","150362"
"A3K43RI91Y567E","cs_wg_v9_pilot3","32ZKVD547FO4YEBK3DYP5RKN8F73BJ","10","0","MACHINE","9","5","1","4458","machine","9","2018-01-10 17:05:22","150363"
"AR5LYXBO5D982","cs_wg_v9_pilot3","3HPZF4IVNMUOOM0E6YNA65MIZ12CY5","6","0","MACHINE","0","5","0","1883","machine","0","2018-01-10 17:05:23","150364"
"A2BRZKFG6WAVER","cs_wg_v9_pilot3","3X1FV8S5JXSK14LE39W9PX33FCSGVA","6","0","BOOKSHELF","10","5","0","1849","Bookshelf","10","2018-01-10 17:05:24","150365"
"A2HSCKH5NKN5LP","cs_wg_v9_pilot3","392CY0QWG1SZ3I8U91VP1JG6H5NI4S","27","0","TRAFFIC","10","5","1","1279","Traffic","10","2018-01-10 17:05:24","150366"
"A21KGSK2BDVWOA","cs_wg_v9_pilot3","39U1BHVTDLS4U0513ZPA5LQ9EM83TA","0","0","KEYBOARD","9","5","0","7366","keyboard","5","2018-01-10 17:05:25","150367"
"A30EI064NHQEQO","cs_wg_v9_pilot3","3QXNC7EIPIWPTTXQM62ACNRQH3K90K","6","0","UMBRELLA","1","5","1","3711","umbrella","1","2018-01-10 17:05:25","150368"
"A29RJVVL54THB5","cs_wg_v9_pilot3","3SB4CE2TJVWBV2D6HO5HHWPLXSNAXV","21","0","DOORWAY","9","5","1","1137","doorway","9","2018-01-10 17:05:25","150369"
"AIUKV0KVALMY6","cs_wg_v9_pilot3","3EJJQNKU9R668TZ8EV9H90Q196SHRH","21","0","FOOTBALL","0","5","0","1420","football","0","2018-01-10 17:05:26","150370"
"A16L21AR8X012","cs_wg_v9_pilot3","3MB8LZR5BFUM7L53FWFI0GXUVV7KLY","8","0","DOORWAY","0","5","1","2713","doorway","0","2018-01-10 17:05:26","150371"
"AIZEEJUMWJ0WX","cs_wg_v9_pilot3","3TU5ZICBRD2D3HJFYCQBRXNXA108QS","18","0","WEDDING","0","5","1","2408","wedding","0","2018-01-10 17:05:27","150372"
"A3GE84T9AR3YS9","cs_wg_v9_pilot3","3EKVH9QMEY58STDLD9BQH73V5MJD2P","19","0","DOORWAY","10","5","0","1545","doorway","10","2018-01-10 17:05:28","150373"
"A1F1A2FXG1I6ZY","cs_wg_v9_pilot3","3JPSL1DZ5S06J8Z2FII8JUYNVEDNAO","15","0","TRAFFIC","0","5","0","2780","traffic","0","2018-01-10 17:05:31","150374"
"A2HSCKH5NKN5LP","cs_wg_v9_pilot3","392CY0QWG1SZ3I8U91VP1JG6H5NI4S","28","0","FOOTBALL","1","5","1","1560","Football","1","2018-01-10 17:05:32","150375"
"A2MQMMCVZJTFL2","cs_wg_v9_pilot3","3QL2OFSM96JUCNW0ZWEZPPOBVHYNCQ","16","0","LADDER","9","5","1","1329","LADDER","9","2018-01-10 17:05:32","150376"
"A3P0P0DRSOX52W","cs_wg_v9_pilot3","3X08E93BHVJXPLH7QOFF1EAF45Y667","13","0","WEDDING","10","5","1","2699","Wedding","10","2018-01-10 17:05:33","150377"
"A29RJVVL54THB5","cs_wg_v9_pilot3","3SB4CE2TJVWBV2D6HO5HHWPLXSNAXV","22","0","WEDDING","1","5","1","974","wedding","1","2018-01-10 17:05:33","150378"
"A3K43RI91Y567E","cs_wg_v9_pilot3","32ZKVD547FO4YEBK3DYP5RKN8F73BJ","11","0","UMBRELLA","10","5","1","2052","umbrella","10","2018-01-10 17:05:33","150379"
"A1ZRAXU8G2ORCF","cs_wg_v9_pilot3","31IBVUNM9S0EN4PJSPQR7C3REXSFVA","2","0","FOOTBALL","1","5","0","4018","football","1","2018-01-10 17:05:34","150380"
"A30EI064NHQEQO","cs_wg_v9_pilot3","3QXNC7EIPIWPTTXQM62ACNRQH3K90K","7","0","STOMACH","10","5","0","2319","stomach","10","2018-01-10 17:05:34","150381"
"A2HA52MJN7CTLM","cs_wg_v9_pilot3","3IKZ72A5B4H1FZGAQY40XV9ESUQFNT","12","0","DOORWAY","1","5","1","3454","doorway","1","2018-01-10 17:05:34","150382"
"AIUKV0KVALMY6","cs_wg_v9_pilot3","3EJJQNKU9R668TZ8EV9H90Q196SHRH","22","0","DOORWAY","0","5","1","1694","doorway","0","2018-01-10 17:05:35","150383"
"AOB6ZJTDB416G","cs_wg_v9_pilot3","3634BBTX0OV91Y5JTIR8SNDX6VWFID","17","0","BOOKSHELF","10","5","0","6593","bookshelf","10","2018-01-10 17:05:36","150384"
"A2BRZKFG6WAVER","cs_wg_v9_pilot3","3X1FV8S5JXSK14LE39W9PX33FCSGVA","7","0","STRUCTURE","10","5","0","3550","Structure","10","2018-01-10 17:05:37","150385"
"A25CFVQND4A0EV","cs_wg_v9_pilot3","39L1G8WVWQS3LGTS1G50ZF7EM3G310","0","0","FOOTBALL","9","5","0","3225","football","9","2018-01-10 17:05:40","150386"
"A3GE84T9AR3YS9","cs_wg_v9_pilot3","3EKVH9QMEY58STDLD9BQH73V5MJD2P","20","0","STOMACH","1","5","0","3903","stomach","1","2018-01-10 17:05:40","150387"
"A2HSCKH5NKN5LP","cs_wg_v9_pilot3","392CY0QWG1SZ3I8U91VP1JG6H5NI4S","29","0","KEYBOARD","9","5","1","2468","Keyboard","9","2018-01-10 17:05:41","150388"
"A2MQMMCVZJTFL2","cs_wg_v9_pilot3","3QL2OFSM96JUCNW0ZWEZPPOBVHYNCQ","17","0","LADDER","9","5","0","2651","LADDER","9","2018-01-10 17:05:42","150389"
"A16L21AR8X012","cs_wg_v9_pilot3","3MB8LZR5BFUM7L53FWFI0GXUVV7KLY","9","0","STRUCTURE","1","5","0","5740","structure","1","2018-01-10 17:05:45","150390"
"AIZEEJUMWJ0WX","cs_wg_v9_pilot3","3TU5ZICBRD2D3HJFYCQBRXNXA108QS","19","0","DOORWAY","9","5","0","4506","doorway","9","2018-01-10 17:05:45","150391"
"A3P0P0DRSOX52W","cs_wg_v9_pilot3","3X08E93BHVJXPLH7QOFF1EAF45Y667","14","0","BASKET","9","5","1","3012","Basket","9","2018-01-10 17:05:45","150392"
"A29RJVVL54THB5","cs_wg_v9_pilot3","3SB4CE2TJVWBV2D6HO5HHWPLXSNAXV","23","0","STRUCTURE","9","5","1","1865","structure","9","2018-01-10 17:05:45","150393"
"AIUKV0KVALMY6","cs_wg_v9_pilot3","3EJJQNKU9R668TZ8EV9H90Q196SHRH","23","0","COMMUNITY","10","5","0","2373","community","10","2018-01-10 17:05:46","150394"
"A2HA52MJN7CTLM","cs_wg_v9_pilot3","3IKZ72A5B4H1FZGAQY40XV9ESUQFNT","13","0","MACHINE","10","5","0","1332","machine","10","2018-01-10 17:05:46","150395"
"A1F1A2FXG1I6ZY","cs_wg_v9_pilot3","3JPSL1DZ5S06J8Z2FII8JUYNVEDNAO","16","0","LADDER","10","5","1","2464","ladder","10","2018-01-10 17:05:47","150396"
"AR5LYXBO5D982","cs_wg_v9_pilot3","3HPZF4IVNMUOOM0E6YNA65MIZ12CY5","7","0","HELICOPTER","10","5","1","1513","helicopter","10","2018-01-10 17:05:47","150397"
"A3GE84T9AR3YS9","cs_wg_v9_pilot3","3EKVH9QMEY58STDLD9BQH73V5MJD2P","21","0","STOMACH","1","5","1","1650","stomach","1","2018-01-10 17:05:48","150398"
"A3K43RI91Y567E","cs_wg_v9_pilot3","32ZKVD547FO4YEBK3DYP5RKN8F73BJ","12","0","COMMUNITY","1","5","0","4859","community","1","2018-01-10 17:05:48","150399"
"A2HSCKH5NKN5LP","cs_wg_v9_pilot3","392CY0QWG1SZ3I8U91VP1JG6H5NI4S","30","0","MACHINE","1","5","1","1932","Machine","1","2018-01-10 17:05:49","150400"
"AOB6ZJTDB416G","cs_wg_v9_pilot3","3634BBTX0OV91Y5JTIR8SNDX6VWFID","18","0","UMBRELLA","1","5","1","4374","umbrella","1","2018-01-10 17:05:50","150401"
"A1ZRAXU8G2ORCF","cs_wg_v9_pilot3","31IBVUNM9S0EN4PJSPQR7C3REXSFVA","3","0","DOORWAY","9","5","0","3896","doorway ","9","2018-01-10 17:05:50","150402"
"A25CFVQND4A0EV","cs_wg_v9_pilot3","39L1G8WVWQS3LGTS1G50ZF7EM3G310","1","0","LADDER","1","5","0","1914","ladder","1","2018-01-10 17:05:50","150403"
"A2BRZKFG6WAVER","cs_wg_v9_pilot3","3X1FV8S5JXSK14LE39W9PX33FCSGVA","8","0","KEYBOARD","1","5","1","3596","keyboard","1","2018-01-10 17:05:50","150404"
"A2MQMMCVZJTFL2","cs_wg_v9_pilot3","3QL2OFSM96JUCNW0ZWEZPPOBVHYNCQ","18","0","MACHINE","9","5","0","1945","MACHINE","9","2018-01-10 17:05:51","150405"
"A30EI064NHQEQO","cs_wg_v9_pilot3","3QXNC7EIPIWPTTXQM62ACNRQH3K90K","8","0","HELICOPTER","9","5","0","9106","helicopter","9","2018-01-10 17:05:52","150406"
"A21KGSK2BDVWOA","cs_wg_v9_pilot3","39U1BHVTDLS4U0513ZPA5LQ9EM83TA","1","0","STRUCTURE","10","5","0","6847","structure","5","2018-01-10 17:05:54","150407"
"A29RJVVL54THB5","cs_wg_v9_pilot3","3SB4CE2TJVWBV2D6HO5HHWPLXSNAXV","24","0","FOOTBALL","0","5","1","1170","football","0","2018-01-10 17:05:56","150408"
"A3GE84T9AR3YS9","cs_wg_v9_pilot3","3EKVH9QMEY58STDLD9BQH73V5MJD2P","22","0","STOMACH","1","5","1","1382","stomach","1","2018-01-10 17:05:56","150409"
"A1F1A2FXG1I6ZY","cs_wg_v9_pilot3","3JPSL1DZ5S06J8Z2FII8JUYNVEDNAO","17","0","MACHINE","0","5","0","2102","machine","0","2018-01-10 17:05:57","150410"
"A2HSCKH5NKN5LP","cs_wg_v9_pilot3","392CY0QWG1SZ3I8U91VP1JG6H5NI4S","31","0","LADDER","10","5","0","1039","Ladder","10","2018-01-10 17:05:57","150411"
"AR5LYXBO5D982","cs_wg_v9_pilot3","3HPZF4IVNMUOOM0E6YNA65MIZ12CY5","8","0","STOMACH","0","5","1","1978","stomach","0","2018-01-10 17:05:57","150412"
"AIUKV0KVALMY6","cs_wg_v9_pilot3","3EJJQNKU9R668TZ8EV9H90Q196SHRH","24","0","FOOTBALL","0","5","1","2212","football","0","2018-01-10 17:05:59","150413"
"A16L21AR8X012","cs_wg_v9_pilot3","3MB8LZR5BFUM7L53FWFI0GXUVV7KLY","10","0","UMBRELLA","10","5","1","2807","umbrella","10","2018-01-10 17:06:00","150414"
"AOB6ZJTDB416G","cs_wg_v9_pilot3","3634BBTX0OV91Y5JTIR8SNDX6VWFID","19","0","STOMACH","1","5","1","1600","stomach","1","2018-01-10 17:06:01","150415"
"A2MQMMCVZJTFL2","cs_wg_v9_pilot3","3QL2OFSM96JUCNW0ZWEZPPOBVHYNCQ","19","0","STOMACH","10","5","0","2940","STOMACH","9","2018-01-10 17:06:01","150416"
"A30EI064NHQEQO","cs_wg_v9_pilot3","3QXNC7EIPIWPTTXQM62ACNRQH3K90K","9","0","UMBRELLA","1","5","1","2706","umbrella","1","2018-01-10 17:06:03","150417"
"A2HA52MJN7CTLM","cs_wg_v9_pilot3","3IKZ72A5B4H1FZGAQY40XV9ESUQFNT","14","0","UMBRELLA","10","5","0","2892","umbrella","10","2018-01-10 17:06:03","150418"
"A25CFVQND4A0EV","cs_wg_v9_pilot3","39L1G8WVWQS3LGTS1G50ZF7EM3G310","2","0","BASKET","10","5","1","2608","basket","10","2018-01-10 17:06:03","150419"
"A3GE84T9AR3YS9","cs_wg_v9_pilot3","3EKVH9QMEY58STDLD9BQH73V5MJD2P","23","0","WEDDING","9","5","0","1061","wedding","9","2018-01-10 17:06:04","150420"
"A3P0P0DRSOX52W","cs_wg_v9_pilot3","3X08E93BHVJXPLH7QOFF1EAF45Y667","15","0","UMBRELLA","9","5","1","3176","Umbrella","9","2018-01-10 17:06:04","150421"
"AIZEEJUMWJ0WX","cs_wg_v9_pilot3","3TU5ZICBRD2D3HJFYCQBRXNXA108QS","20","0","FOOTBALL","9","5","1","10556","football","9","2018-01-10 17:06:05","150422"
"A2HSCKH5NKN5LP","cs_wg_v9_pilot3","392CY0QWG1SZ3I8U91VP1JG6H5NI4S","32","0","UMBRELLA","10","5","0","1346","Umbrella","10","2018-01-10 17:06:05","150423"
"A29RJVVL54THB5","cs_wg_v9_pilot3","3SB4CE2TJVWBV2D6HO5HHWPLXSNAXV","25","0","FOOTBALL","0","5","1","1028","football","0","2018-01-10 17:06:05","150424"
"A1F1A2FXG1I6ZY","cs_wg_v9_pilot3","3JPSL1DZ5S06J8Z2FII8JUYNVEDNAO","18","0","WEDDING","1","5","1","2235","wedding","1","2018-01-10 17:06:06","150425"
"A2BRZKFG6WAVER","cs_wg_v9_pilot3","3X1FV8S5JXSK14LE39W9PX33FCSGVA","9","0","KEYBOARD","1","5","1","2145","keyboard","1","2018-01-10 17:06:06","150426"
"AR5LYXBO5D982","cs_wg_v9_pilot3","3HPZF4IVNMUOOM0E6YNA65MIZ12CY5","9","0","TRAFFIC","1","5","1","1828","traffic","1","2018-01-10 17:06:07","150427"
"A1ZRAXU8G2ORCF","cs_wg_v9_pilot3","31IBVUNM9S0EN4PJSPQR7C3REXSFVA","4","0","TRAFFIC","10","5","1","4531","traffic","10","2018-01-10 17:06:09","150428"
"AIUKV0KVALMY6","cs_wg_v9_pilot3","3EJJQNKU9R668TZ8EV9H90Q196SHRH","25","0","TRAFFIC","9","5","1","1884","traffic","9","2018-01-10 17:06:10","150429"
"AOB6ZJTDB416G","cs_wg_v9_pilot3","3634BBTX0OV91Y5JTIR8SNDX6VWFID","20","0","WEDDING","10","5","0","1730","wedding","10","2018-01-10 17:06:11","150430"
"A2MQMMCVZJTFL2","cs_wg_v9_pilot3","3QL2OFSM96JUCNW0ZWEZPPOBVHYNCQ","20","0","FOOTBALL","10","5","0","3377","FOOTBALL","10","2018-01-10 17:06:12","150431"
"A2HSCKH5NKN5LP","cs_wg_v9_pilot3","392CY0QWG1SZ3I8U91VP1JG6H5NI4S","33","0","TRAFFIC","10","5","0","1046","Traffic","10","2018-01-10 17:06:12","150432"
"A3K43RI91Y567E","cs_wg_v9_pilot3","32ZKVD547FO4YEBK3DYP5RKN8F73BJ","13","0","KEYBOARD","1","5","1","2758","keyboard","1","2018-01-10 17:06:15","150433"
"A25CFVQND4A0EV","cs_wg_v9_pilot3","39L1G8WVWQS3LGTS1G50ZF7EM3G310","3","0","BOOKSHELF","9","5","1","1836","bookshelf","9","2018-01-10 17:06:15","150434"
"A30EI064NHQEQO","cs_wg_v9_pilot3","3QXNC7EIPIWPTTXQM62ACNRQH3K90K","10","0","DOORWAY","10","5","1","3516","doorway","10","2018-01-10 17:06:15","150435"
"A3GE84T9AR3YS9","cs_wg_v9_pilot3","3EKVH9QMEY58STDLD9BQH73V5MJD2P","24","0","FOOTBALL","10","5","0","2357","football","10","2018-01-10 17:06:15","150436"
"A16L21AR8X012","cs_wg_v9_pilot3","3MB8LZR5BFUM7L53FWFI0GXUVV7KLY","11","0","COMMUNITY","9","5","0","3727","community","9","2018-01-10 17:06:16","150437"
"A1F1A2FXG1I6ZY","cs_wg_v9_pilot3","3JPSL1DZ5S06J8Z2FII8JUYNVEDNAO","19","0","COMMUNITY","9","5","0","2316","community","9","2018-01-10 17:06:17","150438"
"A2HA52MJN7CTLM","cs_wg_v9_pilot3","3IKZ72A5B4H1FZGAQY40XV9ESUQFNT","15","0","UMBRELLA","10","5","0","1337","umbrella","10","2018-01-10 17:06:17","150439"
"A2BRZKFG6WAVER","cs_wg_v9_pilot3","3X1FV8S5JXSK14LE39W9PX33FCSGVA","10","0","STRUCTURE","10","5","0","2216","Structure","10","2018-01-10 17:06:18","150440"
"A29RJVVL54THB5","cs_wg_v9_pilot3","3SB4CE2TJVWBV2D6HO5HHWPLXSNAXV","26","0","COMMUNITY","0","5","1","4386","community","0","2018-01-10 17:06:18","150441"
"A21KGSK2BDVWOA","cs_wg_v9_pilot3","39U1BHVTDLS4U0513ZPA5LQ9EM83TA","2","0","KEYBOARD","9","5","0","5570","keyboard","5","2018-01-10 17:06:19","150442"
"A2HSCKH5NKN5LP","cs_wg_v9_pilot3","392CY0QWG1SZ3I8U91VP1JG6H5NI4S","34","0","TRAFFIC","10","5","0","823","Traffic","10","2018-01-10 17:06:19","150443"
"AIZEEJUMWJ0WX","cs_wg_v9_pilot3","3TU5ZICBRD2D3HJFYCQBRXNXA108QS","21","0","TRAFFIC","10","5","1","3346","traffic","10","2018-01-10 17:06:19","150444"
"AIUKV0KVALMY6","cs_wg_v9_pilot3","3EJJQNKU9R668TZ8EV9H90Q196SHRH","26","0","FOOTBALL","0","5","1","1984","football","0","2018-01-10 17:06:20","150445"
"AOB6ZJTDB416G","cs_wg_v9_pilot3","3634BBTX0OV91Y5JTIR8SNDX6VWFID","21","0","STRUCTURE","1","5","1","1959","structure","1","2018-01-10 17:06:21","150446"
"AR5LYXBO5D982","cs_wg_v9_pilot3","3HPZF4IVNMUOOM0E6YNA65MIZ12CY5","10","0","FOOTBALL","9","5","0","1504","football","10","2018-01-10 17:06:22","150447"
"A2MQMMCVZJTFL2","cs_wg_v9_pilot3","3QL2OFSM96JUCNW0ZWEZPPOBVHYNCQ","21","0","COMMUNITY","1","5","1","2550","COMMUNITY","1","2018-01-10 17:06:22","150448"
"A3GE84T9AR3YS9","cs_wg_v9_pilot3","3EKVH9QMEY58STDLD9BQH73V5MJD2P","25","0","FOOTBALL","10","5","0","1154","football","10","2018-01-10 17:06:23","150449"
"A1ZRAXU8G2ORCF","cs_wg_v9_pilot3","31IBVUNM9S0EN4PJSPQR7C3REXSFVA","5","0","MACHINE","1","5","1","3391","machine","1","2018-01-10 17:06:24","150450"
"A30EI064NHQEQO","cs_wg_v9_pilot3","3QXNC7EIPIWPTTXQM62ACNRQH3K90K","11","0","COMMUNITY","0","5","1","2753","community","0","2018-01-10 17:06:26","150451"
"A2HSCKH5NKN5LP","cs_wg_v9_pilot3","392CY0QWG1SZ3I8U91VP1JG6H5NI4S","35","0","WEDDING","0","5","0","1282","Wedding","0","2018-01-10 17:06:26","150452"
"A1F1A2FXG1I6ZY","cs_wg_v9_pilot3","3JPSL1DZ5S06J8Z2FII8JUYNVEDNAO","20","0","TRAFFIC","0","5","0","2606","traffic","0","2018-01-10 17:06:27","150453"
"A3P0P0DRSOX52W","cs_wg_v9_pilot3","3X08E93BHVJXPLH7QOFF1EAF45Y667","16","0","BASKET","9","5","1","12281","Basket","9","2018-01-10 17:06:27","150454"
"A29RJVVL54THB5","cs_wg_v9_pilot3","3SB4CE2TJVWBV2D6HO5HHWPLXSNAXV","27","0","HELICOPTER","0","5","1","2353","helicopter","0","2018-01-10 17:06:28","150455"
"A25CFVQND4A0EV","cs_wg_v9_pilot3","39L1G8WVWQS3LGTS1G50ZF7EM3G310","4","0","MACHINE","1","5","0","1547","machine","1","2018-01-10 17:06:28","150456"
"A2BRZKFG6WAVER","cs_wg_v9_pilot3","3X1FV8S5JXSK14LE39W9PX33FCSGVA","11","0","MACHINE","0","5","1","2397","machine","0","2018-01-10 17:06:29","150457"
"A2HA52MJN7CTLM","cs_wg_v9_pilot3","3IKZ72A5B4H1FZGAQY40XV9ESUQFNT","16","0","STRUCTURE","0","5","1","2003","structure","0","2018-01-10 17:06:30","150458"
"AIUKV0KVALMY6","cs_wg_v9_pilot3","3EJJQNKU9R668TZ8EV9H90Q196SHRH","27","0","STRUCTURE","10","5","0","1084","structure","10","2018-01-10 17:06:30","150459"
"A2MQMMCVZJTFL2","cs_wg_v9_pilot3","3QL2OFSM96JUCNW0ZWEZPPOBVHYNCQ","22","0","LADDER","9","5","1","1711","LADDER","9","2018-01-10 17:06:30","150460"
"A3K43RI91Y567E","cs_wg_v9_pilot3","32ZKVD547FO4YEBK3DYP5RKN8F73BJ","14","0","BOOKSHELF","10","5","0","3304","bookshelf","10","2018-01-10 17:06:31","150461"
"AR5LYXBO5D982","cs_wg_v9_pilot3","3HPZF4IVNMUOOM0E6YNA65MIZ12CY5","11","0","STOMACH","0","5","1","1564","stomach","0","2018-01-10 17:06:31","150462"
"A10ECDDI2BYH3K","cs_wg_v9_pilot3","3DYGAII7PL9Y99IWKTSMDJINZB0PQT","0","0","MACHINE","0","5","0","5716","mwchine","0","2018-01-10 17:06:32","150463"
"A3GE84T9AR3YS9","cs_wg_v9_pilot3","3EKVH9QMEY58STDLD9BQH73V5MJD2P","26","0","BASKET","1","5","0","1643","basket","1","2018-01-10 17:06:32","150464"
"A1VW8Y7XCV3DRW","cs_wg_v9_pilot3","3KMS4QQVK2R07TV7TLCK53SAYZLKFT","0","0","BASKET","10","5","0","4292","basked","10","2018-01-10 17:06:33","150465"
"A2HSCKH5NKN5LP","cs_wg_v9_pilot3","392CY0QWG1SZ3I8U91VP1JG6H5NI4S","36","0","COMMUNITY","10","5","0","700","Community","10","2018-01-10 17:06:33","150466"
"AIZEEJUMWJ0WX","cs_wg_v9_pilot3","3TU5ZICBRD2D3HJFYCQBRXNXA108QS","22","0","KEYBOARD","0","5","1","5347","keyboard","0","2018-01-10 17:06:34","150467"
"A30EI064NHQEQO","cs_wg_v9_pilot3","3QXNC7EIPIWPTTXQM62ACNRQH3K90K","12","0","FOOTBALL","0","5","0","1553","football","0","2018-01-10 17:06:35","150468"
"A16L21AR8X012","cs_wg_v9_pilot3","3MB8LZR5BFUM7L53FWFI0GXUVV7KLY","12","0","UMBRELLA","10","5","0","5573","umbrella","10","2018-01-10 17:06:35","150469"
"AOB6ZJTDB416G","cs_wg_v9_pilot3","3634BBTX0OV91Y5JTIR8SNDX6VWFID","22","0","DOORWAY","9","5","0","5047","doorway","9","2018-01-10 17:06:35","150470"
"A29RJVVL54THB5","cs_wg_v9_pilot3","3SB4CE2TJVWBV2D6HO5HHWPLXSNAXV","28","0","STRUCTURE","9","5","1","1293","structure","9","2018-01-10 17:06:37","150471"
"A1F1A2FXG1I6ZY","cs_wg_v9_pilot3","3JPSL1DZ5S06J8Z2FII8JUYNVEDNAO","21","0","STOMACH","9","5","0","2219","stomach","9","2018-01-10 17:06:37","150472"
"A2BRZKFG6WAVER","cs_wg_v9_pilot3","3X1FV8S5JXSK14LE39W9PX33FCSGVA","12","0","LADDER","9","5","1","1848","Ladder","9","2018-01-10 17:06:39","150473"
"A25CFVQND4A0EV","cs_wg_v9_pilot3","39L1G8WVWQS3LGTS1G50ZF7EM3G310","5","0","MACHINE","1","5","1","3600","machine","1","2018-01-10 17:06:39","150474"
"AIUKV0KVALMY6","cs_wg_v9_pilot3","3EJJQNKU9R668TZ8EV9H90Q196SHRH","28","0","MACHINE","1","5","1","1738","machine","1","2018-01-10 17:06:40","150475"
"A2MQMMCVZJTFL2","cs_wg_v9_pilot3","3QL2OFSM96JUCNW0ZWEZPPOBVHYNCQ","23","0","DOORWAY","0","5","1","1604","DOORWAY","0","2018-01-10 17:06:40","150476"
"A2HSCKH5NKN5LP","cs_wg_v9_pilot3","392CY0QWG1SZ3I8U91VP1JG6H5NI4S","37","0","BOOKSHELF","0","5","1","1623","Bookshelf","0","2018-01-10 17:06:41","150477"
"A1ZRAXU8G2ORCF","cs_wg_v9_pilot3","31IBVUNM9S0EN4PJSPQR7C3REXSFVA","6","0","BASKET","10","5","0","3913","basket","10","2018-01-10 17:06:41","150478"
"A3P0P0DRSOX52W","cs_wg_v9_pilot3","3X08E93BHVJXPLH7QOFF1EAF45Y667","17","0","BOOKSHELF","0","5","1","2577","Bookshelf","0","2018-01-10 17:06:41","150479"
"A21KGSK2BDVWOA","cs_wg_v9_pilot3","39U1BHVTDLS4U0513ZPA5LQ9EM83TA","3","0","STOMACH","1","5","0","5488","stomach","1","2018-01-10 17:06:41","150480"
"A2HA52MJN7CTLM","cs_wg_v9_pilot3","3IKZ72A5B4H1FZGAQY40XV9ESUQFNT","17","0","DOORWAY","1","5","1","1898","doorway","1","2018-01-10 17:06:42","150481"
"A3GE84T9AR3YS9","cs_wg_v9_pilot3","3EKVH9QMEY58STDLD9BQH73V5MJD2P","27","0","KEYBOARD","0","5","0","2877","keyboard","0","2018-01-10 17:06:43","150482"
"A10ECDDI2BYH3K","cs_wg_v9_pilot3","3DYGAII7PL9Y99IWKTSMDJINZB0PQT","1","0","TRAFFIC","0","5","0","5049","traffic","0","2018-01-10 17:06:44","150483"
"AR5LYXBO5D982","cs_wg_v9_pilot3","3HPZF4IVNMUOOM0E6YNA65MIZ12CY5","12","0","FOOTBALL","9","5","0","3278","football","9","2018-01-10 17:06:46","150484"
"A3K43RI91Y567E","cs_wg_v9_pilot3","32ZKVD547FO4YEBK3DYP5RKN8F73BJ","15","0","MACHINE","9","5","0","3597","machine","9","2018-01-10 17:06:46","150485"
"A1F1A2FXG1I6ZY","cs_wg_v9_pilot3","3JPSL1DZ5S06J8Z2FII8JUYNVEDNAO","22","0","KEYBOARD","1","5","0","1456","keyboard","1","2018-01-10 17:06:47","150486"
"A29RJVVL54THB5","cs_wg_v9_pilot3","3SB4CE2TJVWBV2D6HO5HHWPLXSNAXV","29","0","FOOTBALL","0","5","1","2133","football","0","2018-01-10 17:06:47","150487"
"A30EI064NHQEQO","cs_wg_v9_pilot3","3QXNC7EIPIWPTTXQM62ACNRQH3K90K","13","0","DOORWAY","10","5","0","2672","doorway","10","2018-01-10 17:06:47","150488"
"A2HSCKH5NKN5LP","cs_wg_v9_pilot3","392CY0QWG1SZ3I8U91VP1JG6H5NI4S","38","0","STOMACH","9","5","0","1042","Stomach","9","2018-01-10 17:06:48","150489"
"A2MQMMCVZJTFL2","cs_wg_v9_pilot3","3QL2OFSM96JUCNW0ZWEZPPOBVHYNCQ","24","0","WEDDING","1","5","1","2249","WEDDING","1","2018-01-10 17:06:49","150490"
"AIZEEJUMWJ0WX","cs_wg_v9_pilot3","3TU5ZICBRD2D3HJFYCQBRXNXA108QS","23","0","STRUCTURE","1","5","1","2924","structure","1","2018-01-10 17:06:49","150491"
"A16L21AR8X012","cs_wg_v9_pilot3","3MB8LZR5BFUM7L53FWFI0GXUVV7KLY","13","0","BASKET","0","5","0","2055","basket","0","2018-01-10 17:06:50","150492"
"A25CFVQND4A0EV","cs_wg_v9_pilot3","39L1G8WVWQS3LGTS1G50ZF7EM3G310","6","0","UMBRELLA","0","5","1","1424","umbrella","0","2018-01-10 17:06:50","150493"
"A2BRZKFG6WAVER","cs_wg_v9_pilot3","3X1FV8S5JXSK14LE39W9PX33FCSGVA","13","0","FOOTBALL","1","5","0","2601","Football","1","2018-01-10 17:06:50","150494"
"AIUKV0KVALMY6","cs_wg_v9_pilot3","3EJJQNKU9R668TZ8EV9H90Q196SHRH","29","0","BASKET","0","5","0","1612","basket","0","2018-01-10 17:06:52","150495"
"A3P0P0DRSOX52W","cs_wg_v9_pilot3","3X08E93BHVJXPLH7QOFF1EAF45Y667","18","0","STOMACH","9","5","1","2185","Stomach","9","2018-01-10 17:06:52","150496"
"A3GE84T9AR3YS9","cs_wg_v9_pilot3","3EKVH9QMEY58STDLD9BQH73V5MJD2P","28","0","COMMUNITY","10","5","0","1060","community","10","2018-01-10 17:06:52","150497"
"AOB6ZJTDB416G","cs_wg_v9_pilot3","3634BBTX0OV91Y5JTIR8SNDX6VWFID","23","0","BASKET","10","5","0","7618","basket","10","2018-01-10 17:06:53","150498"
"A10ECDDI2BYH3K","cs_wg_v9_pilot3","3DYGAII7PL9Y99IWKTSMDJINZB0PQT","2","0","BASKET","10","5","1","2093","basket","10","2018-01-10 17:06:55","150499"
"A2HSCKH5NKN5LP","cs_wg_v9_pilot3","392CY0QWG1SZ3I8U91VP1JG6H5NI4S","39","0","FOOTBALL","1","5","1","1725","Football","1","2018-01-10 17:06:55","150500"
"A1VW8Y7XCV3DRW","cs_wg_v9_pilot3","3KMS4QQVK2R07TV7TLCK53SAYZLKFT","1","0","WEDDING","10","5","0","5067","wedding","10 points","2018-01-10 17:06:56","150501"
"A29RJVVL54THB5","cs_wg_v9_pilot3","3SB4CE2TJVWBV2D6HO5HHWPLXSNAXV","30","0","BASKET","9","5","0","1263","basket","9","2018-01-10 17:06:57","150502"
"A30EI064NHQEQO","cs_wg_v9_pilot3","3QXNC7EIPIWPTTXQM62ACNRQH3K90K","14","0","TRAFFIC","10","5","0","2017","traffic","10","2018-01-10 17:06:57","150503"
"A2MQMMCVZJTFL2","cs_wg_v9_pilot3","3QL2OFSM96JUCNW0ZWEZPPOBVHYNCQ","25","0","UMBRELLA","10","5","1","1243","UMBRELLA","1","2018-01-10 17:06:58","150504"
"A2HA52MJN7CTLM","cs_wg_v9_pilot3","3IKZ72A5B4H1FZGAQY40XV9ESUQFNT","18","0","KEYBOARD","0","5","0","3918","keyboard","0","2018-01-10 17:06:58","150505"
"A1ZRAXU8G2ORCF","cs_wg_v9_pilot3","31IBVUNM9S0EN4PJSPQR7C3REXSFVA","7","0","HELICOPTER","0","5","1","3471","helicopter","0","2018-01-10 17:06:59","150506"
"A3K43RI91Y567E","cs_wg_v9_pilot3","32ZKVD547FO4YEBK3DYP5RKN8F73BJ","16","0","COMMUNITY","1","5","1","4655","community","1","2018-01-10 17:07:00","150507"
"AIUKV0KVALMY6","cs_wg_v9_pilot3","3EJJQNKU9R668TZ8EV9H90Q196SHRH","30","0","STRUCTURE","10","5","0","1670","structure","10","2018-01-10 17:07:01","150508"
"A25CFVQND4A0EV","cs_wg_v9_pilot3","39L1G8WVWQS3LGTS1G50ZF7EM3G310","7","0","STOMACH","0","5","1","2667","stomach","0","2018-01-10 17:07:01","150509"
"A3GE84T9AR3YS9","cs_wg_v9_pilot3","3EKVH9QMEY58STDLD9BQH73V5MJD2P","29","0","STRUCTURE","10","5","0","1747","structure","10","2018-01-10 17:07:02","150510"
"A1F1A2FXG1I6ZY","cs_wg_v9_pilot3","3JPSL1DZ5S06J8Z2FII8JUYNVEDNAO","23","0","UMBRELLA","10","5","0","4308","umbrella","10","2018-01-10 17:07:02","150511"
"A2BRZKFG6WAVER","cs_wg_v9_pilot3","3X1FV8S5JXSK14LE39W9PX33FCSGVA","14","0","TRAFFIC","10","5","0","4057","Traffic","10","2018-01-10 17:07:03","150512"
"A2HSCKH5NKN5LP","cs_wg_v9_pilot3","392CY0QWG1SZ3I8U91VP1JG6H5NI4S","40","0","WEDDING","0","5","1","1887","Wedding","0","2018-01-10 17:07:03","150513"
"AR5LYXBO5D982","cs_wg_v9_pilot3","3HPZF4IVNMUOOM0E6YNA65MIZ12CY5","13","0","COMMUNITY","10","5","1","1935","community","10","2018-01-10 17:07:04","150514"
"AIZEEJUMWJ0WX","cs_wg_v9_pilot3","3TU5ZICBRD2D3HJFYCQBRXNXA108QS","24","0","BOOKSHELF","0","5","1","6465","bookshelf","0","2018-01-10 17:07:05","150515"
"A30EI064NHQEQO","cs_wg_v9_pilot3","3QXNC7EIPIWPTTXQM62ACNRQH3K90K","15","0","WEDDING","0","5","0","1118","wedding","0","2018-01-10 17:07:05","150516"
"A2MQMMCVZJTFL2","cs_wg_v9_pilot3","3QL2OFSM96JUCNW0ZWEZPPOBVHYNCQ","26","0","STRUCTURE","9","5","1","1418","STRUCTURE","9","2018-01-10 17:07:05","150517"
"A3P0P0DRSOX52W","cs_wg_v9_pilot3","3X08E93BHVJXPLH7QOFF1EAF45Y667","19","0","DOORWAY","10","5","1","2641","doorway","10","2018-01-10 17:07:05","150518"
"A10ECDDI2BYH3K","cs_wg_v9_pilot3","3DYGAII7PL9Y99IWKTSMDJINZB0PQT","3","0","WEDDING","1","5","1","2285","wedding","1","2018-01-10 17:07:06","150519"
"A29RJVVL54THB5","cs_wg_v9_pilot3","3SB4CE2TJVWBV2D6HO5HHWPLXSNAXV","31","0","TRAFFIC","10","5","1","1374","traffic","10","2018-01-10 17:07:06","150520"
"A21KGSK2BDVWOA","cs_wg_v9_pilot3","39U1BHVTDLS4U0513ZPA5LQ9EM83TA","4","0","TRAFFIC","10","5","1","6165","traffic","10","2018-01-10 17:07:06","150521"
"AOB6ZJTDB416G","cs_wg_v9_pilot3","3634BBTX0OV91Y5JTIR8SNDX6VWFID","24","0","TRAFFIC","9","5","0","5648","traffic","9","2018-01-10 17:07:06","150522"
"A16L21AR8X012","cs_wg_v9_pilot3","3MB8LZR5BFUM7L53FWFI0GXUVV7KLY","14","0","BOOKSHELF","1","5","1","5045","bookshelf","1","2018-01-10 17:07:09","150523"
"A1VW8Y7XCV3DRW","cs_wg_v9_pilot3","3KMS4QQVK2R07TV7TLCK53SAYZLKFT","2","0","BASKET","10","5","0","2351","basket","10","2018-01-10 17:07:11","150524"
"A25CFVQND4A0EV","cs_wg_v9_pilot3","39L1G8WVWQS3LGTS1G50ZF7EM3G310","8","0","STOMACH","0","5","1","1995","stomach","0","2018-01-10 17:07:11","150525"
"A3GE84T9AR3YS9","cs_wg_v9_pilot3","3EKVH9QMEY58STDLD9BQH73V5MJD2P","30","0","STRUCTURE","10","5","0","970","structure","10","2018-01-10 17:07:11","150526"
"A2HA52MJN7CTLM","cs_wg_v9_pilot3","3IKZ72A5B4H1FZGAQY40XV9ESUQFNT","19","0","MACHINE","10","5","0","1071","machine","10","2018-01-10 17:07:11","150527"
"AIUKV0KVALMY6","cs_wg_v9_pilot3","3EJJQNKU9R668TZ8EV9H90Q196SHRH","31","0","UMBRELLA","10","5","1","1906","umbrella","10","2018-01-10 17:07:13","150528"
"A30EI064NHQEQO","cs_wg_v9_pilot3","3QXNC7EIPIWPTTXQM62ACNRQH3K90K","16","0","BOOKSHELF","9","5","0","862","bookshelf","9","2018-01-10 17:07:13","150529"
"A1F1A2FXG1I6ZY","cs_wg_v9_pilot3","3JPSL1DZ5S06J8Z2FII8JUYNVEDNAO","24","0","KEYBOARD","1","5","1","3809","keyboard","1","2018-01-10 17:07:13","150530"
"A2HSCKH5NKN5LP","cs_wg_v9_pilot3","392CY0QWG1SZ3I8U91VP1JG6H5NI4S","41","0","STOMACH","9","5","0","4902","Stomach","9","2018-01-10 17:07:14","150531"
"A2BRZKFG6WAVER","cs_wg_v9_pilot3","3X1FV8S5JXSK14LE39W9PX33FCSGVA","15","0","MACHINE","0","5","1","2846","machine","0","2018-01-10 17:07:14","150532"
"A3K43RI91Y567E","cs_wg_v9_pilot3","32ZKVD547FO4YEBK3DYP5RKN8F73BJ","17","0","HELICOPTER","0","5","1","2992","helicopter","0","2018-01-10 17:07:15","150533"
"AOB6ZJTDB416G","cs_wg_v9_pilot3","3634BBTX0OV91Y5JTIR8SNDX6VWFID","25","0","DOORWAY","9","5","0","1763","doorway","9","2018-01-10 17:07:16","150534"
"AIZEEJUMWJ0WX","cs_wg_v9_pilot3","3TU5ZICBRD2D3HJFYCQBRXNXA108QS","25","0","UMBRELLA","10","5","0","2605","umbrella","10","2018-01-10 17:07:16","150535"
"A29RJVVL54THB5","cs_wg_v9_pilot3","3SB4CE2TJVWBV2D6HO5HHWPLXSNAXV","32","0","BOOKSHELF","10","5","1","1521","bookshelf","10","2018-01-10 17:07:17","150536"
"A2MQMMCVZJTFL2","cs_wg_v9_pilot3","3QL2OFSM96JUCNW0ZWEZPPOBVHYNCQ","27","0","KEYBOARD","1","5","1","1210","KEYBOARD","1","2018-01-10 17:07:17","150537"
"A1ZRAXU8G2ORCF","cs_wg_v9_pilot3","31IBVUNM9S0EN4PJSPQR7C3REXSFVA","8","0","TRAFFIC","10","5","0","5070","traffic","10","2018-01-10 17:07:17","150538"
"A10ECDDI2BYH3K","cs_wg_v9_pilot3","3DYGAII7PL9Y99IWKTSMDJINZB0PQT","4","0","DOORWAY","10","5","1","1075","doorway","10","2018-01-10 17:07:18","150539"
"A3GE84T9AR3YS9","cs_wg_v9_pilot3","3EKVH9QMEY58STDLD9BQH73V5MJD2P","31","0","TRAFFIC","0","5","1","1965","TRAFFIC","0","2018-01-10 17:07:20","150540"
"A2HSCKH5NKN5LP","cs_wg_v9_pilot3","392CY0QWG1SZ3I8U91VP1JG6H5NI4S","42","0","COMMUNITY","10","5","0","611","Community","10","2018-01-10 17:07:20","150541"
"A3P0P0DRSOX52W","cs_wg_v9_pilot3","3X08E93BHVJXPLH7QOFF1EAF45Y667","20","0","STRUCTURE","0","5","0","3115","Structure","0","2018-01-10 17:07:21","150542"
"A30EI064NHQEQO","cs_wg_v9_pilot3","3QXNC7EIPIWPTTXQM62ACNRQH3K90K","17","0","TRAFFIC","10","5","0","1159","traffic","10","2018-01-10 17:07:21","150543"
"A25CFVQND4A0EV","cs_wg_v9_pilot3","39L1G8WVWQS3LGTS1G50ZF7EM3G310","9","0","UMBRELLA","0","5","1","1401","umbrella","0","2018-01-10 17:07:21","150544"
"A21KGSK2BDVWOA","cs_wg_v9_pilot3","39U1BHVTDLS4U0513ZPA5LQ9EM83TA","5","0","DOORWAY","9","5","0","2355","doorway","9","2018-01-10 17:07:22","150545"
"AIUKV0KVALMY6","cs_wg_v9_pilot3","3EJJQNKU9R668TZ8EV9H90Q196SHRH","32","0","COMMUNITY","10","5","0","1524","community","10","2018-01-10 17:07:22","150546"
"AKB82TCYUECWD","cs_wg_v9_pilot3","39GXDJN2OTF58PFWKBKLXKM5RTF8VM","0","0","TRAFFIC","10","5","0","17878","TRAFFIC","1O","2018-01-10 17:07:24","150547"
"A1F1A2FXG1I6ZY","cs_wg_v9_pilot3","3JPSL1DZ5S06J8Z2FII8JUYNVEDNAO","25","0","STRUCTURE","10","5","0","1927","structure","10","2018-01-10 17:07:24","150548"
"AOB6ZJTDB416G","cs_wg_v9_pilot3","3634BBTX0OV91Y5JTIR8SNDX6VWFID","26","0","WEDDING","10","5","0","1642","wedding","10","2018-01-10 17:07:25","150549"
"A16L21AR8X012","cs_wg_v9_pilot3","3MB8LZR5BFUM7L53FWFI0GXUVV7KLY","15","0","DOORWAY","0","5","0","4589","doorway","0","2018-01-10 17:07:26","150550"
"A2BRZKFG6WAVER","cs_wg_v9_pilot3","3X1FV8S5JXSK14LE39W9PX33FCSGVA","16","0","FOOTBALL","1","5","1","2472","football","1","2018-01-10 17:07:26","150551"
"A2MQMMCVZJTFL2","cs_wg_v9_pilot3","3QL2OFSM96JUCNW0ZWEZPPOBVHYNCQ","28","0","HELICOPTER","0","5","1","1217","HELICOPTER","0","2018-01-10 17:07:26","150552"
"A3K43RI91Y567E","cs_wg_v9_pilot3","32ZKVD547FO4YEBK3DYP5RKN8F73BJ","18","0","UMBRELLA","10","5","0","1617","umbrella","10","2018-01-10 17:07:27","150553"
"A2HA52MJN7CTLM","cs_wg_v9_pilot3","3IKZ72A5B4H1FZGAQY40XV9ESUQFNT","20","0","FOOTBALL","0","5","0","1696","football","0","2018-01-10 17:07:28","150554"
"A10ECDDI2BYH3K","cs_wg_v9_pilot3","3DYGAII7PL9Y99IWKTSMDJINZB0PQT","5","0","MACHINE","0","5","1","1372","machine","0","2018-01-10 17:07:28","150555"
"A29RJVVL54THB5","cs_wg_v9_pilot3","3SB4CE2TJVWBV2D6HO5HHWPLXSNAXV","33","0","BOOKSHELF","10","5","0","1744","bookshelf","10","2018-01-10 17:07:28","150556"
"AIZEEJUMWJ0WX","cs_wg_v9_pilot3","3TU5ZICBRD2D3HJFYCQBRXNXA108QS","26","0","STOMACH","1","5","0","1847","stomach","1","2018-01-10 17:07:28","150557"
"A2HSCKH5NKN5LP","cs_wg_v9_pilot3","392CY0QWG1SZ3I8U91VP1JG6H5NI4S","43","0","MACHINE","1","5","0","1547","Machine","1","2018-01-10 17:07:28","150558"
"A30EI064NHQEQO","cs_wg_v9_pilot3","3QXNC7EIPIWPTTXQM62ACNRQH3K90K","18","0","BASKET","9","5","0","938","basket","9","2018-01-10 17:07:29","150559"
"A3GE84T9AR3YS9","cs_wg_v9_pilot3","3EKVH9QMEY58STDLD9BQH73V5MJD2P","32","0","TRAFFIC","0","5","1","1316","TRAFFIC","0","2018-01-10 17:07:29","150560"
"AIUKV0KVALMY6","cs_wg_v9_pilot3","3EJJQNKU9R668TZ8EV9H90Q196SHRH","33","0","WEDDING","1","5","0","1415","wedding","1","2018-01-10 17:07:30","150561"
"A1VW8Y7XCV3DRW","cs_wg_v9_pilot3","3KMS4QQVK2R07TV7TLCK53SAYZLKFT","3","0","MACHINE","9","5","0","3520","machine","9","2018-01-10 17:07:31","150562"
"A1ZRAXU8G2ORCF","cs_wg_v9_pilot3","31IBVUNM9S0EN4PJSPQR7C3REXSFVA","9","0","MACHINE","1","5","1","3878","machine","1","2018-01-10 17:07:32","150563"
"AR5LYXBO5D982","cs_wg_v9_pilot3","3HPZF4IVNMUOOM0E6YNA65MIZ12CY5","14","0","WEDDING","1","5","1","1724","wedding","1","2018-01-10 17:07:34","150564"
"A25CFVQND4A0EV","cs_wg_v9_pilot3","39L1G8WVWQS3LGTS1G50ZF7EM3G310","10","0","KEYBOARD","9","5","1","1488","keyboard","9","2018-01-10 17:07:35","150565"
"A2HSCKH5NKN5LP","cs_wg_v9_pilot3","392CY0QWG1SZ3I8U91VP1JG6H5NI4S","44","0","HELICOPTER","1","5","0","758","Helicopter","1","2018-01-10 17:07:35","150566"
"A2MQMMCVZJTFL2","cs_wg_v9_pilot3","3QL2OFSM96JUCNW0ZWEZPPOBVHYNCQ","29","0","UMBRELLA","10","5","1","1624","UMBRELLA","10","2018-01-10 17:07:36","150567"
"A2BRZKFG6WAVER","cs_wg_v9_pilot3","3X1FV8S5JXSK14LE39W9PX33FCSGVA","17","0","DOORWAY","10","5","0","1742","doorway","10","2018-01-10 17:07:36","150568"
"A1F1A2FXG1I6ZY","cs_wg_v9_pilot3","3JPSL1DZ5S06J8Z2FII8JUYNVEDNAO","26","0","HELICOPTER","9","5","0","3135","helicopter","9","2018-01-10 17:07:37","150569"
"AOB6ZJTDB416G","cs_wg_v9_pilot3","3634BBTX0OV91Y5JTIR8SNDX6VWFID","27","0","UMBRELLA","1","5","1","4494","umbrella","1","2018-01-10 17:07:37","150570"
"A3P0P0DRSOX52W","cs_wg_v9_pilot3","3X08E93BHVJXPLH7QOFF1EAF45Y667","21","0","UMBRELLA","9","5","0","4584","Umbrella","9","2018-01-10 17:07:37","150571"
"A30EI064NHQEQO","cs_wg_v9_pilot3","3QXNC7EIPIWPTTXQM62ACNRQH3K90K","19","0","MACHINE","1","5","0","1166","machine","1","2018-01-10 17:07:37","150572"
"A10ECDDI2BYH3K","cs_wg_v9_pilot3","3DYGAII7PL9Y99IWKTSMDJINZB0PQT","6","0","KEYBOARD","9","5","1","90","keyboard","9","2018-01-10 17:07:38","150573"
"A29RJVVL54THB5","cs_wg_v9_pilot3","3SB4CE2TJVWBV2D6HO5HHWPLXSNAXV","34","0","COMMUNITY","0","5","1","1790","community","0","2018-01-10 17:07:38","150574"
"A3GE84T9AR3YS9","cs_wg_v9_pilot3","3EKVH9QMEY58STDLD9BQH73V5MJD2P","33","0","BASKET","1","5","1","2134","BASKET","1","2018-01-10 17:07:38","150575"
"AIUKV0KVALMY6","cs_wg_v9_pilot3","3EJJQNKU9R668TZ8EV9H90Q196SHRH","34","0","FOOTBALL","0","5","1","1547","football","0","2018-01-10 17:07:40","150576"
"A2HA52MJN7CTLM","cs_wg_v9_pilot3","3IKZ72A5B4H1FZGAQY40XV9ESUQFNT","21","0","HELICOPTER","10","5","0","2003","helicopter","10","2018-01-10 17:07:40","150577"
"A3K43RI91Y567E","cs_wg_v9_pilot3","32ZKVD547FO4YEBK3DYP5RKN8F73BJ","19","0","TRAFFIC","0","5","1","3232","traffic","0","2018-01-10 17:07:41","150578"
"A21KGSK2BDVWOA","cs_wg_v9_pilot3","39U1BHVTDLS4U0513ZPA5LQ9EM83TA","6","0","STRUCTURE","10","5","0","4257","structure","10","2018-01-10 17:07:41","150579"
"A16L21AR8X012","cs_wg_v9_pilot3","3MB8LZR5BFUM7L53FWFI0GXUVV7KLY","16","0","STRUCTURE","1","5","0","5143","structure","1","2018-01-10 17:07:44","150580"
"A2HSCKH5NKN5LP","cs_wg_v9_pilot3","392CY0QWG1SZ3I8U91VP1JG6H5NI4S","45","0","STOMACH","9","5","0","1926","Stomach","9","2018-01-10 17:07:44","150581"
"AR5LYXBO5D982","cs_wg_v9_pilot3","3HPZF4IVNMUOOM0E6YNA65MIZ12CY5","15","0","DOORWAY","1","5","1","1847","doorway","1","2018-01-10 17:07:44","150582"
"A2MQMMCVZJTFL2","cs_wg_v9_pilot3","3QL2OFSM96JUCNW0ZWEZPPOBVHYNCQ","30","0","LADDER","9","5","1","1204","LADDER","9","2018-01-10 17:07:44","150583"
"A25CFVQND4A0EV","cs_wg_v9_pilot3","39L1G8WVWQS3LGTS1G50ZF7EM3G310","11","0","WEDDING","0","5","1","1456","wedding","0","2018-01-10 17:07:44","150584"
"A1ZRAXU8G2ORCF","cs_wg_v9_pilot3","31IBVUNM9S0EN4PJSPQR7C3REXSFVA","10","0","KEYBOARD","9","5","0","3201","keyboard","9","2018-01-10 17:07:45","150585"
"A30EI064NHQEQO","cs_wg_v9_pilot3","3QXNC7EIPIWPTTXQM62ACNRQH3K90K","20","0","LADDER","1","5","0","1267","ladder","1","2018-01-10 17:07:45","150586"
"A1VW8Y7XCV3DRW","cs_wg_v9_pilot3","3KMS4QQVK2R07TV7TLCK53SAYZLKFT","4","0","BASKET","10","5","0","2481","basket","10","2018-01-10 17:07:46","150587"
"AKB82TCYUECWD","cs_wg_v9_pilot3","39GXDJN2OTF58PFWKBKLXKM5RTF8VM","1","0","KEYBOARD","9","5","0","2952","KEYBOARD","9","2018-01-10 17:07:46","150588"
"A29RJVVL54THB5","cs_wg_v9_pilot3","3SB4CE2TJVWBV2D6HO5HHWPLXSNAXV","35","0","TRAFFIC","10","5","1","2281","traffic","10","2018-01-10 17:07:47","150589"
"A10ECDDI2BYH3K","cs_wg_v9_pilot3","3DYGAII7PL9Y99IWKTSMDJINZB0PQT","7","0","DOORWAY","10","5","1","1694","doorway","10","2018-01-10 17:07:48","150590"
"A2BRZKFG6WAVER","cs_wg_v9_pilot3","3X1FV8S5JXSK14LE39W9PX33FCSGVA","18","0","TRAFFIC","10","5","0","5012","traffic","10","2018-01-10 17:07:49","150591"
"A1F1A2FXG1I6ZY","cs_wg_v9_pilot3","3JPSL1DZ5S06J8Z2FII8JUYNVEDNAO","27","0","UMBRELLA","10","5","0","1794","umbrella","10","2018-01-10 17:07:49","150592"
"A3GE84T9AR3YS9","cs_wg_v9_pilot3","3EKVH9QMEY58STDLD9BQH73V5MJD2P","34","0","UMBRELLA","1","5","1","1317","UMBRELLA","1","2018-01-10 17:07:49","150593"
"AIUKV0KVALMY6","cs_wg_v9_pilot3","3EJJQNKU9R668TZ8EV9H90Q196SHRH","35","0","STOMACH","10","5","1","2002","stomach","10","2018-01-10 17:07:50","150594"
"A2HSCKH5NKN5LP","cs_wg_v9_pilot3","392CY0QWG1SZ3I8U91VP1JG6H5NI4S","46","0","DOORWAY","0","5","1","1342","Doorway","0","2018-01-10 17:07:52","150595"
"A3P0P0DRSOX52W","cs_wg_v9_pilot3","3X08E93BHVJXPLH7QOFF1EAF45Y667","22","0","COMMUNITY","1","5","1","2554","Community","1","2018-01-10 17:07:52","150596"
"A2MQMMCVZJTFL2","cs_wg_v9_pilot3","3QL2OFSM96JUCNW0ZWEZPPOBVHYNCQ","31","0","TRAFFIC","10","5","1","1186","TRAFFIC","10","2018-01-10 17:07:52","150597"
"A3K43RI91Y567E","cs_wg_v9_pilot3","32ZKVD547FO4YEBK3DYP5RKN8F73BJ","20","0","BASKET","10","5","0","2699","basket","10","2018-01-10 17:07:53","150598"
"AOB6ZJTDB416G","cs_wg_v9_pilot3","3634BBTX0OV91Y5JTIR8SNDX6VWFID","28","0","STRUCTURE","1","5","0","7925","structure","1","2018-01-10 17:07:53","150599"
"A21KGSK2BDVWOA","cs_wg_v9_pilot3","39U1BHVTDLS4U0513ZPA5LQ9EM83TA","7","0","BASKET","1","5","0","1921","basket","1","2018-01-10 17:07:55","150600"
"A2HA52MJN7CTLM","cs_wg_v9_pilot3","3IKZ72A5B4H1FZGAQY40XV9ESUQFNT","22","0","HELICOPTER","10","5","0","1331","helicopter","10
","2018-01-10 17:07:55","150601"
"A25CFVQND4A0EV","cs_wg_v9_pilot3","39L1G8WVWQS3LGTS1G50ZF7EM3G310","12","0","KEYBOARD","9","5","0","2987","keyboard","9","2018-01-10 17:07:57","150602"
"A30EI064NHQEQO","cs_wg_v9_pilot3","3QXNC7EIPIWPTTXQM62ACNRQH3K90K","21","0","UMBRELLA","1","5","1","4215","umbrella","1","2018-01-10 17:07:57","150603"
"A3GE84T9AR3YS9","cs_wg_v9_pilot3","3EKVH9QMEY58STDLD9BQH73V5MJD2P","35","0","STOMACH","1","5","1","1627","STOMACH","1","2018-01-10 17:07:57","150604"
"A29RJVVL54THB5","cs_wg_v9_pilot3","3SB4CE2TJVWBV2D6HO5HHWPLXSNAXV","36","0","BOOKSHELF","10","5","0","1639","bookshelf","10","2018-01-10 17:07:58","150605"
"AIUKV0KVALMY6","cs_wg_v9_pilot3","3EJJQNKU9R668TZ8EV9H90Q196SHRH","36","0","KEYBOARD","1","5","1","1668","keyboard","1","2018-01-10 17:07:58","150606"
"A2HSCKH5NKN5LP","cs_wg_v9_pilot3","392CY0QWG1SZ3I8U91VP1JG6H5NI4S","47","0","DOORWAY","0","5","1","1131","Doorway","0","2018-01-10 17:07:59","150607"
"AR5LYXBO5D982","cs_wg_v9_pilot3","3HPZF4IVNMUOOM0E6YNA65MIZ12CY5","16","0","BOOKSHELF","0","5","1","1538","bookshelf","0
","2018-01-10 17:07:59","150608"
"A16L21AR8X012","cs_wg_v9_pilot3","3MB8LZR5BFUM7L53FWFI0GXUVV7KLY","17","0","UMBRELLA","10","5","0","2892","umbrella","10","2018-01-10 17:07:59","150609"
"A1ZRAXU8G2ORCF","cs_wg_v9_pilot3","31IBVUNM9S0EN4PJSPQR7C3REXSFVA","11","0","BOOKSHELF","9","5","0","3399","bookself","9","2018-01-10 17:07:59","150610"
"A1F1A2FXG1I6ZY","cs_wg_v9_pilot3","3JPSL1DZ5S06J8Z2FII8JUYNVEDNAO","28","0","WEDDING","1","5","0","2328","wedding","1","2018-01-10 17:08:00","150611"
"A2BRZKFG6WAVER","cs_wg_v9_pilot3","3X1FV8S5JXSK14LE39W9PX33FCSGVA","19","0","BOOKSHELF","10","5","0","2021","bookshelf","10","2018-01-10 17:08:00","150612"
"A2MQMMCVZJTFL2","cs_wg_v9_pilot3","3QL2OFSM96JUCNW0ZWEZPPOBVHYNCQ","32","0","BOOKSHELF","0","5","1","1037","BOOKSHELF","0","2018-01-10 17:08:00","150613"
"A10ECDDI2BYH3K","cs_wg_v9_pilot3","3DYGAII7PL9Y99IWKTSMDJINZB0PQT","8","0","HELICOPTER","0","5","1","211","helicopter","10","2018-01-10 17:08:01","150614"
"A3K43RI91Y567E","cs_wg_v9_pilot3","32ZKVD547FO4YEBK3DYP5RKN8F73BJ","21","0","TRAFFIC","0","5","1","1798","traffic","0","2018-01-10 17:08:03","150615"
"AOB6ZJTDB416G","cs_wg_v9_pilot3","3634BBTX0OV91Y5JTIR8SNDX6VWFID","29","0","FOOTBALL","0","5","1","4331","football","0","2018-01-10 17:08:05","150616"
"AIZEEJUMWJ0WX","cs_wg_v9_pilot3","3TU5ZICBRD2D3HJFYCQBRXNXA108QS","27","0","LADDER","10","5","0","2580","ladder","10","2018-01-10 17:08:05","150617"
"A1VW8Y7XCV3DRW","cs_wg_v9_pilot3","3KMS4QQVK2R07TV7TLCK53SAYZLKFT","5","0","HELICOPTER","0","5","0","5366","helicopter","0","2018-01-10 17:08:06","150618"
"A2HSCKH5NKN5LP","cs_wg_v9_pilot3","392CY0QWG1SZ3I8U91VP1JG6H5NI4S","48","0","TRAFFIC","10","5","0","1395","Traffic","10","2018-01-10 17:08:06","150619"
"A30EI064NHQEQO","cs_wg_v9_pilot3","3QXNC7EIPIWPTTXQM62ACNRQH3K90K","22","0","FOOTBALL","0","5","0","1706","football","0","2018-01-10 17:08:07","150620"
"A3GE84T9AR3YS9","cs_wg_v9_pilot3","3EKVH9QMEY58STDLD9BQH73V5MJD2P","36","0","MACHINE","0","5","1","1309","MACHINE","0","2018-01-10 17:08:07","150621"
"A29RJVVL54THB5","cs_wg_v9_pilot3","3SB4CE2TJVWBV2D6HO5HHWPLXSNAXV","37","0","DOORWAY","9","5","0","1403","doorway","9","2018-01-10 17:08:07","150622"
"AIUKV0KVALMY6","cs_wg_v9_pilot3","3EJJQNKU9R668TZ8EV9H90Q196SHRH","37","0","DOORWAY","0","5","1","1766","doorway","0","2018-01-10 17:08:07","150623"
"A25CFVQND4A0EV","cs_wg_v9_pilot3","39L1G8WVWQS3LGTS1G50ZF7EM3G310","13","0","HELICOPTER","10","5","1","1214","helicopter","10","2018-01-10 17:08:08","150624"
"A2MQMMCVZJTFL2","cs_wg_v9_pilot3","3QL2OFSM96JUCNW0ZWEZPPOBVHYNCQ","33","0","FOOTBALL","10","5","0","2397","FOOTBALL","10","2018-01-10 17:08:09","150625"
"A2HA52MJN7CTLM","cs_wg_v9_pilot3","3IKZ72A5B4H1FZGAQY40XV9ESUQFNT","23","0","STOMACH","9","5","0","2971","stomach","9","2018-01-10 17:08:10","150626"
"A10ECDDI2BYH3K","cs_wg_v9_pilot3","3DYGAII7PL9Y99IWKTSMDJINZB0PQT","9","0","WEDDING","1","5","1","2745","WEDDING","1","2018-01-10 17:08:10","150627"
"AKB82TCYUECWD","cs_wg_v9_pilot3","39GXDJN2OTF58PFWKBKLXKM5RTF8VM","2","0","LADDER","0","5","1","5570","LADDER","0","2018-01-10 17:08:10","150628"
"A1F1A2FXG1I6ZY","cs_wg_v9_pilot3","3JPSL1DZ5S06J8Z2FII8JUYNVEDNAO","29","0","UMBRELLA","10","5","0","1805","umbrella","10","2018-01-10 17:08:11","150629"
"A3P0P0DRSOX52W","cs_wg_v9_pilot3","3X08E93BHVJXPLH7QOFF1EAF45Y667","23","0","KEYBOARD","1","5","1","2526","Keyboard","1
","2018-01-10 17:08:13","150630"
"AR5LYXBO5D982","cs_wg_v9_pilot3","3HPZF4IVNMUOOM0E6YNA65MIZ12CY5","17","0","STRUCTURE","10","5","0","7083","structure","10","2018-01-10 17:08:13","150631"
"A1ZRAXU8G2ORCF","cs_wg_v9_pilot3","31IBVUNM9S0EN4PJSPQR7C3REXSFVA","12","0","COMMUNITY","10","5","1","2691","community","10","2018-01-10 17:08:14","150632"
"A2HSCKH5NKN5LP","cs_wg_v9_pilot3","392CY0QWG1SZ3I8U91VP1JG6H5NI4S","49","0","LADDER","10","5","0","1902","Ladder","10","2018-01-10 17:08:15","150633"
"A3K43RI91Y567E","cs_wg_v9_pilot3","32ZKVD547FO4YEBK3DYP5RKN8F73BJ","22","0","BASKET","10","5","0","2693","basket","10","2018-01-10 17:08:15","150634"
"A16L21AR8X012","cs_wg_v9_pilot3","3MB8LZR5BFUM7L53FWFI0GXUVV7KLY","18","0","KEYBOARD","10","5","1","2662","keyboard","10","2018-01-10 17:08:16","150635"
"AOB6ZJTDB416G","cs_wg_v9_pilot3","3634BBTX0OV91Y5JTIR8SNDX6VWFID","30","0","HELICOPTER","10","5","0","3088","helicopter","10","2018-01-10 17:08:16","150636"
"AIUKV0KVALMY6","cs_wg_v9_pilot3","3EJJQNKU9R668TZ8EV9H90Q196SHRH","38","0","BOOKSHELF","0","5","1","1706","bookshelf","0","2018-01-10 17:08:16","150637"
"A30EI064NHQEQO","cs_wg_v9_pilot3","3QXNC7EIPIWPTTXQM62ACNRQH3K90K","23","0","UMBRELLA","1","5","1","2548","umbrella","1","2018-01-10 17:08:17","150638"
"AIZEEJUMWJ0WX","cs_wg_v9_pilot3","3TU5ZICBRD2D3HJFYCQBRXNXA108QS","28","0","LADDER","10","5","0","3191","ladder","10","2018-01-10 17:08:17","150639"
"A29RJVVL54THB5","cs_wg_v9_pilot3","3SB4CE2TJVWBV2D6HO5HHWPLXSNAXV","38","0","WEDDING","1","5","1","1627","wedding","1","2018-01-10 17:08:18","150640"
"A3GE84T9AR3YS9","cs_wg_v9_pilot3","3EKVH9QMEY58STDLD9BQH73V5MJD2P","37","0","BOOKSHELF","9","5","1","3834","BOOKSHELF","9","2018-01-10 17:08:18","150641"
"A10ECDDI2BYH3K","cs_wg_v9_pilot3","3DYGAII7PL9Y99IWKTSMDJINZB0PQT","10","0","TRAFFIC","0","5","1","1846","TRAFFIC","0","2018-01-10 17:08:19","150642"
"A21KGSK2BDVWOA","cs_wg_v9_pilot3","39U1BHVTDLS4U0513ZPA5LQ9EM83TA","8","0","HELICOPTER","0","5","1","6561","helicopter","0","2018-01-10 17:08:19","150643"
"A25CFVQND4A0EV","cs_wg_v9_pilot3","39L1G8WVWQS3LGTS1G50ZF7EM3G310","14","0","DOORWAY","0","5","1","3081","doorway","0","2018-01-10 17:08:19","150644"
"A2MQMMCVZJTFL2","cs_wg_v9_pilot3","3QL2OFSM96JUCNW0ZWEZPPOBVHYNCQ","34","0","HELICOPTER","0","5","1","1740","HELICOPTER","0","2018-01-10 17:08:21","150645"
"AR5LYXBO5D982","cs_wg_v9_pilot3","3HPZF4IVNMUOOM0E6YNA65MIZ12CY5","18","0","LADDER","0","5","1","1517","ladder","0","2018-01-10 17:08:21","150646"
"A1VW8Y7XCV3DRW","cs_wg_v9_pilot3","3KMS4QQVK2R07TV7TLCK53SAYZLKFT","6","0","BOOKSHELF","1","5","0","2957","bookshelf","1","2018-01-10 17:08:22","150647"
"A1F1A2FXG1I6ZY","cs_wg_v9_pilot3","3JPSL1DZ5S06J8Z2FII8JUYNVEDNAO","30","0","STRUCTURE","10","5","0","2071","structure","10","2018-01-10 17:08:22","150648"
"A2HSCKH5NKN5LP","cs_wg_v9_pilot3","392CY0QWG1SZ3I8U91VP1JG6H5NI4S","50","0","STOMACH","9","5","1","3639","Stomach","9","2018-01-10 17:08:24","150649"
"A2HA52MJN7CTLM","cs_wg_v9_pilot3","3IKZ72A5B4H1FZGAQY40XV9ESUQFNT","24","0","KEYBOARD","0","5","1","2615","keyboard","0","2018-01-10 17:08:24","150650"
"A3P0P0DRSOX52W","cs_wg_v9_pilot3","3X08E93BHVJXPLH7QOFF1EAF45Y667","24","0","MACHINE","0","5","1","2401","Machine","0","2018-01-10 17:08:25","150651"
"A2BRZKFG6WAVER","cs_wg_v9_pilot3","3X1FV8S5JXSK14LE39W9PX33FCSGVA","20","0","STOMACH","1","5","1","8947","stomach","1","2018-01-10 17:08:25","150652"
"A30EI064NHQEQO","cs_wg_v9_pilot3","3QXNC7EIPIWPTTXQM62ACNRQH3K90K","24","0","BOOKSHELF","9","5","0","1390","bookshelf","9","2018-01-10 17:08:27","150653"
"AIUKV0KVALMY6","cs_wg_v9_pilot3","3EJJQNKU9R668TZ8EV9H90Q196SHRH","39","0","BOOKSHELF","0","5","1","2230","bookshelf","0","2018-01-10 17:08:27","150654"
"A3GE84T9AR3YS9","cs_wg_v9_pilot3","3EKVH9QMEY58STDLD9BQH73V5MJD2P","38","0","MACHINE","0","5","1","1636","MACHINE","0","2018-01-10 17:08:28","150655"
"A1ZRAXU8G2ORCF","cs_wg_v9_pilot3","31IBVUNM9S0EN4PJSPQR7C3REXSFVA","13","0","KEYBOARD","9","5","0","3071","keyboard","9","2018-01-10 17:08:28","150656"
"A10ECDDI2BYH3K","cs_wg_v9_pilot3","3DYGAII7PL9Y99IWKTSMDJINZB0PQT","11","0","WEDDING","1","5","1","1922","WEDDING","1","2018-01-10 17:08:28","150657"
"A3K43RI91Y567E","cs_wg_v9_pilot3","32ZKVD547FO4YEBK3DYP5RKN8F73BJ","23","0","UMBRELLA","10","5","0","1643","umbrella","10","2018-01-10 17:08:28","150658"
"A29RJVVL54THB5","cs_wg_v9_pilot3","3SB4CE2TJVWBV2D6HO5HHWPLXSNAXV","39","0","DOORWAY","9","5","0","1797","doorway","9","2018-01-10 17:08:29","150659"
"AIZEEJUMWJ0WX","cs_wg_v9_pilot3","3TU5ZICBRD2D3HJFYCQBRXNXA108QS","29","0","COMMUNITY","9","5","0","2849","community","9","2018-01-10 17:08:30","150660"
"AOB6ZJTDB416G","cs_wg_v9_pilot3","3634BBTX0OV91Y5JTIR8SNDX6VWFID","31","0","BOOKSHELF","10","5","0","4809","bookshelf","10","2018-01-10 17:08:30","150661"
"A25CFVQND4A0EV","cs_wg_v9_pilot3","39L1G8WVWQS3LGTS1G50ZF7EM3G310","15","0","STRUCTURE","1","5","1","2773","structure","1","2018-01-10 17:08:30","150662"
"A16L21AR8X012","cs_wg_v9_pilot3","3MB8LZR5BFUM7L53FWFI0GXUVV7KLY","19","0","LADDER","9","5","0","2173","ladder","9","2018-01-10 17:08:30","150663"
"A1F1A2FXG1I6ZY","cs_wg_v9_pilot3","3JPSL1DZ5S06J8Z2FII8JUYNVEDNAO","31","0","TRAFFIC","0","5","1","2217","traffic","0","2018-01-10 17:08:31","150664"
"A2HSCKH5NKN5LP","cs_wg_v9_pilot3","392CY0QWG1SZ3I8U91VP1JG6H5NI4S","51","0","UMBRELLA","10","5","0","686","Umbrella","10","2018-01-10 17:08:32","150665"
"A2MQMMCVZJTFL2","cs_wg_v9_pilot3","3QL2OFSM96JUCNW0ZWEZPPOBVHYNCQ","35","0","LADDER","9","5","1","3652","LADDER","9","2018-01-10 17:08:32","150666"
"AR5LYXBO5D982","cs_wg_v9_pilot3","3HPZF4IVNMUOOM0E6YNA65MIZ12CY5","19","0","TRAFFIC","1","5","1","3178","traffic","1","2018-01-10 17:08:33","150667"
"A30EI064NHQEQO","cs_wg_v9_pilot3","3QXNC7EIPIWPTTXQM62ACNRQH3K90K","25","0","DOORWAY","10","5","0","824","doorway","10","2018-01-10 17:08:35","150668"
"AIUKV0KVALMY6","cs_wg_v9_pilot3","3EJJQNKU9R668TZ8EV9H90Q196SHRH","40","0","LADDER","9","5","0","1085","ladder","9","2018-01-10 17:08:36","150669"
"A2HA52MJN7CTLM","cs_wg_v9_pilot3","3IKZ72A5B4H1FZGAQY40XV9ESUQFNT","25","0","LADDER","1","5","0","3440","ladder","1","2018-01-10 17:08:36","150670"
"A3GE84T9AR3YS9","cs_wg_v9_pilot3","3EKVH9QMEY58STDLD9BQH73V5MJD2P","39","0","BASKET","1","5","1","2968","BASKET","1","2018-01-10 17:08:38","150671"
"A3P0P0DRSOX52W","cs_wg_v9_pilot3","3X08E93BHVJXPLH7QOFF1EAF45Y667","25","0","TRAFFIC","1","5","0","4935","Traffic","1","2018-01-10 17:08:39","150672"
"A10ECDDI2BYH3K","cs_wg_v9_pilot3","3DYGAII7PL9Y99IWKTSMDJINZB0PQT","12","0","HELICOPTER","0","5","1","722","HELICOPTER","0","2018-01-10 17:08:39","150673"
"A2HSCKH5NKN5LP","cs_wg_v9_pilot3","392CY0QWG1SZ3I8U91VP1JG6H5NI4S","52","0","MACHINE","1","5","1","1483","Machine","1","2018-01-10 17:08:39","150674"
"A21KGSK2BDVWOA","cs_wg_v9_pilot3","39U1BHVTDLS4U0513ZPA5LQ9EM83TA","9","0","KEYBOARD","9","5","0","3157","keyboard","9","2018-01-10 17:08:39","150675"
"A2MQMMCVZJTFL2","cs_wg_v9_pilot3","3QL2OFSM96JUCNW0ZWEZPPOBVHYNCQ","36","0","MACHINE","9","5","1","1196","MACHINE","9","2018-01-10 17:08:40","150676"
"A29RJVVL54THB5","cs_wg_v9_pilot3","3SB4CE2TJVWBV2D6HO5HHWPLXSNAXV","40","0","UMBRELLA","1","5","0","1499","umbrella","1","2018-01-10 17:08:40","150677"
"A1F1A2FXG1I6ZY","cs_wg_v9_pilot3","3JPSL1DZ5S06J8Z2FII8JUYNVEDNAO","32","0","STRUCTURE","10","5","0","1792","structure","10","2018-01-10 17:08:41","150678"
"A2BRZKFG6WAVER","cs_wg_v9_pilot3","3X1FV8S5JXSK14LE39W9PX33FCSGVA","21","0","UMBRELLA","0","5","1","3529","umbrella","0","2018-01-10 17:08:41","150679"
"A3K43RI91Y567E","cs_wg_v9_pilot3","32ZKVD547FO4YEBK3DYP5RKN8F73BJ","24","0","COMMUNITY","1","5","1","2743","community","1","2018-01-10 17:08:41","150680"
"A25CFVQND4A0EV","cs_wg_v9_pilot3","39L1G8WVWQS3LGTS1G50ZF7EM3G310","16","0","UMBRELLA","0","5","1","1943","umbrella","1","2018-01-10 17:08:41","150681"
"A1VW8Y7XCV3DRW","cs_wg_v9_pilot3","3KMS4QQVK2R07TV7TLCK53SAYZLKFT","7","0","STOMACH","0","5","1","2375","stomach","0","2018-01-10 17:08:41","150682"
"A1ZRAXU8G2ORCF","cs_wg_v9_pilot3","31IBVUNM9S0EN4PJSPQR7C3REXSFVA","14","0","DOORWAY","9","5","0","1984","doorway","9","2018-01-10 17:08:42","150683"
"AIZEEJUMWJ0WX","cs_wg_v9_pilot3","3TU5ZICBRD2D3HJFYCQBRXNXA108QS","30","0","FOOTBALL","9","5","1","3820","football","9","2018-01-10 17:08:43","150684"
"A30EI064NHQEQO","cs_wg_v9_pilot3","3QXNC7EIPIWPTTXQM62ACNRQH3K90K","26","0","LADDER","1","5","0","1113","ladder","1","2018-01-10 17:08:44","150685"
"AOB6ZJTDB416G","cs_wg_v9_pilot3","3634BBTX0OV91Y5JTIR8SNDX6VWFID","32","0","COMMUNITY","0","5","0","6603","community","0","2018-01-10 17:08:45","150686"
"A2HSCKH5NKN5LP","cs_wg_v9_pilot3","392CY0QWG1SZ3I8U91VP1JG6H5NI4S","53","0","BASKET","9","5","0","831","Basket","9","2018-01-10 17:08:45","150687"
"AIUKV0KVALMY6","cs_wg_v9_pilot3","3EJJQNKU9R668TZ8EV9H90Q196SHRH","41","0","COMMUNITY","10","5","0","1620","community","10","2018-01-10 17:08:46","150688"
"A16L21AR8X012","cs_wg_v9_pilot3","3MB8LZR5BFUM7L53FWFI0GXUVV7KLY","20","0","HELICOPTER","9","5","1","2371","helicopter","9","2018-01-10 17:08:47","150689"
"AR5LYXBO5D982","cs_wg_v9_pilot3","3HPZF4IVNMUOOM0E6YNA65MIZ12CY5","20","0","BASKET","9","5","1","1472","basket","9","2018-01-10 17:08:47","150690"
"A10ECDDI2BYH3K","cs_wg_v9_pilot3","3DYGAII7PL9Y99IWKTSMDJINZB0PQT","13","0","STRUCTURE","0","5","1","532","STRUCTURE ","0","2018-01-10 17:08:48","150691"
"A3GE84T9AR3YS9","cs_wg_v9_pilot3","3EKVH9QMEY58STDLD9BQH73V5MJD2P","40","0","STRUCTURE","10","5","0","3205","STRUCTURE","10","2018-01-10 17:08:48","150692"
"A29RJVVL54THB5","cs_wg_v9_pilot3","3SB4CE2TJVWBV2D6HO5HHWPLXSNAXV","41","0","TRAFFIC","10","5","0","1471","traffic","10","2018-01-10 17:08:49","150693"
"A2MQMMCVZJTFL2","cs_wg_v9_pilot3","3QL2OFSM96JUCNW0ZWEZPPOBVHYNCQ","37","0","COMMUNITY","1","5","1","1306","COMMUNITY","1","2018-01-10 17:08:50","150694"
"A2HA52MJN7CTLM","cs_wg_v9_pilot3","3IKZ72A5B4H1FZGAQY40XV9ESUQFNT","26","0","STRUCTURE","0","5","1","1745","structure","0
","2018-01-10 17:08:50","150695"
"A1F1A2FXG1I6ZY","cs_wg_v9_pilot3","3JPSL1DZ5S06J8Z2FII8JUYNVEDNAO","33","0","LADDER","10","5","0","1722","ladder","10","2018-01-10 17:08:50","150696"
"A3P0P0DRSOX52W","cs_wg_v9_pilot3","3X08E93BHVJXPLH7QOFF1EAF45Y667","26","0","DOORWAY","10","5","1","2842","Doorway","10","2018-01-10 17:08:50","150697"
"A30EI064NHQEQO","cs_wg_v9_pilot3","3QXNC7EIPIWPTTXQM62ACNRQH3K90K","27","0","MACHINE","1","5","0","1473","machine","1","2018-01-10 17:08:52","150698"
"A25CFVQND4A0EV","cs_wg_v9_pilot3","39L1G8WVWQS3LGTS1G50ZF7EM3G310","17","0","STOMACH","0","5","1","1219","stomach","0","2018-01-10 17:08:52","150699"
"A3K43RI91Y567E","cs_wg_v9_pilot3","32ZKVD547FO4YEBK3DYP5RKN8F73BJ","25","0","COMMUNITY","1","5","1","2469","community","1","2018-01-10 17:08:53","150700"
"AKB82TCYUECWD","cs_wg_v9_pilot3","39GXDJN2OTF58PFWKBKLXKM5RTF8VM","3","0","BASKET","10","5","0","2868","BASKET","10","2018-01-10 17:08:53","150701"
"A2HSCKH5NKN5LP","cs_wg_v9_pilot3","392CY0QWG1SZ3I8U91VP1JG6H5NI4S","54","0","HELICOPTER","1","5","1","1378","Helicopter","1","2018-01-10 17:08:53","150702"
"AIUKV0KVALMY6","cs_wg_v9_pilot3","3EJJQNKU9R668TZ8EV9H90Q196SHRH","42","0","WEDDING","1","5","0","1508","wedding","1","2018-01-10 17:08:54","150703"
"AIZEEJUMWJ0WX","cs_wg_v9_pilot3","3TU5ZICBRD2D3HJFYCQBRXNXA108QS","31","0","BOOKSHELF","0","5","0","2002","bookshelf","0","2018-01-10 17:08:54","150704"
"AOB6ZJTDB416G","cs_wg_v9_pilot3","3634BBTX0OV91Y5JTIR8SNDX6VWFID","33","0","STOMACH","1","5","1","2167","stomach","1","2018-01-10 17:08:55","150705"
"A1ZRAXU8G2ORCF","cs_wg_v9_pilot3","31IBVUNM9S0EN4PJSPQR7C3REXSFVA","15","0","DOORWAY","9","5","0","3352","doorway","9","2018-01-10 17:08:56","150706"
"A1VW8Y7XCV3DRW","cs_wg_v9_pilot3","3KMS4QQVK2R07TV7TLCK53SAYZLKFT","8","0","COMMUNITY","9","5","0","2873","community","9","2018-01-10 17:08:56","150707"
"AR5LYXBO5D982","cs_wg_v9_pilot3","3HPZF4IVNMUOOM0E6YNA65MIZ12CY5","21","0","TRAFFIC","1","5","1","2413","traffic","1","2018-01-10 17:08:56","150708"
"A10ECDDI2BYH3K","cs_wg_v9_pilot3","3DYGAII7PL9Y99IWKTSMDJINZB0PQT","14","0","WEDDING","1","5","1","1058","WEDDING ","1","2018-01-10 17:08:56","150709"
"A1F1A2FXG1I6ZY","cs_wg_v9_pilot3","3JPSL1DZ5S06J8Z2FII8JUYNVEDNAO","34","0","TRAFFIC","0","5","1","1944","traffic","0","2018-01-10 17:08:59","150710"
"A2MQMMCVZJTFL2","cs_wg_v9_pilot3","3QL2OFSM96JUCNW0ZWEZPPOBVHYNCQ","38","0","WEDDING","1","5","1","3702","WEDDING","1","2018-01-10 17:08:59","150711"
"A3GE84T9AR3YS9","cs_wg_v9_pilot3","3EKVH9QMEY58STDLD9BQH73V5MJD2P","41","0","BOOKSHELF","9","5","0","2608","BOOKSHELF","9","2018-01-10 17:09:00","150712"
"A16L21AR8X012","cs_wg_v9_pilot3","3MB8LZR5BFUM7L53FWFI0GXUVV7KLY","21","0","WEDDING","1","5","1","2277","wedding","1","2018-01-10 17:09:00","150713"
"A2BRZKFG6WAVER","cs_wg_v9_pilot3","3X1FV8S5JXSK14LE39W9PX33FCSGVA","22","0","BASKET","0","5","1","2293","basket","0","2018-01-10 17:09:01","150714"
"A29RJVVL54THB5","cs_wg_v9_pilot3","3SB4CE2TJVWBV2D6HO5HHWPLXSNAXV","42","0","DOORWAY","9","5","0","3010","doorway","9","2018-01-10 17:09:01","150715"
"A2HSCKH5NKN5LP","cs_wg_v9_pilot3","392CY0QWG1SZ3I8U91VP1JG6H5NI4S","55","0","BOOKSHELF","0","5","1","1619","Bookshelf","0","2018-01-10 17:09:01","150716"
"A30EI064NHQEQO","cs_wg_v9_pilot3","3QXNC7EIPIWPTTXQM62ACNRQH3K90K","28","0","STOMACH","10","5","0","1500","stomach","10","2018-01-10 17:09:02","150717"
"A2HA52MJN7CTLM","cs_wg_v9_pilot3","3IKZ72A5B4H1FZGAQY40XV9ESUQFNT","27","0","BOOKSHELF","10","5","0","1852","bookshelf","10","2018-01-10 17:09:02","150718"
"A25CFVQND4A0EV","cs_wg_v9_pilot3","39L1G8WVWQS3LGTS1G50ZF7EM3G310","18","0","FOOTBALL","9","5","0","2414","football","9","2018-01-10 17:09:03","150719"
"A21KGSK2BDVWOA","cs_wg_v9_pilot3","39U1BHVTDLS4U0513ZPA5LQ9EM83TA","10","0","STOMACH","1","5","1","7650","stomach","1","2018-01-10 17:09:03","150720"
"AIUKV0KVALMY6","cs_wg_v9_pilot3","3EJJQNKU9R668TZ8EV9H90Q196SHRH","43","0","COMMUNITY","10","5","0","2168","community","10","2018-01-10 17:09:04","150721"
"A3P0P0DRSOX52W","cs_wg_v9_pilot3","3X08E93BHVJXPLH7QOFF1EAF45Y667","27","0","BOOKSHELF","0","5","0","3634","Bookshelf","0","2018-01-10 17:09:04","150722"
"AR5LYXBO5D982","cs_wg_v9_pilot3","3HPZF4IVNMUOOM0E6YNA65MIZ12CY5","22","0","BASKET","9","5","0","3235","basket","9","2018-01-10 17:09:06","150723"
"A10ECDDI2BYH3K","cs_wg_v9_pilot3","3DYGAII7PL9Y99IWKTSMDJINZB0PQT","15","0","COMMUNITY","1","5","1","2266","COMMUNITY ","1","2018-01-10 17:09:07","150724"
"AIZEEJUMWJ0WX","cs_wg_v9_pilot3","3TU5ZICBRD2D3HJFYCQBRXNXA108QS","32","0","KEYBOARD","0","5","0","2773","keyboard","0","2018-01-10 17:09:08","150725"
"A2MQMMCVZJTFL2","cs_wg_v9_pilot3","3QL2OFSM96JUCNW0ZWEZPPOBVHYNCQ","39","0","STOMACH","10","5","0","1539","STOMACH","10","2018-01-10 17:09:08","150726"
"AOB6ZJTDB416G","cs_wg_v9_pilot3","3634BBTX0OV91Y5JTIR8SNDX6VWFID","34","0","COMMUNITY","0","5","1","4699","community","0","2018-01-10 17:09:08","150727"
"A1F1A2FXG1I6ZY","cs_wg_v9_pilot3","3JPSL1DZ5S06J8Z2FII8JUYNVEDNAO","35","0","MACHINE","0","5","0","2156","machine","0","2018-01-10 17:09:09","150728"
"A2HSCKH5NKN5LP","cs_wg_v9_pilot3","392CY0QWG1SZ3I8U91VP1JG6H5NI4S","56","0","WEDDING","0","5","1","1723","Wedding","0","2018-01-10 17:09:09","150729"
"A30EI064NHQEQO","cs_wg_v9_pilot3","3QXNC7EIPIWPTTXQM62ACNRQH3K90K","29","0","WEDDING","0","5","1","1292","wedding","0","2018-01-10 17:09:09","150730"
"AKB82TCYUECWD","cs_wg_v9_pilot3","39GXDJN2OTF58PFWKBKLXKM5RTF8VM","4","0","WEDDING","0","5","0","2402","WEDDING","0","2018-01-10 17:09:10","150731"
"A29RJVVL54THB5","cs_wg_v9_pilot3","3SB4CE2TJVWBV2D6HO5HHWPLXSNAXV","43","0","MACHINE","10","5","1","1875","mahcine","10","2018-01-10 17:09:11","150732"
"A3K43RI91Y567E","cs_wg_v9_pilot3","32ZKVD547FO4YEBK3DYP5RKN8F73BJ","26","0","STRUCTURE","0","5","0","3133","structure","0","2018-01-10 17:09:11","150733"
"A1ZRAXU8G2ORCF","cs_wg_v9_pilot3","31IBVUNM9S0EN4PJSPQR7C3REXSFVA","16","0","MACHINE","1","5","0","5351","machine","1","2018-01-10 17:09:12","150734"
"A3GE84T9AR3YS9","cs_wg_v9_pilot3","3EKVH9QMEY58STDLD9BQH73V5MJD2P","42","0","UMBRELLA","1","5","1","3580","UMBRELLA","1","2018-01-10 17:09:12","150735"
"A1VW8Y7XCV3DRW","cs_wg_v9_pilot3","3KMS4QQVK2R07TV7TLCK53SAYZLKFT","9","0","DOORWAY","10","5","0","2788","doorway","10","2018-01-10 17:09:12","150736"
"A2HA52MJN7CTLM","cs_wg_v9_pilot3","3IKZ72A5B4H1FZGAQY40XV9ESUQFNT","28","0","COMMUNITY","0","5","0","1283","community","0","2018-01-10 17:09:13","150737"
"A2BRZKFG6WAVER","cs_wg_v9_pilot3","3X1FV8S5JXSK14LE39W9PX33FCSGVA","23","0","STRUCTURE","10","5","0","3513","structure","10","2018-01-10 17:09:14","150738"
"A25CFVQND4A0EV","cs_wg_v9_pilot3","39L1G8WVWQS3LGTS1G50ZF7EM3G310","19","0","HELICOPTER","10","5","0","1883","helicopter","10","2018-01-10 17:09:14","150739"
"AIUKV0KVALMY6","cs_wg_v9_pilot3","3EJJQNKU9R668TZ8EV9H90Q196SHRH","44","0","STRUCTURE","10","5","0","2998","structure","10","2018-01-10 17:09:14","150740"
"A16L21AR8X012","cs_wg_v9_pilot3","3MB8LZR5BFUM7L53FWFI0GXUVV7KLY","22","0","BASKET","0","5","1","2534","basket","0","2018-01-10 17:09:16","150741"
"A3P0P0DRSOX52W","cs_wg_v9_pilot3","3X08E93BHVJXPLH7QOFF1EAF45Y667","28","0","DOORWAY","10","5","1","2412","Doorway","10","2018-01-10 17:09:16","150742"
"A10ECDDI2BYH3K","cs_wg_v9_pilot3","3DYGAII7PL9Y99IWKTSMDJINZB0PQT","16","0","FOOTBALL","10","5","1","2309","FOOTBALL","10","2018-01-10 17:09:16","150743"
"A2HSCKH5NKN5LP","cs_wg_v9_pilot3","392CY0QWG1SZ3I8U91VP1JG6H5NI4S","57","0","FOOTBALL","1","5","1","1412","Football","1","2018-01-10 17:09:17","150744"
"A2MQMMCVZJTFL2","cs_wg_v9_pilot3","3QL2OFSM96JUCNW0ZWEZPPOBVHYNCQ","40","0","FOOTBALL","10","5","0","1409","FOOTBALL","10","2018-01-10 17:09:17","150745"
"AIZEEJUMWJ0WX","cs_wg_v9_pilot3","3TU5ZICBRD2D3HJFYCQBRXNXA108QS","33","0","BOOKSHELF","0","5","0","1836","bookshelf","0","2018-01-10 17:09:18","150746"
"A1F1A2FXG1I6ZY","cs_wg_v9_pilot3","3JPSL1DZ5S06J8Z2FII8JUYNVEDNAO","36","0","HELICOPTER","9","5","0","1429","helicopter","9","2018-01-10 17:09:18","150747"
"A30EI064NHQEQO","cs_wg_v9_pilot3","3QXNC7EIPIWPTTXQM62ACNRQH3K90K","30","0","FOOTBALL","0","5","1","1542","football","0","2018-01-10 17:09:18","150748"
"AOB6ZJTDB416G","cs_wg_v9_pilot3","3634BBTX0OV91Y5JTIR8SNDX6VWFID","35","0","BOOKSHELF","10","5","0","1701","bookshelf","10","2018-01-10 17:09:19","150749"
"AR5LYXBO5D982","cs_wg_v9_pilot3","3HPZF4IVNMUOOM0E6YNA65MIZ12CY5","23","0","WEDDING","1","5","1","2322","wedding","1","2018-01-10 17:09:19","150750"
"A3GE84T9AR3YS9","cs_wg_v9_pilot3","3EKVH9QMEY58STDLD9BQH73V5MJD2P","43","0","STOMACH","1","5","1","1252","STOMACH","1","2018-01-10 17:09:19","150751"
"A29RJVVL54THB5","cs_wg_v9_pilot3","3SB4CE2TJVWBV2D6HO5HHWPLXSNAXV","44","0","UMBRELLA","1","5","1","2401","umbrella","1","2018-01-10 17:09:21","150752"
"A3K43RI91Y567E","cs_wg_v9_pilot3","32ZKVD547FO4YEBK3DYP5RKN8F73BJ","27","0","MACHINE","9","5","0","3263","machine","9","2018-01-10 17:09:23","150753"
"AIUKV0KVALMY6","cs_wg_v9_pilot3","3EJJQNKU9R668TZ8EV9H90Q196SHRH","45","0","DOORWAY","0","5","1","1169","doorway","0","2018-01-10 17:09:23","150754"
"A2HA52MJN7CTLM","cs_wg_v9_pilot3","3IKZ72A5B4H1FZGAQY40XV9ESUQFNT","29","0","BASKET","9","5","0","2330","basket","9","2018-01-10 17:09:24","150755"
"A10ECDDI2BYH3K","cs_wg_v9_pilot3","3DYGAII7PL9Y99IWKTSMDJINZB0PQT","17","0","WEDDING","1","5","1","322","WEDDING ","5","2018-01-10 17:09:24","150756"
"A21KGSK2BDVWOA","cs_wg_v9_pilot3","39U1BHVTDLS4U0513ZPA5LQ9EM83TA","11","0","KEYBOARD","9","5","0","2617","keyboard","9","2018-01-10 17:09:24","150757"
"A2BRZKFG6WAVER","cs_wg_v9_pilot3","3X1FV8S5JXSK14LE39W9PX33FCSGVA","24","0","LADDER","9","5","1","2489","ladder","9","2018-01-10 17:09:25","150758"
"A2HSCKH5NKN5LP","cs_wg_v9_pilot3","392CY0QWG1SZ3I8U91VP1JG6H5NI4S","58","0","BASKET","9","5","0","824","Basket","9","2018-01-10 17:09:25","150759"
"A1ZRAXU8G2ORCF","cs_wg_v9_pilot3","31IBVUNM9S0EN4PJSPQR7C3REXSFVA","17","0","MACHINE","1","5","1","3577","machine","1","2018-01-10 17:09:25","150760"
"A2MQMMCVZJTFL2","cs_wg_v9_pilot3","3QL2OFSM96JUCNW0ZWEZPPOBVHYNCQ","41","0","LADDER","9","5","0","2152","LADDER","9","2018-01-10 17:09:26","150761"
"A30EI064NHQEQO","cs_wg_v9_pilot3","3QXNC7EIPIWPTTXQM62ACNRQH3K90K","31","0","STRUCTURE","10","5","0","1106","structure","10","2018-01-10 17:09:27","150762"
"A1VW8Y7XCV3DRW","cs_wg_v9_pilot3","3KMS4QQVK2R07TV7TLCK53SAYZLKFT","10","0","MACHINE","9","5","0","3043","machine","9","2018-01-10 17:09:27","150763"
"A3GE84T9AR3YS9","cs_wg_v9_pilot3","3EKVH9QMEY58STDLD9BQH73V5MJD2P","44","0","COMMUNITY","10","5","0","1470","COMMUNITY","10","2018-01-10 17:09:28","150764"
"AR5LYXBO5D982","cs_wg_v9_pilot3","3HPZF4IVNMUOOM0E6YNA65MIZ12CY5","24","0","DOORWAY","1","5","1","2228","doorway","1","2018-01-10 17:09:28","150765"
"AIZEEJUMWJ0WX","cs_wg_v9_pilot3","3TU5ZICBRD2D3HJFYCQBRXNXA108QS","34","0","BASKET","10","5","0","1150","basket","10","2018-01-10 17:09:29","150766"
"A3P0P0DRSOX52W","cs_wg_v9_pilot3","3X08E93BHVJXPLH7QOFF1EAF45Y667","29","0","STRUCTURE","0","5","1","2579","Structure","0","2018-01-10 17:09:29","150767"
"A1F1A2FXG1I6ZY","cs_wg_v9_pilot3","3JPSL1DZ5S06J8Z2FII8JUYNVEDNAO","37","0","DOORWAY","1","5","1","1978","doorway","1","2018-01-10 17:09:29","150768"
"AOB6ZJTDB416G","cs_wg_v9_pilot3","3634BBTX0OV91Y5JTIR8SNDX6VWFID","36","0","FOOTBALL","0","5","1","3699","football","0","2018-01-10 17:09:30","150769"
"A16L21AR8X012","cs_wg_v9_pilot3","3MB8LZR5BFUM7L53FWFI0GXUVV7KLY","23","0","STRUCTURE","1","5","1","2749","structure","1","2018-01-10 17:09:30","150770"
"A29RJVVL54THB5","cs_wg_v9_pilot3","3SB4CE2TJVWBV2D6HO5HHWPLXSNAXV","45","0","STRUCTURE","9","5","0","1629","structure","9","2018-01-10 17:09:31","150771"
"A25CFVQND4A0EV","cs_wg_v9_pilot3","39L1G8WVWQS3LGTS1G50ZF7EM3G310","20","0","MACHINE","1","5","1","3389","machine","1","2018-01-10 17:09:31","150772"
"AKB82TCYUECWD","cs_wg_v9_pilot3","39GXDJN2OTF58PFWKBKLXKM5RTF8VM","5","0","DOORWAY","9","5","0","3002","DOORWAY","5","2018-01-10 17:09:32","150773"
"A2HSCKH5NKN5LP","cs_wg_v9_pilot3","392CY0QWG1SZ3I8U91VP1JG6H5NI4S","59","0","DOORWAY","0","5","1","1293","Doorway","0","2018-01-10 17:09:32","150774"
"AIUKV0KVALMY6","cs_wg_v9_pilot3","3EJJQNKU9R668TZ8EV9H90Q196SHRH","46","0","HELICOPTER","9","5","0","1330","helicopter","9","2018-01-10 17:09:32","150775"
"A10ECDDI2BYH3K","cs_wg_v9_pilot3","3DYGAII7PL9Y99IWKTSMDJINZB0PQT","18","0","COMMUNITY","1","5","1","1227","COMMUNITY ","1","2018-01-10 17:09:33","150776"
"A3K43RI91Y567E","cs_wg_v9_pilot3","32ZKVD547FO4YEBK3DYP5RKN8F73BJ","28","0","WEDDING","1","5","0","2264","wedding","1","2018-01-10 17:09:34","150777"
"A2MQMMCVZJTFL2","cs_wg_v9_pilot3","3QL2OFSM96JUCNW0ZWEZPPOBVHYNCQ","42","0","STOMACH","10","5","0","1196","STOMACH","10","2018-01-10 17:09:34","150778"
"A2BRZKFG6WAVER","cs_wg_v9_pilot3","3X1FV8S5JXSK14LE39W9PX33FCSGVA","25","0","MACHINE","0","5","1","2393","machine","0","2018-01-10 17:09:35","150779"
"A30EI064NHQEQO","cs_wg_v9_pilot3","3QXNC7EIPIWPTTXQM62ACNRQH3K90K","32","0","BASKET","9","5","1","2547","basket","9","2018-01-10 17:09:36","150780"
"AR5LYXBO5D982","cs_wg_v9_pilot3","3HPZF4IVNMUOOM0E6YNA65MIZ12CY5","25","0","HELICOPTER","10","5","0","1776","helicopter","10","2018-01-10 17:09:37","150781"
"A1ZRAXU8G2ORCF","cs_wg_v9_pilot3","31IBVUNM9S0EN4PJSPQR7C3REXSFVA","18","0","LADDER","0","5","0","3135","ladder","0","2018-01-10 17:09:38","150782"
"A1F1A2FXG1I6ZY","cs_wg_v9_pilot3","3JPSL1DZ5S06J8Z2FII8JUYNVEDNAO","38","0","MACHINE","0","5","1","2154","machine","0","2018-01-10 17:09:39","150783"
"AIZEEJUMWJ0WX","cs_wg_v9_pilot3","3TU5ZICBRD2D3HJFYCQBRXNXA108QS","35","0","BOOKSHELF","0","5","1","1489","bookshelf","0","2018-01-10 17:09:39","150784"
"A3GE84T9AR3YS9","cs_wg_v9_pilot3","3EKVH9QMEY58STDLD9BQH73V5MJD2P","45","0","LADDER","9","5","1","3188","LADDER","9","2018-01-10 17:09:39","150785"
"A2HA52MJN7CTLM","cs_wg_v9_pilot3","3IKZ72A5B4H1FZGAQY40XV9ESUQFNT","30","0","STOMACH","9","5","0","1992","stomach","9","2018-01-10 17:09:40","150786"
"A1VW8Y7XCV3DRW","cs_wg_v9_pilot3","3KMS4QQVK2R07TV7TLCK53SAYZLKFT","11","0","COMMUNITY","9","5","0","2629","community","9","2018-01-10 17:09:40","150787"
"A2HSCKH5NKN5LP","cs_wg_v9_pilot3","392CY0QWG1SZ3I8U91VP1JG6H5NI4S","60","0","STOMACH","9","5","1","1617","Stomach","9","2018-01-10 17:09:40","150788"
"A3P0P0DRSOX52W","cs_wg_v9_pilot3","3X08E93BHVJXPLH7QOFF1EAF45Y667","30","0","BASKET","9","5","0","2314","Basket","9","2018-01-10 17:09:40","150789"
"A29RJVVL54THB5","cs_wg_v9_pilot3","3SB4CE2TJVWBV2D6HO5HHWPLXSNAXV","46","0","FOOTBALL","0","5","1","1899","football","0","2018-01-10 17:09:41","150790"
"AOB6ZJTDB416G","cs_wg_v9_pilot3","3634BBTX0OV91Y5JTIR8SNDX6VWFID","37","0","BASKET","10","5","0","5569","basket","10","2018-01-10 17:09:42","150791"
"A1AUBV4SO8NZLS","cs_wg_v9_pilot3","3JBT3HLQF837N1JN7PBZ4CUR4ELPZN","0","0","LADDER","10","5","0","4651","Ladder","10","2018-01-10 17:09:42","150792"
"A21KGSK2BDVWOA","cs_wg_v9_pilot3","39U1BHVTDLS4U0513ZPA5LQ9EM83TA","12","0","BOOKSHELF","0","5","0","2548","bookshelf","0","2018-01-10 17:09:42","150793"
"A25CFVQND4A0EV","cs_wg_v9_pilot3","39L1G8WVWQS3LGTS1G50ZF7EM3G310","21","0","STRUCTURE","1","5","1","1637","structure","1","2018-01-10 17:09:43","150794"
"AIUKV0KVALMY6","cs_wg_v9_pilot3","3EJJQNKU9R668TZ8EV9H90Q196SHRH","47","0","UMBRELLA","10","5","0","1386","umbrella","10","2018-01-10 17:09:43","150795"
