"subject","version","assignmentId","trial","trial_type","word","value","alt","choice","rt","resp","resp2","stamp","id"
"A3BEBDHWSLH1BQ","cs_wg_full_v2_pilot1","3I7DHKZYGN1XPAA4MY8E3E9T55U5FV","0","0","CASINO","10","11","1","6773","CASINO","10","2018-06-27 22:02:43","313764"
"A3BEBDHWSLH1BQ","cs_wg_full_v2_pilot1","3I7DHKZYGN1XPAA4MY8E3E9T55U5FV","1","0","CANVAS","15","11","0","4478","CANVAS","15","2018-06-27 22:03:03","313765"
"A3BEBDHWSLH1BQ","cs_wg_full_v2_pilot1","3I7DHKZYGN1XPAA4MY8E3E9T55U5FV","2","0","BARREL","12","11","1","2577","BARREL","11","2018-06-27 22:03:20","313766"
"A3BEBDHWSLH1BQ","cs_wg_full_v2_pilot1","3I7DHKZYGN1XPAA4MY8E3E9T55U5FV","3","0","PEACOCK","10","11","1","5442","PEACOCK","10","2018-06-27 22:03:41","313767"
"A37GOI3N77WX21","cs_wg_full_v2_pilot1","3R2PKQ87NW9F78X0F5VLNDX77SCIMP","0","0","SUMMER","13","11","1","11473","summer","13","2018-06-27 22:03:50","313768"
"A3BEBDHWSLH1BQ","cs_wg_full_v2_pilot1","3I7DHKZYGN1XPAA4MY8E3E9T55U5FV","4","0","FORGERY","2","11","1","3067","FORGERY","2","2018-06-27 22:04:00","313769"
"A37GOI3N77WX21","cs_wg_full_v2_pilot1","3R2PKQ87NW9F78X0F5VLNDX77SCIMP","1","0","FORGERY","2","11","1","3941","forgery","2","2018-06-27 22:04:13","313770"
"A3BEBDHWSLH1BQ","cs_wg_full_v2_pilot1","3I7DHKZYGN1XPAA4MY8E3E9T55U5FV","5","0","CANVAS","15","11","1","2815","CANVAS","15","2018-06-27 22:04:24","313771"
"A37GOI3N77WX21","cs_wg_full_v2_pilot1","3R2PKQ87NW9F78X0F5VLNDX77SCIMP","2","0","PILLAR","15","11","1","5592","pillar","15","2018-06-27 22:04:37","313772"
"A3BEBDHWSLH1BQ","cs_wg_full_v2_pilot1","3I7DHKZYGN1XPAA4MY8E3E9T55U5FV","6","0","WAFFLE","1","11","1","2883","WAFFLE","1","2018-06-27 22:04:42","313773"
"ALQPGVQZEZSUE","cs_wg_full_v2_pilot1","378XPAWRUCEE57OBI25GEM27DBNIA5","0","0","ALMOND","10","11","1","6317","ALMOND","10","2018-06-27 22:04:45","313774"
"A2BC4S4LVBQ3OV","cs_wg_full_v2_pilot1","37XITHEISWAFRLOSS3VGY9TM0ARCR5","0","0","BARREL","12","11","1","5369","barrel","12","2018-06-27 22:04:52","313775"
"A37GOI3N77WX21","cs_wg_full_v2_pilot1","3R2PKQ87NW9F78X0F5VLNDX77SCIMP","3","0","PILLAR","15","11","0","8690","pillar","15","2018-06-27 22:05:00","313776"
"A3BEBDHWSLH1BQ","cs_wg_full_v2_pilot1","3I7DHKZYGN1XPAA4MY8E3E9T55U5FV","7","0","GOGGLES","15","11","1","8020","GOGGLES","15","2018-06-27 22:05:02","313777"
"ALQPGVQZEZSUE","cs_wg_full_v2_pilot1","378XPAWRUCEE57OBI25GEM27DBNIA5","1","0","BEAVER","15","11","1","6441","BEAVER","15","2018-06-27 22:05:08","313778"
"A37GOI3N77WX21","cs_wg_full_v2_pilot1","3R2PKQ87NW9F78X0F5VLNDX77SCIMP","4","0","CHICKEN","9","11","1","2410","chicken","9","2018-06-27 22:05:12","313779"
"AYYEQBUPC7IM5","cs_wg_full_v2_pilot1","3TK8OJTYM1MQEHED6SMWJ6HWKZJPVP","0","0","GIRAFFE","1","11","1","12098","giraffe","1","2018-06-27 22:05:14","313780"
"A2BC4S4LVBQ3OV","cs_wg_full_v2_pilot1","37XITHEISWAFRLOSS3VGY9TM0ARCR5","1","0","TRIVIA","15","11","1","6382","trivia","15","2018-06-27 22:05:18","313781"
"A3BEBDHWSLH1BQ","cs_wg_full_v2_pilot1","3I7DHKZYGN1XPAA4MY8E3E9T55U5FV","8","0","FLIGHT","6","11","1","2296","FLIGHT","11","2018-06-27 22:05:19","313782"
"A37GOI3N77WX21","cs_wg_full_v2_pilot1","3R2PKQ87NW9F78X0F5VLNDX77SCIMP","5","0","BARREL","12","11","1","2881","barrel","12","2018-06-27 22:05:24","313783"
"A3EVXSWHYA1PTT","cs_wg_full_v2_pilot1","37FMASSAYCSJOHT3OG5C9XMDVT8IB0","0","0","CASINO","10","11","1","23125","casino","11","2018-06-27 22:05:28","313784"
"ALQPGVQZEZSUE","cs_wg_full_v2_pilot1","378XPAWRUCEE57OBI25GEM27DBNIA5","2","0","DAGGER","6","11","1","3741","DAGGER","6
6","2018-06-27 22:05:30","313785"
"A3BEBDHWSLH1BQ","cs_wg_full_v2_pilot1","3I7DHKZYGN1XPAA4MY8E3E9T55U5FV","9","0","FORGERY","2","11","1","2778","FORGERY","11","2018-06-27 22:05:38","313786"
"A2BC4S4LVBQ3OV","cs_wg_full_v2_pilot1","37XITHEISWAFRLOSS3VGY9TM0ARCR5","2","0","BARREL","12","11","0","3984","barrel","12","2018-06-27 22:05:38","313787"
"A3EVXSWHYA1PTT","cs_wg_full_v2_pilot1","37FMASSAYCSJOHT3OG5C9XMDVT8IB0","1","0","CASINO","10","11","1","7691","casino","11","2018-06-27 22:05:46","313788"
"AYYEQBUPC7IM5","cs_wg_full_v2_pilot1","3TK8OJTYM1MQEHED6SMWJ6HWKZJPVP","1","0","BUCKET","9","11","1","5738","bucket","9","2018-06-27 22:05:48","313789"
"ALQPGVQZEZSUE","cs_wg_full_v2_pilot1","378XPAWRUCEE57OBI25GEM27DBNIA5","3","0","ALMOND","10","11","1","5381","ALMOND","10
","2018-06-27 22:05:49","313790"
"A37GOI3N77WX21","cs_wg_full_v2_pilot1","3R2PKQ87NW9F78X0F5VLNDX77SCIMP","7","0","SUNBURN","13","11","0","4762","sunburn","13","2018-06-27 22:05:53","313791"
"A37GOI3N77WX21","cs_wg_full_v2_pilot1","3R2PKQ87NW9F78X0F5VLNDX77SCIMP","6","0","SUNBURN","13","11","1","3104","sunburn","13","2018-06-27 22:05:53","313792"
"A3BEBDHWSLH1BQ","cs_wg_full_v2_pilot1","3I7DHKZYGN1XPAA4MY8E3E9T55U5FV","10","0","WAFFLE","1","11","1","2437","WAFFLE","11","2018-06-27 22:05:55","313793"
"A2BC4S4LVBQ3OV","cs_wg_full_v2_pilot1","37XITHEISWAFRLOSS3VGY9TM0ARCR5","3","0","THRONE","10","11","0","4868","throne","10","2018-06-27 22:06:02","313794"
"ALQPGVQZEZSUE","cs_wg_full_v2_pilot1","378XPAWRUCEE57OBI25GEM27DBNIA5","4","0","GOGGLES","15","11","1","2749","GOGGLES","15","2018-06-27 22:06:03","313795"
"A3EVXSWHYA1PTT","cs_wg_full_v2_pilot1","37FMASSAYCSJOHT3OG5C9XMDVT8IB0","2","0","BEGGAR","6","11","1","2539","beggar","11","2018-06-27 22:06:05","313796"
"A37GOI3N77WX21","cs_wg_full_v2_pilot1","3R2PKQ87NW9F78X0F5VLNDX77SCIMP","8","0","BEAVER","15","11","1","2090","beaver","15","2018-06-27 22:06:08","313797"
"ALQPGVQZEZSUE","cs_wg_full_v2_pilot1","378XPAWRUCEE57OBI25GEM27DBNIA5","5","0","PEANUT","13","11","1","2128","PEANUT","13","2018-06-27 22:06:15","313798"
"A3BEBDHWSLH1BQ","cs_wg_full_v2_pilot1","3I7DHKZYGN1XPAA4MY8E3E9T55U5FV","11","0","PICTURE","13","11","1","3167","PICTURE","11","2018-06-27 22:06:15","313799"
"A2BC4S4LVBQ3OV","cs_wg_full_v2_pilot1","37XITHEISWAFRLOSS3VGY9TM0ARCR5","4","0","TRAFFIC","1","11","0","2567","traffic","1","2018-06-27 22:06:18","313800"
"A3EVXSWHYA1PTT","cs_wg_full_v2_pilot1","37FMASSAYCSJOHT3OG5C9XMDVT8IB0","3","0","BEGGAR","6","11","1","2339","beggar","6","2018-06-27 22:06:25","313801"
"A37GOI3N77WX21","cs_wg_full_v2_pilot1","3R2PKQ87NW9F78X0F5VLNDX77SCIMP","9","0","SUNBURN","13","11","0","4945","sunburn","13","2018-06-27 22:06:28","313802"
"ALQPGVQZEZSUE","cs_wg_full_v2_pilot1","378XPAWRUCEE57OBI25GEM27DBNIA5","6","0","CHURCH","12","11","1","2125","CHURCH","12","2018-06-27 22:06:29","313803"
"A3BEBDHWSLH1BQ","cs_wg_full_v2_pilot1","3I7DHKZYGN1XPAA4MY8E3E9T55U5FV","12","0","SMOKER","9","11","1","2176","SMOKER","11","2018-06-27 22:06:33","313804"
"A2BC4S4LVBQ3OV","cs_wg_full_v2_pilot1","37XITHEISWAFRLOSS3VGY9TM0ARCR5","5","0","HERMIT","13","11","1","3969","hermit","13","2018-06-27 22:06:37","313805"
"A3EVXSWHYA1PTT","cs_wg_full_v2_pilot1","37FMASSAYCSJOHT3OG5C9XMDVT8IB0","4","0","BEGGAR","6","11","1","1900","beggar","6","2018-06-27 22:06:38","313806"
"A37GOI3N77WX21","cs_wg_full_v2_pilot1","3R2PKQ87NW9F78X0F5VLNDX77SCIMP","10","0","ADDICT","10","11","1","2569","addict","10","2018-06-27 22:06:40","313807"
"ALQPGVQZEZSUE","cs_wg_full_v2_pilot1","378XPAWRUCEE57OBI25GEM27DBNIA5","7","0","SMOKER","9","11","1","2308","SMOKER","9","2018-06-27 22:06:41","313808"
"AYYEQBUPC7IM5","cs_wg_full_v2_pilot1","3TK8OJTYM1MQEHED6SMWJ6HWKZJPVP","2","0","SUNBURN","13","11","1","4022","sunburn","13","2018-06-27 22:06:47","313809"
"A3BEBDHWSLH1BQ","cs_wg_full_v2_pilot1","3I7DHKZYGN1XPAA4MY8E3E9T55U5FV","13","0","PEACOCK","10","11","1","7173","PEACOCK","11","2018-06-27 22:06:49","313810"
"ALQPGVQZEZSUE","cs_wg_full_v2_pilot1","378XPAWRUCEE57OBI25GEM27DBNIA5","8","0","PEANUT","13","11","0","4028","PEANUT","13","2018-06-27 22:06:56","313811"
"A37GOI3N77WX21","cs_wg_full_v2_pilot1","3R2PKQ87NW9F78X0F5VLNDX77SCIMP","11","0","SUMMER","13","11","0","3432","summer","13","2018-06-27 22:06:56","313812"
"A2BC4S4LVBQ3OV","cs_wg_full_v2_pilot1","37XITHEISWAFRLOSS3VGY9TM0ARCR5","6","0","FRIEND","2","11","1","4437","friend","2","2018-06-27 22:06:56","313813"
"A3EVXSWHYA1PTT","cs_wg_full_v2_pilot1","37FMASSAYCSJOHT3OG5C9XMDVT8IB0","5","0","PENGUIN","13","11","1","8702","penguin","13","2018-06-27 22:06:59","313814"
"A37GOI3N77WX21","cs_wg_full_v2_pilot1","3R2PKQ87NW9F78X0F5VLNDX77SCIMP","12","0","SUMMER","13","11","0","2417","summer","13","2018-06-27 22:07:07","313815"
"ALQPGVQZEZSUE","cs_wg_full_v2_pilot1","378XPAWRUCEE57OBI25GEM27DBNIA5","9","0","DAGGER","6","11","0","4492","DAGGER","6","2018-06-27 22:07:09","313816"
"A2BC4S4LVBQ3OV","cs_wg_full_v2_pilot1","37XITHEISWAFRLOSS3VGY9TM0ARCR5","7","0","BULLET","15","11","1","3846","bullet","15","2018-06-27 22:07:17","313817"
"A37GOI3N77WX21","cs_wg_full_v2_pilot1","3R2PKQ87NW9F78X0F5VLNDX77SCIMP","13","0","BUDGET","6","11","1","1786","budget","6","2018-06-27 22:07:17","313818"
"A3BEBDHWSLH1BQ","cs_wg_full_v2_pilot1","3I7DHKZYGN1XPAA4MY8E3E9T55U5FV","14","0","FLIGHT","6","11","1","8865","FLIGHT

FLIGHT

FLAGHT","11","2018-06-27 22:07:19","313819"
"A3EVXSWHYA1PTT","cs_wg_full_v2_pilot1","37FMASSAYCSJOHT3OG5C9XMDVT8IB0","6","0","JAVELIN","15","11","1","7689","javelin","15","2018-06-27 22:07:20","313820"
"ALQPGVQZEZSUE","cs_wg_full_v2_pilot1","378XPAWRUCEE57OBI25GEM27DBNIA5","10","0","GOGGLES","15","11","0","3388","GOGGLES","15","2018-06-27 22:07:22","313821"
"A299DY7LIIERYM","cs_wg_full_v2_pilot1","3DHE4R9OCWCB4DNCFZCYNS6TMA3G24","0","0","CAMERA","14","5","0","5948","camera","14","2018-06-27 22:07:27","313822"
"AYYEQBUPC7IM5","cs_wg_full_v2_pilot1","3TK8OJTYM1MQEHED6SMWJ6HWKZJPVP","3","0","BAPTISM","10","11","1","5228","baptism","10","2018-06-27 22:07:28","313823"
"ALQPGVQZEZSUE","cs_wg_full_v2_pilot1","378XPAWRUCEE57OBI25GEM27DBNIA5","11","0","DAGGER","6","11","1","2663","DAGGER","6","2018-06-27 22:07:32","313824"
"A37GOI3N77WX21","cs_wg_full_v2_pilot1","3R2PKQ87NW9F78X0F5VLNDX77SCIMP","14","0","CHICKEN","9","11","0","4872","chicken","9","2018-06-27 22:07:33","313825"
"A3EVXSWHYA1PTT","cs_wg_full_v2_pilot1","37FMASSAYCSJOHT3OG5C9XMDVT8IB0","7","0","COFFEE","1","11","1","1824","coffee","1","2018-06-27 22:07:35","313826"
"A2BC4S4LVBQ3OV","cs_wg_full_v2_pilot1","37XITHEISWAFRLOSS3VGY9TM0ARCR5","8","0","JUNGLE","6","11","1","2938","jungle","6","2018-06-27 22:07:35","313827"
"A3BEBDHWSLH1BQ","cs_wg_full_v2_pilot1","3I7DHKZYGN1XPAA4MY8E3E9T55U5FV","15","0","CASINO","10","11","1","3910","CASINO ","11","2018-06-27 22:07:37","313828"
"A299DY7LIIERYM","cs_wg_full_v2_pilot1","3DHE4R9OCWCB4DNCFZCYNS6TMA3G24","1","0","JAVELIN","1","5","0","3323","javelin","1","2018-06-27 22:07:41","313829"
"A37GOI3N77WX21","cs_wg_full_v2_pilot1","3R2PKQ87NW9F78X0F5VLNDX77SCIMP","15","0","BARREL","12","11","0","2584","barrel","12","2018-06-27 22:07:45","313830"
"ALQPGVQZEZSUE","cs_wg_full_v2_pilot1","378XPAWRUCEE57OBI25GEM27DBNIA5","12","0","ALMOND","10","11","1","4570","ALMOND","10","2018-06-27 22:07:46","313831"
"AYYEQBUPC7IM5","cs_wg_full_v2_pilot1","3TK8OJTYM1MQEHED6SMWJ6HWKZJPVP","4","0","SHIVER","15","11","1","2949","shiver","15","2018-06-27 22:07:46","313832"
"A39YBLQYIUBR76","cs_wg_full_v2_pilot1","3LEP4MGT3G12G6DHW241I0603O0BDR","0","0","CARROT","12","11","1","6014","carrot","12","2018-06-27 22:07:51","313833"
"A299DY7LIIERYM","cs_wg_full_v2_pilot1","3DHE4R9OCWCB4DNCFZCYNS6TMA3G24","2","0","DEMON","3","5","0","1949","demon","3","2018-06-27 22:07:53","313834"
"A3EVXSWHYA1PTT","cs_wg_full_v2_pilot1","37FMASSAYCSJOHT3OG5C9XMDVT8IB0","8","0","SUMMER","13","11","1","8014","summer","13","2018-06-27 22:07:54","313835"
"A3BEBDHWSLH1BQ","cs_wg_full_v2_pilot1","3I7DHKZYGN1XPAA4MY8E3E9T55U5FV","16","0","WAFFLE","1","11","1","7769","WAFFLE","11","2018-06-27 22:07:55","313836"
"A2BC4S4LVBQ3OV","cs_wg_full_v2_pilot1","37XITHEISWAFRLOSS3VGY9TM0ARCR5","9","0","BULLET","15","11","0","6327","bullet","15","2018-06-27 22:07:55","313837"
"ALQPGVQZEZSUE","cs_wg_full_v2_pilot1","378XPAWRUCEE57OBI25GEM27DBNIA5","13","0","DAGGER","6","11","1","1973","DAGGER","6","2018-06-27 22:07:57","313838"
"AYYEQBUPC7IM5","cs_wg_full_v2_pilot1","3TK8OJTYM1MQEHED6SMWJ6HWKZJPVP","5","0","GIRAFFE","1","11","1","3600","giraffe","1","2018-06-27 22:08:01","313839"
"A37GOI3N77WX21","cs_wg_full_v2_pilot1","3R2PKQ87NW9F78X0F5VLNDX77SCIMP","16","0","FORGERY","2","11","0","4329","forgery","2","2018-06-27 22:08:02","313840"
"A3EVXSWHYA1PTT","cs_wg_full_v2_pilot1","37FMASSAYCSJOHT3OG5C9XMDVT8IB0","9","0","PENGUIN","13","11","0","3235","penguin","13","2018-06-27 22:08:05","313841"
"A299DY7LIIERYM","cs_wg_full_v2_pilot1","3DHE4R9OCWCB4DNCFZCYNS6TMA3G24","3","0","DEMON","3","5","0","4029","demon","3","2018-06-27 22:08:06","313842"
"ALQPGVQZEZSUE","cs_wg_full_v2_pilot1","378XPAWRUCEE57OBI25GEM27DBNIA5","14","0","DAGGER","6","11","1","2073","DAGGER","6","2018-06-27 22:08:07","313843"
"A1RQQFUQ2GU9IZ","cs_wg_full_v2_pilot1","3LRLIPTPEQA5B2EZI5QSR2HK5FCAK8","0","0","PUMPKIN","7","5","0","3645","pumpkin","7","2018-06-27 22:08:09","313844"
"A39YBLQYIUBR76","cs_wg_full_v2_pilot1","3LEP4MGT3G12G6DHW241I0603O0BDR","1","0","CHIMNEY","13","11","1","3778","chimney ","13","2018-06-27 22:08:10","313845"
"AYYEQBUPC7IM5","cs_wg_full_v2_pilot1","3TK8OJTYM1MQEHED6SMWJ6HWKZJPVP","6","0","TENNIS","13","11","1","1989","tennis","13","2018-06-27 22:08:14","313846"
"A3BEBDHWSLH1BQ","cs_wg_full_v2_pilot1","3I7DHKZYGN1XPAA4MY8E3E9T55U5FV","17","0","FORGERY","2","11","1","2447","FORGERY","12","2018-06-27 22:08:16","313847"
"A3EVXSWHYA1PTT","cs_wg_full_v2_pilot1","37FMASSAYCSJOHT3OG5C9XMDVT8IB0","10","0","CASINO","10","11","1","2852","casino","10","2018-06-27 22:08:16","313848"
"A37GOI3N77WX21","cs_wg_full_v2_pilot1","3R2PKQ87NW9F78X0F5VLNDX77SCIMP","17","0","KIDNEY","13","11","1","4737","kidney","13","2018-06-27 22:08:16","313849"
"ALQPGVQZEZSUE","cs_wg_full_v2_pilot1","378XPAWRUCEE57OBI25GEM27DBNIA5","15","0","ALMOND","10","11","1","3294","ALMOND","10","2018-06-27 22:08:19","313850"
"A1RQQFUQ2GU9IZ","cs_wg_full_v2_pilot1","3LRLIPTPEQA5B2EZI5QSR2HK5FCAK8","1","0","BAGPIPE","6","5","0","3270","bagpipe","6","2018-06-27 22:08:21","313851"
"A2BC4S4LVBQ3OV","cs_wg_full_v2_pilot1","37XITHEISWAFRLOSS3VGY9TM0ARCR5","10","0","PICTURE","13","11","1","11799","picture","13","2018-06-27 22:08:24","313852"
"A39YBLQYIUBR76","cs_wg_full_v2_pilot1","3LEP4MGT3G12G6DHW241I0603O0BDR","2","0","FLIGHT","6","11","0","4063","flight ","6","2018-06-27 22:08:26","313853"
"A299DY7LIIERYM","cs_wg_full_v2_pilot1","3DHE4R9OCWCB4DNCFZCYNS6TMA3G24","4","0","DEMON","3","5","1","2426","demon","3","2018-06-27 22:08:26","313854"
"A3EVXSWHYA1PTT","cs_wg_full_v2_pilot1","37FMASSAYCSJOHT3OG5C9XMDVT8IB0","11","0","SUMMER","13","11","0","3448","summer","13","2018-06-27 22:08:28","313855"
"A37GOI3N77WX21","cs_wg_full_v2_pilot1","3R2PKQ87NW9F78X0F5VLNDX77SCIMP","18","0","BARREL","12","11","0","6066","barrel","12","2018-06-27 22:08:32","313856"
"AYYEQBUPC7IM5","cs_wg_full_v2_pilot1","3TK8OJTYM1MQEHED6SMWJ6HWKZJPVP","7","0","GIRAFFE","1","11","1","2400","giraffe","1","2018-06-27 22:08:33","313857"
"A3BEBDHWSLH1BQ","cs_wg_full_v2_pilot1","3I7DHKZYGN1XPAA4MY8E3E9T55U5FV","18","0","PICTURE","13","11","1","6411","PICTURE","11","2018-06-27 22:08:33","313858"
"A1RQQFUQ2GU9IZ","cs_wg_full_v2_pilot1","3LRLIPTPEQA5B2EZI5QSR2HK5FCAK8","2","0","LIQUID","3","5","0","1770","liquid","3","2018-06-27 22:08:34","313859"
"ALQPGVQZEZSUE","cs_wg_full_v2_pilot1","378XPAWRUCEE57OBI25GEM27DBNIA5","16","0","GOGGLES","15","11","0","2450","GOGGLES","15","2018-06-27 22:08:34","313860"
"A3EVXSWHYA1PTT","cs_wg_full_v2_pilot1","37FMASSAYCSJOHT3OG5C9XMDVT8IB0","12","0","COFFEE","1","11","1","1789","coffee","1","2018-06-27 22:08:38","313861"
"A299DY7LIIERYM","cs_wg_full_v2_pilot1","3DHE4R9OCWCB4DNCFZCYNS6TMA3G24","5","0","JAVELIN","1","5","1","4727","javelin","1","2018-06-27 22:08:40","313862"
"A39YBLQYIUBR76","cs_wg_full_v2_pilot1","3LEP4MGT3G12G6DHW241I0603O0BDR","3","0","FRIEND","2","11","0","3756","friend","2","2018-06-27 22:08:40","313863"
"A2BC4S4LVBQ3OV","cs_wg_full_v2_pilot1","37XITHEISWAFRLOSS3VGY9TM0ARCR5","11","0","BARREL","12","11","0","3475","barrel","12","2018-06-27 22:08:42","313864"
"A1RQQFUQ2GU9IZ","cs_wg_full_v2_pilot1","3LRLIPTPEQA5B2EZI5QSR2HK5FCAK8","3","0","LIQUID","3","5","0","1019","liquid","3","2018-06-27 22:08:43","313865"
"ALQPGVQZEZSUE","cs_wg_full_v2_pilot1","378XPAWRUCEE57OBI25GEM27DBNIA5","17","0","DAGGER","6","11","1","3038","DAGGER","6","2018-06-27 22:08:46","313866"
"AYYEQBUPC7IM5","cs_wg_full_v2_pilot1","3TK8OJTYM1MQEHED6SMWJ6HWKZJPVP","8","0","PILLAR","15","11","1","2319","pillar","15","2018-06-27 22:08:46","313867"
"A37GOI3N77WX21","cs_wg_full_v2_pilot1","3R2PKQ87NW9F78X0F5VLNDX77SCIMP","19","0","TRAFFIC","1","11","1","2186","traffic","1","2018-06-27 22:08:49","313868"
"A299DY7LIIERYM","cs_wg_full_v2_pilot1","3DHE4R9OCWCB4DNCFZCYNS6TMA3G24","6","0","BUDGET","10","5","0","2137","budget","10","2018-06-27 22:08:52","313869"
"A1RQQFUQ2GU9IZ","cs_wg_full_v2_pilot1","3LRLIPTPEQA5B2EZI5QSR2HK5FCAK8","4","0","BABOON","6","5","0","2739","baboon","6","2018-06-27 22:08:54","313870"
"A3EVXSWHYA1PTT","cs_wg_full_v2_pilot1","37FMASSAYCSJOHT3OG5C9XMDVT8IB0","13","0","SILVER","15","11","1","1849","silver","15","2018-06-27 22:08:55","313871"
"A3BEBDHWSLH1BQ","cs_wg_full_v2_pilot1","3I7DHKZYGN1XPAA4MY8E3E9T55U5FV","19","0","GOGGLES","15","11","1","4362","GOGGLES","11","2018-06-27 22:08:55","313872"
"A39YBLQYIUBR76","cs_wg_full_v2_pilot1","3LEP4MGT3G12G6DHW241I0603O0BDR","4","0","FRIEND","2","11","1","2509","friend","2","2018-06-27 22:08:56","313873"
"AYYEQBUPC7IM5","cs_wg_full_v2_pilot1","3TK8OJTYM1MQEHED6SMWJ6HWKZJPVP","9","0","GIRAFFE","1","11","1","1788","giraffe","1","2018-06-27 22:08:58","313874"
"ALQPGVQZEZSUE","cs_wg_full_v2_pilot1","378XPAWRUCEE57OBI25GEM27DBNIA5","18","0","CAMERA","2","11","1","2983","CAMERA","2","2018-06-27 22:08:58","313875"
"A37GOI3N77WX21","cs_wg_full_v2_pilot1","3R2PKQ87NW9F78X0F5VLNDX77SCIMP","20","0","KIDNEY","13","11","0","4938","kidney","13","2018-06-27 22:08:58","313876"
"A2BC4S4LVBQ3OV","cs_wg_full_v2_pilot1","37XITHEISWAFRLOSS3VGY9TM0ARCR5","12","0","BASKET","9","11","1","3490","basket","9","2018-06-27 22:09:00","313877"
"A299DY7LIIERYM","cs_wg_full_v2_pilot1","3DHE4R9OCWCB4DNCFZCYNS6TMA3G24","7","0","DEMON","3","5","1","2440","demon","3","2018-06-27 22:09:02","313878"
"A1RQQFUQ2GU9IZ","cs_wg_full_v2_pilot1","3LRLIPTPEQA5B2EZI5QSR2HK5FCAK8","5","0","PUMPKIN","7","5","0","1570","pumpkin","7","2018-06-27 22:09:04","313879"
"ALQPGVQZEZSUE","cs_wg_full_v2_pilot1","378XPAWRUCEE57OBI25GEM27DBNIA5","19","0","BAGPIPE","10","11","1","2589","BAGPIPE","10","2018-06-27 22:09:11","313880"
"A3EVXSWHYA1PTT","cs_wg_full_v2_pilot1","37FMASSAYCSJOHT3OG5C9XMDVT8IB0","14","0","CHURCH","12","11","1","1703","church","12","2018-06-27 22:09:12","313881"
"A1RQQFUQ2GU9IZ","cs_wg_full_v2_pilot1","3LRLIPTPEQA5B2EZI5QSR2HK5FCAK8","6","0","SILVER","1","5","0","979","silver","1","2018-06-27 22:09:12","313882"
"A37GOI3N77WX21","cs_wg_full_v2_pilot1","3R2PKQ87NW9F78X0F5VLNDX77SCIMP","21","0","ADDICT","10","11","0","3914","addict","10","2018-06-27 22:09:12","313883"
"A3BEBDHWSLH1BQ","cs_wg_full_v2_pilot1","3I7DHKZYGN1XPAA4MY8E3E9T55U5FV","20","0","PEANUT","13","11","1","2350","PEANUT","11","2018-06-27 22:09:14","313884"
"A39YBLQYIUBR76","cs_wg_full_v2_pilot1","3LEP4MGT3G12G6DHW241I0603O0BDR","5","0","THRONE","10","11","1","2669","throne","10","2018-06-27 22:09:15","313885"
"A299DY7LIIERYM","cs_wg_full_v2_pilot1","3DHE4R9OCWCB4DNCFZCYNS6TMA3G24","8","0","BUDGET","10","5","0","4265","budget","10","2018-06-27 22:09:17","313886"
"AYYEQBUPC7IM5","cs_wg_full_v2_pilot1","3TK8OJTYM1MQEHED6SMWJ6HWKZJPVP","10","0","BAPTISM","10","11","0","7954","baptism","10","2018-06-27 22:09:17","313887"
"A2BC4S4LVBQ3OV","cs_wg_full_v2_pilot1","37XITHEISWAFRLOSS3VGY9TM0ARCR5","13","0","TRAFFIC","1","11","1","4889","traffic","1","2018-06-27 22:09:19","313888"
"A1RQQFUQ2GU9IZ","cs_wg_full_v2_pilot1","3LRLIPTPEQA5B2EZI5QSR2HK5FCAK8","7","0","KIDNEY","3","5","0","890","kidney","3","2018-06-27 22:09:20","313889"
"ALQPGVQZEZSUE","cs_wg_full_v2_pilot1","378XPAWRUCEE57OBI25GEM27DBNIA5","20","0","BAGPIPE","10","11","1","2032","BAGPIPE","10","2018-06-27 22:09:22","313890"
"A37GOI3N77WX21","cs_wg_full_v2_pilot1","3R2PKQ87NW9F78X0F5VLNDX77SCIMP","22","0","ADDICT","10","11","1","2698","addict","10","2018-06-27 22:09:23","313891"
"A3EVXSWHYA1PTT","cs_wg_full_v2_pilot1","37FMASSAYCSJOHT3OG5C9XMDVT8IB0","15","0","SILVER","15","11","0","2906","silver","15","2018-06-27 22:09:23","313892"
"A299DY7LIIERYM","cs_wg_full_v2_pilot1","3DHE4R9OCWCB4DNCFZCYNS6TMA3G24","9","0","PICTURE","3","5","0","1692","picture","3","2018-06-27 22:09:28","313893"
"A1RQQFUQ2GU9IZ","cs_wg_full_v2_pilot1","3LRLIPTPEQA5B2EZI5QSR2HK5FCAK8","8","0","BATTERY","14","5","0","1008","battery","14","2018-06-27 22:09:28","313894"
"AYYEQBUPC7IM5","cs_wg_full_v2_pilot1","3TK8OJTYM1MQEHED6SMWJ6HWKZJPVP","11","0","CHURCH","12","11","1","2337","church","12","2018-06-27 22:09:29","313895"
"A39YBLQYIUBR76","cs_wg_full_v2_pilot1","3LEP4MGT3G12G6DHW241I0603O0BDR","6","0","ABDOMEN","13","11","1","4133","abdomen","13","2018-06-27 22:09:31","313896"
"ALQPGVQZEZSUE","cs_wg_full_v2_pilot1","378XPAWRUCEE57OBI25GEM27DBNIA5","21","0","WAFFLE","1","11","1","1620","WAFFLE","1","2018-06-27 22:09:32","313897"
"A3EVXSWHYA1PTT","cs_wg_full_v2_pilot1","37FMASSAYCSJOHT3OG5C9XMDVT8IB0","16","0","BEGGAR","6","11","1","3085","beggar","6","2018-06-27 22:09:34","313898"
"A1RQQFUQ2GU9IZ","cs_wg_full_v2_pilot1","3LRLIPTPEQA5B2EZI5QSR2HK5FCAK8","9","0","BUDGET","10","5","0","836","budget","10","2018-06-27 22:09:36","313899"
"A2BC4S4LVBQ3OV","cs_wg_full_v2_pilot1","37XITHEISWAFRLOSS3VGY9TM0ARCR5","14","0","TRIVIA","15","11","0","3972","trivia","15","2018-06-27 22:09:41","313900"
"AYYEQBUPC7IM5","cs_wg_full_v2_pilot1","3TK8OJTYM1MQEHED6SMWJ6HWKZJPVP","12","0","FACTORY","10","11","1","1776","factory","10","2018-06-27 22:09:41","313901"
"A37GOI3N77WX21","cs_wg_full_v2_pilot1","3R2PKQ87NW9F78X0F5VLNDX77SCIMP","23","0","PEACOCK","10","11","1","1833","peacock","10","2018-06-27 22:09:42","313902"
"ALQPGVQZEZSUE","cs_wg_full_v2_pilot1","378XPAWRUCEE57OBI25GEM27DBNIA5","22","0","CHURCH","12","11","1","2238","CHURCH","12","2018-06-27 22:09:42","313903"
"A39YBLQYIUBR76","cs_wg_full_v2_pilot1","3LEP4MGT3G12G6DHW241I0603O0BDR","7","0","JAVELIN","15","11","1","1927","javelin","15","2018-06-27 22:09:43","313904"
"A1RQQFUQ2GU9IZ","cs_wg_full_v2_pilot1","3LRLIPTPEQA5B2EZI5QSR2HK5FCAK8","10","0","BUDGET","10","5","0","763","budget","10","2018-06-27 22:09:43","313905"
"A3EVXSWHYA1PTT","cs_wg_full_v2_pilot1","37FMASSAYCSJOHT3OG5C9XMDVT8IB0","17","0","ALMOND","10","11","1","1957","almond","10","2018-06-27 22:09:50","313906"
"A1RQQFUQ2GU9IZ","cs_wg_full_v2_pilot1","3LRLIPTPEQA5B2EZI5QSR2HK5FCAK8","11","0","LIQUID","3","5","0","594","liquid","3","2018-06-27 22:09:50","313907"
"A299DY7LIIERYM","cs_wg_full_v2_pilot1","3DHE4R9OCWCB4DNCFZCYNS6TMA3G24","10","0","CAMERA","14","5","0","5918","camera","14","2018-06-27 22:09:53","313908"
"A37GOI3N77WX21","cs_wg_full_v2_pilot1","3R2PKQ87NW9F78X0F5VLNDX77SCIMP","24","0","PEACOCK","10","11","1","2913","peacock","10","2018-06-27 22:09:53","313909"
"AYYEQBUPC7IM5","cs_wg_full_v2_pilot1","3TK8OJTYM1MQEHED6SMWJ6HWKZJPVP","13","0","CHURCH","12","11","1","3005","church","12","2018-06-27 22:09:54","313910"
"A346XPIBKBQ8Z6","cs_wg_full_v2_pilot1","3NC5L260MONJXKGMRD4DCK9KM0ZFOA","0","0","BEGGAR","6","11","1","7650","bugger","6","2018-06-27 22:09:55","313911"
"ALQPGVQZEZSUE","cs_wg_full_v2_pilot1","378XPAWRUCEE57OBI25GEM27DBNIA5","23","0","PEANUT","13","11","0","4015","PEANUT","13","2018-06-27 22:09:56","313912"
"A39YBLQYIUBR76","cs_wg_full_v2_pilot1","3LEP4MGT3G12G6DHW241I0603O0BDR","8","0","CHICKEN","9","11","1","1900","chicken ","9","2018-06-27 22:09:57","313913"
"A2BC4S4LVBQ3OV","cs_wg_full_v2_pilot1","37XITHEISWAFRLOSS3VGY9TM0ARCR5","15","0","THRONE","10","11","0","5670","throne","10","2018-06-27 22:09:58","313914"
"A1RQQFUQ2GU9IZ","cs_wg_full_v2_pilot1","3LRLIPTPEQA5B2EZI5QSR2HK5FCAK8","12","0","BAGPIPE","6","5","0","1747","bagpipe","6","2018-06-27 22:10:00","313915"
"A299DY7LIIERYM","cs_wg_full_v2_pilot1","3DHE4R9OCWCB4DNCFZCYNS6TMA3G24","11","0","PEACOCK","6","5","0","1637","peacock","6","2018-06-27 22:10:04","313916"
"A3EVXSWHYA1PTT","cs_wg_full_v2_pilot1","37FMASSAYCSJOHT3OG5C9XMDVT8IB0","18","0","PARENT","2","11","1","1152","parent ","2
2","2018-06-27 22:10:05","313917"
"ALQPGVQZEZSUE","cs_wg_full_v2_pilot1","378XPAWRUCEE57OBI25GEM27DBNIA5","24","0","BANQUET","13","11","1","1796","BANQUET","13","2018-06-27 22:10:07","313918"
"A1RQQFUQ2GU9IZ","cs_wg_full_v2_pilot1","3LRLIPTPEQA5B2EZI5QSR2HK5FCAK8","13","0","COFFIN","15","5","0","947","coffin","15","2018-06-27 22:10:08","313919"
"AYYEQBUPC7IM5","cs_wg_full_v2_pilot1","3TK8OJTYM1MQEHED6SMWJ6HWKZJPVP","14","0","PILLAR","15","11","0","6243","pillar","15","2018-06-27 22:10:10","313920"
"A37GOI3N77WX21","cs_wg_full_v2_pilot1","3R2PKQ87NW9F78X0F5VLNDX77SCIMP","25","0","ADDICT","10","11","1","3336","addict","10","2018-06-27 22:10:11","313921"
"A346XPIBKBQ8Z6","cs_wg_full_v2_pilot1","3NC5L260MONJXKGMRD4DCK9KM0ZFOA","1","0","SPONGE","13","11","1","3992","sponge","13","2018-06-27 22:10:14","313922"
"A2BC4S4LVBQ3OV","cs_wg_full_v2_pilot1","37XITHEISWAFRLOSS3VGY9TM0ARCR5","16","0","BASKET","9","11","1","3556","basket","9","2018-06-27 22:10:14","313923"
"A37GOI3N77WX21","cs_wg_full_v2_pilot1","3R2PKQ87NW9F78X0F5VLNDX77SCIMP","26","0","ADDICT","10","11","1","1488","addict","10","2018-06-27 22:10:15","313924"
"A3BEBDHWSLH1BQ","cs_wg_full_v2_pilot1","3I7DHKZYGN1XPAA4MY8E3E9T55U5FV","21","0","PEANUT","13","11","1","47150","PEANUT","11","2018-06-27 22:10:16","313925"
"A1RQQFUQ2GU9IZ","cs_wg_full_v2_pilot1","3LRLIPTPEQA5B2EZI5QSR2HK5FCAK8","14","0","COFFIN","15","5","0","1068","coffin","15","2018-06-27 22:10:16","313926"
"A3EVXSWHYA1PTT","cs_wg_full_v2_pilot1","37FMASSAYCSJOHT3OG5C9XMDVT8IB0","19","0","CHURCH","12","11","0","2947","church","12","2018-06-27 22:10:16","313927"
"ALQPGVQZEZSUE","cs_wg_full_v2_pilot1","378XPAWRUCEE57OBI25GEM27DBNIA5","25","0","CAMERA","2","11","1","2444","CAMERA","2","2018-06-27 22:10:17","313928"
"A299DY7LIIERYM","cs_wg_full_v2_pilot1","3DHE4R9OCWCB4DNCFZCYNS6TMA3G24","12","0","PICTURE","3","5","0","4087","picture","3","2018-06-27 22:10:19","313929"
"A39YBLQYIUBR76","cs_wg_full_v2_pilot1","3LEP4MGT3G12G6DHW241I0603O0BDR","9","0","FLIGHT","6","11","1","8751","fight","6","2018-06-27 22:10:21","313930"
"AYYEQBUPC7IM5","cs_wg_full_v2_pilot1","3TK8OJTYM1MQEHED6SMWJ6HWKZJPVP","15","0","TONGUE","6","11","1","2338","tongue","6","2018-06-27 22:10:22","313931"
"A1RQQFUQ2GU9IZ","cs_wg_full_v2_pilot1","3LRLIPTPEQA5B2EZI5QSR2HK5FCAK8","15","0","LIQUID","3","5","1","1698","liquid","3","2018-06-27 22:10:25","313932"
"A3EVXSWHYA1PTT","cs_wg_full_v2_pilot1","37FMASSAYCSJOHT3OG5C9XMDVT8IB0","20","0","COFFEE","1","11","1","3040","coffee","1","2018-06-27 22:10:27","313933"
"A37GOI3N77WX21","cs_wg_full_v2_pilot1","3R2PKQ87NW9F78X0F5VLNDX77SCIMP","27","0","FORGERY","2","11","1","2983","forgery","2","2018-06-27 22:10:28","313934"
"ALQPGVQZEZSUE","cs_wg_full_v2_pilot1","378XPAWRUCEE57OBI25GEM27DBNIA5","26","0","ALMOND","10","11","1","2168","ALMOND","10","2018-06-27 22:10:29","313935"
"A346XPIBKBQ8Z6","cs_wg_full_v2_pilot1","3NC5L260MONJXKGMRD4DCK9KM0ZFOA","2","0","BASKET","9","11","0","6812","BASKET","9","2018-06-27 22:10:29","313936"
"A2BC4S4LVBQ3OV","cs_wg_full_v2_pilot1","37XITHEISWAFRLOSS3VGY9TM0ARCR5","17","0","HERMIT","13","11","0","3434","hermit","13","2018-06-27 22:10:31","313937"
"A39YBLQYIUBR76","cs_wg_full_v2_pilot1","3LEP4MGT3G12G6DHW241I0603O0BDR","10","0","BAGPIPE","10","11","1","3206","bagpipe","10","2018-06-27 22:10:33","313938"
"A1RQQFUQ2GU9IZ","cs_wg_full_v2_pilot1","3LRLIPTPEQA5B2EZI5QSR2HK5FCAK8","16","0","CARROT","4","5","0","1020","carrot","4","2018-06-27 22:10:33","313939"
"AYYEQBUPC7IM5","cs_wg_full_v2_pilot1","3TK8OJTYM1MQEHED6SMWJ6HWKZJPVP","16","0","TONGUE","6","11","1","2399","tongue","6","2018-06-27 22:10:35","313940"
"A3EVXSWHYA1PTT","cs_wg_full_v2_pilot1","37FMASSAYCSJOHT3OG5C9XMDVT8IB0","21","0","COFFEE","1","11","1","1601","coffee","1","2018-06-27 22:10:38","313941"
"A3BEBDHWSLH1BQ","cs_wg_full_v2_pilot1","3I7DHKZYGN1XPAA4MY8E3E9T55U5FV","22","0","CASINO","10","11","1","2058","CASINO","11","2018-06-27 22:10:38","313942"
"ALQPGVQZEZSUE","cs_wg_full_v2_pilot1","378XPAWRUCEE57OBI25GEM27DBNIA5","27","0","BEAVER","15","11","0","3044","BEAVER","15","2018-06-27 22:10:40","313943"
"A1RQQFUQ2GU9IZ","cs_wg_full_v2_pilot1","3LRLIPTPEQA5B2EZI5QSR2HK5FCAK8","17","0","BUDGET","10","5","0","1452","budget","10","2018-06-27 22:10:42","313944"
"A299DY7LIIERYM","cs_wg_full_v2_pilot1","3DHE4R9OCWCB4DNCFZCYNS6TMA3G24","13","0","CABINET","3","5","0","1688","cabinet","3","2018-06-27 22:10:42","313945"
"A346XPIBKBQ8Z6","cs_wg_full_v2_pilot1","3NC5L260MONJXKGMRD4DCK9KM0ZFOA","3","0","BULLET","15","11","1","3966","BULLET","15","2018-06-27 22:10:42","313946"
"A2BC4S4LVBQ3OV","cs_wg_full_v2_pilot1","37XITHEISWAFRLOSS3VGY9TM0ARCR5","18","0","PLANET","13","11","1","2481","planet","13","2018-06-27 22:10:46","313947"
"A39YBLQYIUBR76","cs_wg_full_v2_pilot1","3LEP4MGT3G12G6DHW241I0603O0BDR","11","0","THRONE","10","11","0","5031","throne","10","2018-06-27 22:10:48","313948"
"A3EVXSWHYA1PTT","cs_wg_full_v2_pilot1","37FMASSAYCSJOHT3OG5C9XMDVT8IB0","22","0","JAVELIN","15","11","0","3063","javelin","15","2018-06-27 22:10:49","313949"
"A1RQQFUQ2GU9IZ","cs_wg_full_v2_pilot1","3LRLIPTPEQA5B2EZI5QSR2HK5FCAK8","18","0","PUMPKIN","7","5","0","1313","pumpkin","7","2018-06-27 22:10:50","313950"
"A37GOI3N77WX21","cs_wg_full_v2_pilot1","3R2PKQ87NW9F78X0F5VLNDX77SCIMP","28","0","PILLAR","15","11","0","11811","pillar","15","2018-06-27 22:10:50","313951"
"ALQPGVQZEZSUE","cs_wg_full_v2_pilot1","378XPAWRUCEE57OBI25GEM27DBNIA5","28","0","BEAVER","15","11","0","2212","BEAVER","15","2018-06-27 22:10:51","313952"
"AYYEQBUPC7IM5","cs_wg_full_v2_pilot1","3TK8OJTYM1MQEHED6SMWJ6HWKZJPVP","17","0","PILLAR","15","11","1","6121","pillar","15","2018-06-27 22:10:53","313953"
"A299DY7LIIERYM","cs_wg_full_v2_pilot1","3DHE4R9OCWCB4DNCFZCYNS6TMA3G24","14","0","CHICKEN","7","5","0","2071","chicken","7","2018-06-27 22:10:53","313954"
"A2BC4S4LVBQ3OV","cs_wg_full_v2_pilot1","37XITHEISWAFRLOSS3VGY9TM0ARCR5","19","0","FRIEND","2","11","1","2597","friend","2","2018-06-27 22:10:58","313955"
"A1RQQFUQ2GU9IZ","cs_wg_full_v2_pilot1","3LRLIPTPEQA5B2EZI5QSR2HK5FCAK8","19","0","BAGPIPE","6","5","0","1985","bagpipe","6","2018-06-27 22:10:59","313956"
"A3BEBDHWSLH1BQ","cs_wg_full_v2_pilot1","3I7DHKZYGN1XPAA4MY8E3E9T55U5FV","23","0","GOGGLES","15","11","1","2431","GOGGLES","11","2018-06-27 22:10:59","313957"
"A39YBLQYIUBR76","cs_wg_full_v2_pilot1","3LEP4MGT3G12G6DHW241I0603O0BDR","12","0","SPATULA","13","11","0","2542","spatula","13","2018-06-27 22:11:01","313958"
"A3EVXSWHYA1PTT","cs_wg_full_v2_pilot1","37FMASSAYCSJOHT3OG5C9XMDVT8IB0","23","0","COFFEE","1","11","1","1760","coffee","1","2018-06-27 22:11:02","313959"
"ALQPGVQZEZSUE","cs_wg_full_v2_pilot1","378XPAWRUCEE57OBI25GEM27DBNIA5","29","0","CHURCH","12","11","0","3316","CHURCH","12","2018-06-27 22:11:05","313960"
"AYYEQBUPC7IM5","cs_wg_full_v2_pilot1","3TK8OJTYM1MQEHED6SMWJ6HWKZJPVP","18","0","FACTORY","10","11","1","2101","factory","10","2018-06-27 22:11:05","313961"
"A299DY7LIIERYM","cs_wg_full_v2_pilot1","3DHE4R9OCWCB4DNCFZCYNS6TMA3G24","15","0","BIKINI","6","5","0","1477","bikini","6","2018-06-27 22:11:06","313962"
"A1RQQFUQ2GU9IZ","cs_wg_full_v2_pilot1","3LRLIPTPEQA5B2EZI5QSR2HK5FCAK8","20","0","BATTERY","14","5","0","2139","battery","14","2018-06-27 22:11:08","313963"
"A2BC4S4LVBQ3OV","cs_wg_full_v2_pilot1","37XITHEISWAFRLOSS3VGY9TM0ARCR5","20","0","BARREL","12","11","0","2604","barrel","12","2018-06-27 22:11:13","313964"
"A3EVXSWHYA1PTT","cs_wg_full_v2_pilot1","37FMASSAYCSJOHT3OG5C9XMDVT8IB0","24","0","ALMOND","10","11","1","2286","almond","10","2018-06-27 22:11:14","313965"
"A39YBLQYIUBR76","cs_wg_full_v2_pilot1","3LEP4MGT3G12G6DHW241I0603O0BDR","13","0","CHICKEN","9","11","1","2343","chicken ","9","2018-06-27 22:11:14","313966"
"A37GOI3N77WX21","cs_wg_full_v2_pilot1","3R2PKQ87NW9F78X0F5VLNDX77SCIMP","29","0","BARREL","12","11","0","4635","barrel","12","2018-06-27 22:11:15","313967"
"ALQPGVQZEZSUE","cs_wg_full_v2_pilot1","378XPAWRUCEE57OBI25GEM27DBNIA5","30","0","ALMOND","10","11","1","1878","ALMOND","10","2018-06-27 22:11:15","313968"
"A1RQQFUQ2GU9IZ","cs_wg_full_v2_pilot1","3LRLIPTPEQA5B2EZI5QSR2HK5FCAK8","21","0","BABOON","6","5","0","947","baboon","6","2018-06-27 22:11:16","313969"
"A3BEBDHWSLH1BQ","cs_wg_full_v2_pilot1","3I7DHKZYGN1XPAA4MY8E3E9T55U5FV","24","0","DEMON","13","11","1","2322","DEMON","11","2018-06-27 22:11:17","313970"
"AYYEQBUPC7IM5","cs_wg_full_v2_pilot1","3TK8OJTYM1MQEHED6SMWJ6HWKZJPVP","19","0","DEMON","13","11","1","2934","demon","13","2018-06-27 22:11:17","313971"
"A299DY7LIIERYM","cs_wg_full_v2_pilot1","3DHE4R9OCWCB4DNCFZCYNS6TMA3G24","16","0","BIKINI","6","5","0","1733","bikini","6","2018-06-27 22:11:17","313972"
"A1RQQFUQ2GU9IZ","cs_wg_full_v2_pilot1","3LRLIPTPEQA5B2EZI5QSR2HK5FCAK8","22","0","PUMPKIN","7","5","0","840","pumpkin","7","2018-06-27 22:11:25","313973"
"A3EVXSWHYA1PTT","cs_wg_full_v2_pilot1","37FMASSAYCSJOHT3OG5C9XMDVT8IB0","25","0","PARENT","2","11","1","2294","parent","2","2018-06-27 22:11:26","313974"
"ALQPGVQZEZSUE","cs_wg_full_v2_pilot1","378XPAWRUCEE57OBI25GEM27DBNIA5","31","0","PEANUT","13","11","0","2467","PEANUT","13","2018-06-27 22:11:26","313975"
"A39YBLQYIUBR76","cs_wg_full_v2_pilot1","3LEP4MGT3G12G6DHW241I0603O0BDR","14","0","FLIGHT","6","11","1","2974","flight","6","2018-06-27 22:11:27","313976"
"A299DY7LIIERYM","cs_wg_full_v2_pilot1","3DHE4R9OCWCB4DNCFZCYNS6TMA3G24","17","0","PICTURE","3","5","1","2638","picture","3","2018-06-27 22:11:29","313977"
"AYYEQBUPC7IM5","cs_wg_full_v2_pilot1","3TK8OJTYM1MQEHED6SMWJ6HWKZJPVP","20","0","TONGUE","6","11","1","4067","tongue","6","2018-06-27 22:11:32","313978"
"A37GOI3N77WX21","cs_wg_full_v2_pilot1","3R2PKQ87NW9F78X0F5VLNDX77SCIMP","30","0","BEAVER","15","11","0","5866","beaver","15","2018-06-27 22:11:32","313979"
"A2BC4S4LVBQ3OV","cs_wg_full_v2_pilot1","37XITHEISWAFRLOSS3VGY9TM0ARCR5","21","0","PICTURE","13","11","0","6252","picture","13","2018-06-27 22:11:32","313980"
"A1RQQFUQ2GU9IZ","cs_wg_full_v2_pilot1","3LRLIPTPEQA5B2EZI5QSR2HK5FCAK8","23","0","BUDGET","10","5","0","3524","budget","10","2018-06-27 22:11:35","313981"
"A37GOI3N77WX21","cs_wg_full_v2_pilot1","3R2PKQ87NW9F78X0F5VLNDX77SCIMP","31","0","BUDGET","6","11","1","2769","budget","6","2018-06-27 22:11:36","313982"
"A3EVXSWHYA1PTT","cs_wg_full_v2_pilot1","37FMASSAYCSJOHT3OG5C9XMDVT8IB0","26","0","SUMMER","13","11","0","3134","summer","13","2018-06-27 22:11:38","313983"
"ALQPGVQZEZSUE","cs_wg_full_v2_pilot1","378XPAWRUCEE57OBI25GEM27DBNIA5","32","0","CAMERA","2","11","1","2497","CAMERA","2","2018-06-27 22:11:38","313984"
"A39YBLQYIUBR76","cs_wg_full_v2_pilot1","3LEP4MGT3G12G6DHW241I0603O0BDR","15","0","SHIVER","15","11","0","2117","shiver","15","2018-06-27 22:11:39","313985"
"A299DY7LIIERYM","cs_wg_full_v2_pilot1","3DHE4R9OCWCB4DNCFZCYNS6TMA3G24","18","0","PEACOCK","6","5","0","2926","peacock","6","2018-06-27 22:11:41","313986"
"A1RQQFUQ2GU9IZ","cs_wg_full_v2_pilot1","3LRLIPTPEQA5B2EZI5QSR2HK5FCAK8","24","0","FIREMAN","3","5","0","1347","fireman","3","2018-06-27 22:11:43","313987"
"AYYEQBUPC7IM5","cs_wg_full_v2_pilot1","3TK8OJTYM1MQEHED6SMWJ6HWKZJPVP","21","0","BATTERY","2","11","1","1856","battery","2","2018-06-27 22:11:44","313988"
"A2BC4S4LVBQ3OV","cs_wg_full_v2_pilot1","37XITHEISWAFRLOSS3VGY9TM0ARCR5","22","0","PICTURE","13","11","0","2330","picture","13","2018-06-27 22:11:45","313989"
"ALQPGVQZEZSUE","cs_wg_full_v2_pilot1","378XPAWRUCEE57OBI25GEM27DBNIA5","33","0","PEANUT","13","11","1","1992","PEANUT","13","2018-06-27 22:11:48","313990"
"A39YBLQYIUBR76","cs_wg_full_v2_pilot1","3LEP4MGT3G12G6DHW241I0603O0BDR","16","0","THRONE","10","11","1","2301","throne","10","2018-06-27 22:11:51","313991"
"A37GOI3N77WX21","cs_wg_full_v2_pilot1","3R2PKQ87NW9F78X0F5VLNDX77SCIMP","32","0","BEAVER","15","11","0","2874","beaver","15","2018-06-27 22:11:51","313992"
"A299DY7LIIERYM","cs_wg_full_v2_pilot1","3DHE4R9OCWCB4DNCFZCYNS6TMA3G24","19","0","DEMON","3","5","1","2676","demon","3","2018-06-27 22:11:52","313993"
"A1RQQFUQ2GU9IZ","cs_wg_full_v2_pilot1","3LRLIPTPEQA5B2EZI5QSR2HK5FCAK8","25","0","GOGGLES","1","5","0","1234","goggles","1","2018-06-27 22:11:53","313994"
"AYYEQBUPC7IM5","cs_wg_full_v2_pilot1","3TK8OJTYM1MQEHED6SMWJ6HWKZJPVP","22","0","GIRAFFE","1","11","1","1879","giraffe","1","2018-06-27 22:11:54","313995"
"A3EVXSWHYA1PTT","cs_wg_full_v2_pilot1","37FMASSAYCSJOHT3OG5C9XMDVT8IB0","27","0","PICKLE","9","11","1","2037","pickle","9","2018-06-27 22:11:56","313996"
"A2BC4S4LVBQ3OV","cs_wg_full_v2_pilot1","37XITHEISWAFRLOSS3VGY9TM0ARCR5","23","0","BASKET","9","11","1","2308","basket","9","2018-06-27 22:11:59","313997"
"ALQPGVQZEZSUE","cs_wg_full_v2_pilot1","378XPAWRUCEE57OBI25GEM27DBNIA5","34","0","BEAVER","15","11","0","2760","BEAVER","15","2018-06-27 22:11:59","313998"
"A1RQQFUQ2GU9IZ","cs_wg_full_v2_pilot1","3LRLIPTPEQA5B2EZI5QSR2HK5FCAK8","26","0","CARROT","4","5","1","2339","carrot","4","2018-06-27 22:12:04","313999"
"A299DY7LIIERYM","cs_wg_full_v2_pilot1","3DHE4R9OCWCB4DNCFZCYNS6TMA3G24","20","0","CHICKEN","7","5","0","1930","chicken","7","2018-06-27 22:12:04","314000"
"A39YBLQYIUBR76","cs_wg_full_v2_pilot1","3LEP4MGT3G12G6DHW241I0603O0BDR","17","0","CARROT","12","11","1","2783","carrot ","12","2018-06-27 22:12:05","314001"
"AYYEQBUPC7IM5","cs_wg_full_v2_pilot1","3TK8OJTYM1MQEHED6SMWJ6HWKZJPVP","23","0","DEMON","13","11","1","1997","demon","13","2018-06-27 22:12:05","314002"
"A3EVXSWHYA1PTT","cs_wg_full_v2_pilot1","37FMASSAYCSJOHT3OG5C9XMDVT8IB0","28","0","CHURCH","12","11","0","4039","church","12","2018-06-27 22:12:08","314003"
"A37GOI3N77WX21","cs_wg_full_v2_pilot1","3R2PKQ87NW9F78X0F5VLNDX77SCIMP","33","0","SUNBURN","13","11","1","5425","sunburn","13","2018-06-27 22:12:09","314004"
"A1RQQFUQ2GU9IZ","cs_wg_full_v2_pilot1","3LRLIPTPEQA5B2EZI5QSR2HK5FCAK8","27","0","BABOON","6","5","0","1644","baboon","6","2018-06-27 22:12:12","314005"
"ALQPGVQZEZSUE","cs_wg_full_v2_pilot1","378XPAWRUCEE57OBI25GEM27DBNIA5","35","0","BAGPIPE","10","11","1","4661","BAGPIPE","10","2018-06-27 22:12:13","314006"
"A2BC4S4LVBQ3OV","cs_wg_full_v2_pilot1","37XITHEISWAFRLOSS3VGY9TM0ARCR5","24","0","FRIEND","2","11","1","1958","friend","2","2018-06-27 22:12:13","314007"
"A3BEBDHWSLH1BQ","cs_wg_full_v2_pilot1","3I7DHKZYGN1XPAA4MY8E3E9T55U5FV","25","0","CANVAS","15","11","1","37886","CANVAS","11","2018-06-27 22:12:14","314008"
"A299DY7LIIERYM","cs_wg_full_v2_pilot1","3DHE4R9OCWCB4DNCFZCYNS6TMA3G24","21","0","DEMON","3","5","1","2038","demon","3","2018-06-27 22:12:14","314009"
"AYYEQBUPC7IM5","cs_wg_full_v2_pilot1","3TK8OJTYM1MQEHED6SMWJ6HWKZJPVP","24","0","SHIVER","15","11","1","1751","shiver","15","2018-06-27 22:12:15","314010"
"A39YBLQYIUBR76","cs_wg_full_v2_pilot1","3LEP4MGT3G12G6DHW241I0603O0BDR","18","0","BAGPIPE","10","11","0","2524","bagpipe","10","2018-06-27 22:12:18","314011"
"A1RQQFUQ2GU9IZ","cs_wg_full_v2_pilot1","3LRLIPTPEQA5B2EZI5QSR2HK5FCAK8","28","0","PUMPKIN","7","5","0","944","pumpkin","7","2018-06-27 22:12:21","314012"
"ALQPGVQZEZSUE","cs_wg_full_v2_pilot1","378XPAWRUCEE57OBI25GEM27DBNIA5","36","0","PEANUT","13","11","0","2667","PEANUT","13","2018-06-27 22:12:25","314013"
"A2BC4S4LVBQ3OV","cs_wg_full_v2_pilot1","37XITHEISWAFRLOSS3VGY9TM0ARCR5","25","0","BASKET","9","11","1","2267","basket","9","2018-06-27 22:12:27","314014"
"AYYEQBUPC7IM5","cs_wg_full_v2_pilot1","3TK8OJTYM1MQEHED6SMWJ6HWKZJPVP","25","0","BUCKET","9","11","1","1741","bucket","9","2018-06-27 22:12:27","314015"
"A299DY7LIIERYM","cs_wg_full_v2_pilot1","3DHE4R9OCWCB4DNCFZCYNS6TMA3G24","22","0","BUDGET","10","5","1","4139","budget","10","2018-06-27 22:12:27","314016"
"A37GOI3N77WX21","cs_wg_full_v2_pilot1","3R2PKQ87NW9F78X0F5VLNDX77SCIMP","34","0","KIDNEY","13","11","1","3584","kidney","13","2018-06-27 22:12:29","314017"
"A1RQQFUQ2GU9IZ","cs_wg_full_v2_pilot1","3LRLIPTPEQA5B2EZI5QSR2HK5FCAK8","29","0","SILVER","1","5","1","1779","silver","1","2018-06-27 22:12:30","314018"
"A3EVXSWHYA1PTT","cs_wg_full_v2_pilot1","37FMASSAYCSJOHT3OG5C9XMDVT8IB0","29","0","PEANUT","13","11","1","4652","peanut","13","2018-06-27 22:12:31","314019"
"A39YBLQYIUBR76","cs_wg_full_v2_pilot1","3LEP4MGT3G12G6DHW241I0603O0BDR","19","0","ABDOMEN","13","11","1","2781","abdomen","13","2018-06-27 22:12:33","314020"
"A3BEBDHWSLH1BQ","cs_wg_full_v2_pilot1","3I7DHKZYGN1XPAA4MY8E3E9T55U5FV","26","0","DEMON","13","11","1","2399","DEMON","11","2018-06-27 22:12:34","314021"
"ALQPGVQZEZSUE","cs_wg_full_v2_pilot1","378XPAWRUCEE57OBI25GEM27DBNIA5","37","0","SMOKER","9","11","1","3230","SMOKER","9","2018-06-27 22:12:38","314022"
"AYYEQBUPC7IM5","cs_wg_full_v2_pilot1","3TK8OJTYM1MQEHED6SMWJ6HWKZJPVP","26","0","TENNIS","13","11","1","1545","tennis","13","2018-06-27 22:12:39","314023"
"A1RQQFUQ2GU9IZ","cs_wg_full_v2_pilot1","3LRLIPTPEQA5B2EZI5QSR2HK5FCAK8","30","0","PUMPKIN","7","5","0","867","pumpkin","7","2018-06-27 22:12:39","314024"
"A299DY7LIIERYM","cs_wg_full_v2_pilot1","3DHE4R9OCWCB4DNCFZCYNS6TMA3G24","23","0","BUDGET","10","5","0","3877","budget","10","2018-06-27 22:12:41","314025"
"A37GOI3N77WX21","cs_wg_full_v2_pilot1","3R2PKQ87NW9F78X0F5VLNDX77SCIMP","35","0","SUMMER","13","11","0","2058","summer","13","2018-06-27 22:12:42","314026"
"A3EVXSWHYA1PTT","cs_wg_full_v2_pilot1","37FMASSAYCSJOHT3OG5C9XMDVT8IB0","30","0","BEGGAR","6","11","1","1969","beggar","6","2018-06-27 22:12:42","314027"
"A2BC4S4LVBQ3OV","cs_wg_full_v2_pilot1","37XITHEISWAFRLOSS3VGY9TM0ARCR5","26","0","BULLET","15","11","0","4965","bullet","15","2018-06-27 22:12:44","314028"
"A39YBLQYIUBR76","cs_wg_full_v2_pilot1","3LEP4MGT3G12G6DHW241I0603O0BDR","20","0","COFFIN","1","11","0","2110","coffin","1","2018-06-27 22:12:45","314029"
"A1RQQFUQ2GU9IZ","cs_wg_full_v2_pilot1","3LRLIPTPEQA5B2EZI5QSR2HK5FCAK8","31","0","COFFIN","15","5","0","2139","coffin","15","2018-06-27 22:12:48","314030"
"AYYEQBUPC7IM5","cs_wg_full_v2_pilot1","3TK8OJTYM1MQEHED6SMWJ6HWKZJPVP","27","0","CHURCH","12","11","1","1576","church","12","2018-06-27 22:12:49","314031"
"ALQPGVQZEZSUE","cs_wg_full_v2_pilot1","378XPAWRUCEE57OBI25GEM27DBNIA5","38","0","BEAVER","15","11","1","3340","BEAVER","15","2018-06-27 22:12:49","314032"
"A37GOI3N77WX21","cs_wg_full_v2_pilot1","3R2PKQ87NW9F78X0F5VLNDX77SCIMP","36","0","SUNBURN","13","11","0","2306","sunburn","13","2018-06-27 22:12:51","314033"
"A3EVXSWHYA1PTT","cs_wg_full_v2_pilot1","37FMASSAYCSJOHT3OG5C9XMDVT8IB0","31","0","PICKLE","9","11","0","2756","pickle","9","2018-06-27 22:12:53","314034"
"A3BEBDHWSLH1BQ","cs_wg_full_v2_pilot1","3I7DHKZYGN1XPAA4MY8E3E9T55U5FV","27","0","DEMON","13","11","1","2273","DEMON","11","2018-06-27 22:12:54","314035"
"A299DY7LIIERYM","cs_wg_full_v2_pilot1","3DHE4R9OCWCB4DNCFZCYNS6TMA3G24","24","0","PEACOCK","6","5","0","4231","peacock","6","2018-06-27 22:12:54","314036"
"A1RQQFUQ2GU9IZ","cs_wg_full_v2_pilot1","3LRLIPTPEQA5B2EZI5QSR2HK5FCAK8","32","0","BAGPIPE","6","5","0","986","bagpipe","6","2018-06-27 22:12:56","314037"
"A2BC4S4LVBQ3OV","cs_wg_full_v2_pilot1","37XITHEISWAFRLOSS3VGY9TM0ARCR5","27","0","JUNGLE","6","11","1","4177","jungle","6","2018-06-27 22:12:58","314038"
"ALQPGVQZEZSUE","cs_wg_full_v2_pilot1","378XPAWRUCEE57OBI25GEM27DBNIA5","39","0","DAGGER","6","11","1","2538","DAGGGER","6","2018-06-27 22:12:59","314039"
"A39YBLQYIUBR76","cs_wg_full_v2_pilot1","3LEP4MGT3G12G6DHW241I0603O0BDR","21","0","ABDOMEN","13","11","0","3454","abdomen","13","2018-06-27 22:12:59","314040"
"AYYEQBUPC7IM5","cs_wg_full_v2_pilot1","3TK8OJTYM1MQEHED6SMWJ6HWKZJPVP","28","0","BAPTISM","10","11","1","1898","baptism","10","2018-06-27 22:13:02","314041"
"A1RQQFUQ2GU9IZ","cs_wg_full_v2_pilot1","3LRLIPTPEQA5B2EZI5QSR2HK5FCAK8","33","0","PUMPKIN","7","5","0","667","pumpkin","7","2018-06-27 22:13:04","314042"
"A299DY7LIIERYM","cs_wg_full_v2_pilot1","3DHE4R9OCWCB4DNCFZCYNS6TMA3G24","25","0","JAVELIN","1","5","1","1949","javelin","1","2018-06-27 22:13:05","314043"
"A37GOI3N77WX21","cs_wg_full_v2_pilot1","3R2PKQ87NW9F78X0F5VLNDX77SCIMP","37","0","SUMMER","13","11","0","1737","summer","13","2018-06-27 22:13:07","314044"
"A3EVXSWHYA1PTT","cs_wg_full_v2_pilot1","37FMASSAYCSJOHT3OG5C9XMDVT8IB0","32","0","SUMMER","13","11","0","2516","summer","13","2018-06-27 22:13:07","314045"
"ALQPGVQZEZSUE","cs_wg_full_v2_pilot1","378XPAWRUCEE57OBI25GEM27DBNIA5","40","0","GOGGLES","15","11","0","2262","GOGGLES","15","2018-06-27 22:13:10","314046"
"A3BEBDHWSLH1BQ","cs_wg_full_v2_pilot1","3I7DHKZYGN1XPAA4MY8E3E9T55U5FV","28","0","DEMON","13","11","1","2373","DEMON","11","2018-06-27 22:13:11","314047"
"AYYEQBUPC7IM5","cs_wg_full_v2_pilot1","3TK8OJTYM1MQEHED6SMWJ6HWKZJPVP","29","0","CHURCH","12","11","1","1696","church","12","2018-06-27 22:13:14","314048"
"A299DY7LIIERYM","cs_wg_full_v2_pilot1","3DHE4R9OCWCB4DNCFZCYNS6TMA3G24","26","0","BEAVER","1","5","0","1409","beaver","1","2018-06-27 22:13:15","314049"
"A39YBLQYIUBR76","cs_wg_full_v2_pilot1","3LEP4MGT3G12G6DHW241I0603O0BDR","22","0","COFFIN","1","11","1","2311","coffin","1","2018-06-27 22:13:16","314050"
"A1RQQFUQ2GU9IZ","cs_wg_full_v2_pilot1","3LRLIPTPEQA5B2EZI5QSR2HK5FCAK8","34","0","FIREMAN","3","5","1","2845","fireman","3","2018-06-27 22:13:17","314051"
"A3EVXSWHYA1PTT","cs_wg_full_v2_pilot1","37FMASSAYCSJOHT3OG5C9XMDVT8IB0","33","0","JAVELIN","15","11","0","4084","javelin","15","2018-06-27 22:13:19","314052"
"A2BC4S4LVBQ3OV","cs_wg_full_v2_pilot1","37XITHEISWAFRLOSS3VGY9TM0ARCR5","28","0","CASINO","10","11","1","8501","casino","10","2018-06-27 22:13:19","314053"
"ALQPGVQZEZSUE","cs_wg_full_v2_pilot1","378XPAWRUCEE57OBI25GEM27DBNIA5","41","0","BAGPIPE","10","11","0","1628","BAGPIPE","10","2018-06-27 22:13:21","314054"
"A37GOI3N77WX21","cs_wg_full_v2_pilot1","3R2PKQ87NW9F78X0F5VLNDX77SCIMP","38","0","PEACOCK","10","11","1","5536","peacock","10","2018-06-27 22:13:24","314055"
"A1RQQFUQ2GU9IZ","cs_wg_full_v2_pilot1","3LRLIPTPEQA5B2EZI5QSR2HK5FCAK8","35","0","GOGGLES","1","5","1","2069","goggles","1","2018-06-27 22:13:25","314056"
"A3EVXSWHYA1PTT","cs_wg_full_v2_pilot1","37FMASSAYCSJOHT3OG5C9XMDVT8IB0","34","0","PEANUT","13","11","0","2659","peanut","13","2018-06-27 22:13:30","314057"
"A39YBLQYIUBR76","cs_wg_full_v2_pilot1","3LEP4MGT3G12G6DHW241I0603O0BDR","23","0","BAGPIPE","10","11","0","2558","bagpipe ","10","2018-06-27 22:13:30","314058"
"A299DY7LIIERYM","cs_wg_full_v2_pilot1","3DHE4R9OCWCB4DNCFZCYNS6TMA3G24","27","0","PICTURE","3","5","1","6706","picture","3","2018-06-27 22:13:31","314059"
"AYYEQBUPC7IM5","cs_wg_full_v2_pilot1","3TK8OJTYM1MQEHED6SMWJ6HWKZJPVP","30","0","SUNBURN","13","11","1","4411","sunburn","13","2018-06-27 22:13:31","314060"
"ALQPGVQZEZSUE","cs_wg_full_v2_pilot1","378XPAWRUCEE57OBI25GEM27DBNIA5","42","0","SMOKER","9","11","1","2696","SMOKER","9","2018-06-27 22:13:32","314061"
"A2BC4S4LVBQ3OV","cs_wg_full_v2_pilot1","37XITHEISWAFRLOSS3VGY9TM0ARCR5","29","0","THRONE","10","11","0","2730","throne","10","2018-06-27 22:13:33","314062"
"A1RQQFUQ2GU9IZ","cs_wg_full_v2_pilot1","3LRLIPTPEQA5B2EZI5QSR2HK5FCAK8","36","0","BUDGET","10","5","0","1692","budget","10","2018-06-27 22:13:34","314063"
"A37GOI3N77WX21","cs_wg_full_v2_pilot1","3R2PKQ87NW9F78X0F5VLNDX77SCIMP","39","0","PILLAR","15","11","0","3491","pillar","15","2018-06-27 22:13:39","314064"
"ALQPGVQZEZSUE","cs_wg_full_v2_pilot1","378XPAWRUCEE57OBI25GEM27DBNIA5","43","0","CHURCH","12","11","1","2187","CHURCH","12","2018-06-27 22:13:42","314065"
"A299DY7LIIERYM","cs_wg_full_v2_pilot1","3DHE4R9OCWCB4DNCFZCYNS6TMA3G24","28","0","BUDGET","10","5","0","2186","budget","10","2018-06-27 22:13:42","314066"
"A1RQQFUQ2GU9IZ","cs_wg_full_v2_pilot1","3LRLIPTPEQA5B2EZI5QSR2HK5FCAK8","37","0","GOGGLES","1","5","1","1496","goggles","1","2018-06-27 22:13:42","314067"
"AYYEQBUPC7IM5","cs_wg_full_v2_pilot1","3TK8OJTYM1MQEHED6SMWJ6HWKZJPVP","31","0","PILLAR","15","11","1","1567","pillar","15","2018-06-27 22:13:43","314068"
"A39YBLQYIUBR76","cs_wg_full_v2_pilot1","3LEP4MGT3G12G6DHW241I0603O0BDR","24","0","ABDOMEN","13","11","1","4335","abdomen","13","2018-06-27 22:13:44","314069"
"A3EVXSWHYA1PTT","cs_wg_full_v2_pilot1","37FMASSAYCSJOHT3OG5C9XMDVT8IB0","35","0","SUMMER","13","11","0","2613","summer","13","2018-06-27 22:13:44","314070"
"A2BC4S4LVBQ3OV","cs_wg_full_v2_pilot1","37XITHEISWAFRLOSS3VGY9TM0ARCR5","30","0","THRONE","10","11","1","1926","throne","10","2018-06-27 22:13:46","314071"
"A3BEBDHWSLH1BQ","cs_wg_full_v2_pilot1","3I7DHKZYGN1XPAA4MY8E3E9T55U5FV","29","0","SMOKER","9","11","1","22491","SMOKER","11","2018-06-27 22:13:48","314072"
"A299DY7LIIERYM","cs_wg_full_v2_pilot1","3DHE4R9OCWCB4DNCFZCYNS6TMA3G24","29","0","PEACOCK","6","5","0","1466","peacock","6","2018-06-27 22:13:51","314073"
"A1RQQFUQ2GU9IZ","cs_wg_full_v2_pilot1","3LRLIPTPEQA5B2EZI5QSR2HK5FCAK8","38","0","KIDNEY","3","5","0","2593","kidney","3","2018-06-27 22:13:52","314074"
"ALQPGVQZEZSUE","cs_wg_full_v2_pilot1","378XPAWRUCEE57OBI25GEM27DBNIA5","44","0","SMOKER","9","11","1","4090","SMOKER","9","2018-06-27 22:13:55","314075"
"AYYEQBUPC7IM5","cs_wg_full_v2_pilot1","3TK8OJTYM1MQEHED6SMWJ6HWKZJPVP","32","0","PILLAR","15","11","0","2599","pillar","15","2018-06-27 22:13:55","314076"
"A3EVXSWHYA1PTT","cs_wg_full_v2_pilot1","37FMASSAYCSJOHT3OG5C9XMDVT8IB0","36","0","ALMOND","10","11","1","4011","almond","10","2018-06-27 22:13:56","314077"
"A2BC4S4LVBQ3OV","cs_wg_full_v2_pilot1","37XITHEISWAFRLOSS3VGY9TM0ARCR5","31","0","THRONE","10","11","1","1849","throne","10","2018-06-27 22:13:59","314078"
"A39YBLQYIUBR76","cs_wg_full_v2_pilot1","3LEP4MGT3G12G6DHW241I0603O0BDR","25","0","SPATULA","13","11","0","3054","spatula","13","2018-06-27 22:13:59","314079"
"A299DY7LIIERYM","cs_wg_full_v2_pilot1","3DHE4R9OCWCB4DNCFZCYNS6TMA3G24","30","0","BIKINI","6","5","0","1540","bikini","6","2018-06-27 22:14:01","314080"
"A1RQQFUQ2GU9IZ","cs_wg_full_v2_pilot1","3LRLIPTPEQA5B2EZI5QSR2HK5FCAK8","39","0","GOGGLES","1","5","1","1732","goggles","1","2018-06-27 22:14:02","314081"
"A3EVXSWHYA1PTT","cs_wg_full_v2_pilot1","37FMASSAYCSJOHT3OG5C9XMDVT8IB0","37","0","JAVELIN","15","11","0","1531","javelin","15","2018-06-27 22:14:05","314082"
"AYYEQBUPC7IM5","cs_wg_full_v2_pilot1","3TK8OJTYM1MQEHED6SMWJ6HWKZJPVP","33","0","TENNIS","13","11","1","1611","tennis","13","2018-06-27 22:14:05","314083"
"ALQPGVQZEZSUE","cs_wg_full_v2_pilot1","378XPAWRUCEE57OBI25GEM27DBNIA5","45","0","BEAVER","15","11","0","2542","BEAVER","15","2018-06-27 22:14:06","314084"
"A1RQQFUQ2GU9IZ","cs_wg_full_v2_pilot1","3LRLIPTPEQA5B2EZI5QSR2HK5FCAK8","40","0","KIDNEY","3","5","1","1259","kidney","3","2018-06-27 22:14:10","314085"
"A299DY7LIIERYM","cs_wg_full_v2_pilot1","3DHE4R9OCWCB4DNCFZCYNS6TMA3G24","31","0","BEAVER","1","5","1","1692","beaver","1","2018-06-27 22:14:11","314086"
"A3BEBDHWSLH1BQ","cs_wg_full_v2_pilot1","3I7DHKZYGN1XPAA4MY8E3E9T55U5FV","30","0","FLIGHT","6","11","1","10192","FLIGHT","11","2018-06-27 22:14:12","314087"
"A37GOI3N77WX21","cs_wg_full_v2_pilot1","3R2PKQ87NW9F78X0F5VLNDX77SCIMP","41","0","KIDNEY","13","11","0","2144","kidney","13","2018-06-27 22:14:12","314088"
"A39YBLQYIUBR76","cs_wg_full_v2_pilot1","3LEP4MGT3G12G6DHW241I0603O0BDR","26","0","CHICKEN","9","11","0","2715","chicken","9","2018-06-27 22:14:14","314089"
"A3EVXSWHYA1PTT","cs_wg_full_v2_pilot1","37FMASSAYCSJOHT3OG5C9XMDVT8IB0","38","0","CASINO","10","11","1","2373","casino","10","2018-06-27 22:14:17","314090"
"A2BC4S4LVBQ3OV","cs_wg_full_v2_pilot1","37XITHEISWAFRLOSS3VGY9TM0ARCR5","32","0","PICTURE","13","11","0","7475","picture","13","2018-06-27 22:14:18","314091"
"AYYEQBUPC7IM5","cs_wg_full_v2_pilot1","3TK8OJTYM1MQEHED6SMWJ6HWKZJPVP","34","0","FACTORY","10","11","1","1581","factory","10","2018-06-27 22:14:19","314092"
"ALQPGVQZEZSUE","cs_wg_full_v2_pilot1","378XPAWRUCEE57OBI25GEM27DBNIA5","46","0","BAGPIPE","10","11","1","4496","BAGPIPE","10","2018-06-27 22:14:20","314093"
"A1RQQFUQ2GU9IZ","cs_wg_full_v2_pilot1","3LRLIPTPEQA5B2EZI5QSR2HK5FCAK8","41","0","FIREMAN","3","5","1","3028","fireman","3","2018-06-27 22:14:21","314094"
"A39YBLQYIUBR76","cs_wg_full_v2_pilot1","3LEP4MGT3G12G6DHW241I0603O0BDR","27","0","BAGPIPE","10","11","0","3270","bagpipe ","10","2018-06-27 22:14:26","314095"
"A299DY7LIIERYM","cs_wg_full_v2_pilot1","3DHE4R9OCWCB4DNCFZCYNS6TMA3G24","32","0","CABINET","3","5","1","7190","cabinet","3","2018-06-27 22:14:26","314096"
"A3EVXSWHYA1PTT","cs_wg_full_v2_pilot1","37FMASSAYCSJOHT3OG5C9XMDVT8IB0","39","0","JAVELIN","15","11","0","1882","javelin","15","2018-06-27 22:14:28","314097"
"A3BEBDHWSLH1BQ","cs_wg_full_v2_pilot1","3I7DHKZYGN1XPAA4MY8E3E9T55U5FV","31","0","SMOKER","9","11","1","2049","SMOKER","11","2018-06-27 22:14:28","314098"
"A37GOI3N77WX21","cs_wg_full_v2_pilot1","3R2PKQ87NW9F78X0F5VLNDX77SCIMP","42","0","BUDGET","6","11","1","3584","budget","6","2018-06-27 22:14:29","314099"
"A1RQQFUQ2GU9IZ","cs_wg_full_v2_pilot1","3LRLIPTPEQA5B2EZI5QSR2HK5FCAK8","42","0","BUDGET","10","5","0","3518","budget","10","2018-06-27 22:14:31","314100"
"ALQPGVQZEZSUE","cs_wg_full_v2_pilot1","378XPAWRUCEE57OBI25GEM27DBNIA5","47","0","GOGGLES","15","11","0","2661","GOGGLES","15","2018-06-27 22:14:31","314101"
"AYYEQBUPC7IM5","cs_wg_full_v2_pilot1","3TK8OJTYM1MQEHED6SMWJ6HWKZJPVP","35","0","TONGUE","6","11","1","2378","tongue","6","2018-06-27 22:14:32","314102"
"A2BC4S4LVBQ3OV","cs_wg_full_v2_pilot1","37XITHEISWAFRLOSS3VGY9TM0ARCR5","33","0","TRAFFIC","1","11","1","1992","traffic","1","2018-06-27 22:14:32","314103"
"A299DY7LIIERYM","cs_wg_full_v2_pilot1","3DHE4R9OCWCB4DNCFZCYNS6TMA3G24","33","0","PEACOCK","6","5","0","1282","peacock","6","2018-06-27 22:14:35","314104"
"A39YBLQYIUBR76","cs_wg_full_v2_pilot1","3LEP4MGT3G12G6DHW241I0603O0BDR","28","0","FLIGHT","6","11","1","2228","flight","6","2018-06-27 22:14:38","314105"
"A1RQQFUQ2GU9IZ","cs_wg_full_v2_pilot1","3LRLIPTPEQA5B2EZI5QSR2HK5FCAK8","43","0","BATTERY","14","5","0","2540","battery","14","2018-06-27 22:14:40","314106"
"ALQPGVQZEZSUE","cs_wg_full_v2_pilot1","378XPAWRUCEE57OBI25GEM27DBNIA5","48","0","BAGPIPE","10","11","1","2815","BAGPIPE","10","2018-06-27 22:14:42","314107"
"AW2IJYOPX2MSE","cs_wg_full_v2_pilot1","3TDXMTX3CBVDI5C8SPO4YH0LHSXI6F","0","0","GIRAFFE","1","11","1","9219","giraffe","1","2018-06-27 22:14:43","314108"
"A3EVXSWHYA1PTT","cs_wg_full_v2_pilot1","37FMASSAYCSJOHT3OG5C9XMDVT8IB0","40","0","BEGGAR","6","11","1","5965","beggar","6","2018-06-27 22:14:43","314109"
"AYYEQBUPC7IM5","cs_wg_full_v2_pilot1","3TK8OJTYM1MQEHED6SMWJ6HWKZJPVP","36","0","TONGUE","6","11","1","1844","tongue","6","2018-06-27 22:14:44","314110"
"A2BC4S4LVBQ3OV","cs_wg_full_v2_pilot1","37XITHEISWAFRLOSS3VGY9TM0ARCR5","34","0","CASINO","10","11","1","2773","casino","10","2018-06-27 22:14:46","314111"
"A299DY7LIIERYM","cs_wg_full_v2_pilot1","3DHE4R9OCWCB4DNCFZCYNS6TMA3G24","34","0","PEACOCK","6","5","0","1659","peacock","6","2018-06-27 22:14:46","314112"
"A37GOI3N77WX21","cs_wg_full_v2_pilot1","3R2PKQ87NW9F78X0F5VLNDX77SCIMP","43","0","PEACOCK","10","11","1","2905","peacock","10","2018-06-27 22:14:47","314113"
"A37GOI3N77WX21","cs_wg_full_v2_pilot1","3R2PKQ87NW9F78X0F5VLNDX77SCIMP","44","0","SUMMER","13","11","0","1843","summer","13","2018-06-27 22:14:48","314114"
"A3BEBDHWSLH1BQ","cs_wg_full_v2_pilot1","3I7DHKZYGN1XPAA4MY8E3E9T55U5FV","32","0","CANVAS","15","11","1","2464","
CANVAS","11","2018-06-27 22:14:49","314115"
"A1RQQFUQ2GU9IZ","cs_wg_full_v2_pilot1","3LRLIPTPEQA5B2EZI5QSR2HK5FCAK8","44","0","FIREMAN","3","5","1","1268","fireman","3","2018-06-27 22:14:50","314116"
"ALQPGVQZEZSUE","cs_wg_full_v2_pilot1","378XPAWRUCEE57OBI25GEM27DBNIA5","49","0","CAMERA","2","11","1","1858","CAMERA","2","2018-06-27 22:14:51","314117"
"A39YBLQYIUBR76","cs_wg_full_v2_pilot1","3LEP4MGT3G12G6DHW241I0603O0BDR","29","0","ABDOMEN","13","11","1","4102","abdomen","13","2018-06-27 22:14:55","314118"
"A3EVXSWHYA1PTT","cs_wg_full_v2_pilot1","37FMASSAYCSJOHT3OG5C9XMDVT8IB0","41","0","SILVER","15","11","0","2736","silver","15","2018-06-27 22:14:55","314119"
"AYYEQBUPC7IM5","cs_wg_full_v2_pilot1","3TK8OJTYM1MQEHED6SMWJ6HWKZJPVP","37","0","CHURCH","12","11","0","5566","church","12","2018-06-27 22:14:58","314120"
"A1RQQFUQ2GU9IZ","cs_wg_full_v2_pilot1","3LRLIPTPEQA5B2EZI5QSR2HK5FCAK8","45","0","GOGGLES","1","5","1","1366","goggles","1","2018-06-27 22:14:59","314121"
"A2BC4S4LVBQ3OV","cs_wg_full_v2_pilot1","37XITHEISWAFRLOSS3VGY9TM0ARCR5","35","0","FRIEND","2","11","1","2058","friend","2","2018-06-27 22:14:59","314122"
"A299DY7LIIERYM","cs_wg_full_v2_pilot1","3DHE4R9OCWCB4DNCFZCYNS6TMA3G24","35","0","CHICKEN","7","5","0","1944","chicken","7","2018-06-27 22:14:59","314123"
"A37GOI3N77WX21","cs_wg_full_v2_pilot1","3R2PKQ87NW9F78X0F5VLNDX77SCIMP","45","0","BUDGET","6","11","1","1824","budget","6","2018-06-27 22:15:02","314124"
"ALQPGVQZEZSUE","cs_wg_full_v2_pilot1","378XPAWRUCEE57OBI25GEM27DBNIA5","50","0","BEAVER","15","11","0","2121","BEAVER","15","2018-06-27 22:15:02","314125"
"AW2IJYOPX2MSE","cs_wg_full_v2_pilot1","3TDXMTX3CBVDI5C8SPO4YH0LHSXI6F","1","0","GIRAFFE","1","11","1","3722","giraffe","1","2018-06-27 22:15:03","314126"
"A1RQQFUQ2GU9IZ","cs_wg_full_v2_pilot1","3LRLIPTPEQA5B2EZI5QSR2HK5FCAK8","46","0","GOGGLES","1","5","1","1296","goggles","1","2018-06-27 22:15:07","314127"
"A3BEBDHWSLH1BQ","cs_wg_full_v2_pilot1","3I7DHKZYGN1XPAA4MY8E3E9T55U5FV","33","0","PICTURE","13","11","1","2146","PICTURE","11","2018-06-27 22:15:08","314128"
"A3EVXSWHYA1PTT","cs_wg_full_v2_pilot1","37FMASSAYCSJOHT3OG5C9XMDVT8IB0","42","0","PENGUIN","13","11","0","4131","penguin","13","2018-06-27 22:15:08","314129"
"A39YBLQYIUBR76","cs_wg_full_v2_pilot1","3LEP4MGT3G12G6DHW241I0603O0BDR","30","0","BAGPIPE","10","11","1","2821","bagpipe","10","2018-06-27 22:15:09","314130"
"ALQPGVQZEZSUE","cs_wg_full_v2_pilot1","378XPAWRUCEE57OBI25GEM27DBNIA5","51","0","BEAVER","15","11","0","1446","BEAVER","15","2018-06-27 22:15:12","314131"
"A299DY7LIIERYM","cs_wg_full_v2_pilot1","3DHE4R9OCWCB4DNCFZCYNS6TMA3G24","36","0","FIREFLY","15","5","0","1791","firefly","15","2018-06-27 22:15:12","314132"
"AYYEQBUPC7IM5","cs_wg_full_v2_pilot1","3TK8OJTYM1MQEHED6SMWJ6HWKZJPVP","38","0","SUNBURN","13","11","0","4029","sunburn","13","2018-06-27 22:15:12","314133"
"A2BC4S4LVBQ3OV","cs_wg_full_v2_pilot1","37XITHEISWAFRLOSS3VGY9TM0ARCR5","36","0","HERMIT","13","11","0","2913","hermit","13","2018-06-27 22:15:14","314134"
"A37GOI3N77WX21","cs_wg_full_v2_pilot1","3R2PKQ87NW9F78X0F5VLNDX77SCIMP","46","0","FORGERY","2","11","1","1815","forgery","2","2018-06-27 22:15:14","314135"
"A1RQQFUQ2GU9IZ","cs_wg_full_v2_pilot1","3LRLIPTPEQA5B2EZI5QSR2HK5FCAK8","47","0","BAGPIPE","6","5","0","2557","bagpipe","6","2018-06-27 22:15:18","314136"
"A3EVXSWHYA1PTT","cs_wg_full_v2_pilot1","37FMASSAYCSJOHT3OG5C9XMDVT8IB0","43","0","SUMMER","13","11","0","2588","summer","13","2018-06-27 22:15:18","314137"
"AW2IJYOPX2MSE","cs_wg_full_v2_pilot1","3TDXMTX3CBVDI5C8SPO4YH0LHSXI6F","2","0","GIRAFFE","1","11","0","5038","giraffe","1","2018-06-27 22:15:19","314138"
"A39YBLQYIUBR76","cs_wg_full_v2_pilot1","3LEP4MGT3G12G6DHW241I0603O0BDR","31","0","COFFIN","1","11","1","2982","coffin","1","2018-06-27 22:15:21","314139"
"ALQPGVQZEZSUE","cs_wg_full_v2_pilot1","378XPAWRUCEE57OBI25GEM27DBNIA5","52","0","GOGGLES","15","11","0","1362","GOOGLES","15","2018-06-27 22:15:22","314140"
"A299DY7LIIERYM","cs_wg_full_v2_pilot1","3DHE4R9OCWCB4DNCFZCYNS6TMA3G24","37","0","CABINET","3","5","1","2498","cabinet","3","2018-06-27 22:15:23","314141"
"AYYEQBUPC7IM5","cs_wg_full_v2_pilot1","3TK8OJTYM1MQEHED6SMWJ6HWKZJPVP","39","0","TONGUE","6","11","1","1742","tongue","6","2018-06-27 22:15:23","314142"
"A37GOI3N77WX21","cs_wg_full_v2_pilot1","3R2PKQ87NW9F78X0F5VLNDX77SCIMP","47","0","TRAFFIC","1","11","1","2995","traffic","1","2018-06-27 22:15:25","314143"
"A1RQQFUQ2GU9IZ","cs_wg_full_v2_pilot1","3LRLIPTPEQA5B2EZI5QSR2HK5FCAK8","48","0","SILVER","1","5","1","1530","silver","1","2018-06-27 22:15:26","314144"
"A3BEBDHWSLH1BQ","cs_wg_full_v2_pilot1","3I7DHKZYGN1XPAA4MY8E3E9T55U5FV","34","0","CANVAS","15","11","1","3556","CANVAS","11","2018-06-27 22:15:28","314145"
"A3EVXSWHYA1PTT","cs_wg_full_v2_pilot1","37FMASSAYCSJOHT3OG5C9XMDVT8IB0","44","0","SILVER","15","11","0","1356","silver","15","2018-06-27 22:15:29","314146"
"A2BC4S4LVBQ3OV","cs_wg_full_v2_pilot1","37XITHEISWAFRLOSS3VGY9TM0ARCR5","37","0","TRIVIA","15","11","0","2614","trivia","15","2018-06-27 22:15:29","314147"
"ALQPGVQZEZSUE","cs_wg_full_v2_pilot1","378XPAWRUCEE57OBI25GEM27DBNIA5","53","0","CAMERA","2","11","1","1748","CAMERA","2","2018-06-27 22:15:31","314148"
"A39YBLQYIUBR76","cs_wg_full_v2_pilot1","3LEP4MGT3G12G6DHW241I0603O0BDR","32","0","ABDOMEN","13","11","0","2260","abdomen","13","2018-06-27 22:15:33","314149"
"A1RQQFUQ2GU9IZ","cs_wg_full_v2_pilot1","3LRLIPTPEQA5B2EZI5QSR2HK5FCAK8","49","0","GOGGLES","1","5","1","1271","goggles","1","2018-06-27 22:15:34","314150"
"AW2IJYOPX2MSE","cs_wg_full_v2_pilot1","3TDXMTX3CBVDI5C8SPO4YH0LHSXI6F","3","0","KIDNEY","13","11","0","2807","kidney","13","2018-06-27 22:15:34","314151"
"AYYEQBUPC7IM5","cs_wg_full_v2_pilot1","3TK8OJTYM1MQEHED6SMWJ6HWKZJPVP","40","0","SUNBURN","13","11","0","1848","sunburn","13","2018-06-27 22:15:36","314152"
"A3EVXSWHYA1PTT","cs_wg_full_v2_pilot1","37FMASSAYCSJOHT3OG5C9XMDVT8IB0","45","0","SUMMER","13","11","0","1317","summer","13","2018-06-27 22:15:39","314153"
"ALQPGVQZEZSUE","cs_wg_full_v2_pilot1","378XPAWRUCEE57OBI25GEM27DBNIA5","54","0","BEAVER","15","11","0","1589","BEAVER","15","2018-06-27 22:15:42","314154"
"A1RQQFUQ2GU9IZ","cs_wg_full_v2_pilot1","3LRLIPTPEQA5B2EZI5QSR2HK5FCAK8","50","0","FIREMAN","3","5","1","1116","fireman","3","2018-06-27 22:15:43","314155"
"A2BC4S4LVBQ3OV","cs_wg_full_v2_pilot1","37XITHEISWAFRLOSS3VGY9TM0ARCR5","38","0","HERMIT","13","11","0","2986","hermit","13","2018-06-27 22:15:44","314156"
"A39YBLQYIUBR76","cs_wg_full_v2_pilot1","3LEP4MGT3G12G6DHW241I0603O0BDR","33","0","CHICKEN","9","11","1","3367","chicken","9","2018-06-27 22:15:46","314157"
"AW2IJYOPX2MSE","cs_wg_full_v2_pilot1","3TDXMTX3CBVDI5C8SPO4YH0LHSXI6F","4","0","BAGPIPE","10","11","1","2549","bagpipe","10","2018-06-27 22:15:46","314158"
"AYYEQBUPC7IM5","cs_wg_full_v2_pilot1","3TK8OJTYM1MQEHED6SMWJ6HWKZJPVP","41","0","BATTERY","2","11","0","4072","battery","2","2018-06-27 22:15:49","314159"
"A3BEBDHWSLH1BQ","cs_wg_full_v2_pilot1","3I7DHKZYGN1XPAA4MY8E3E9T55U5FV","35","0","PEACOCK","10","11","1","1843","PEACOCK","11","2018-06-27 22:15:50","314160"
"ALQPGVQZEZSUE","cs_wg_full_v2_pilot1","378XPAWRUCEE57OBI25GEM27DBNIA5","55","0","BANQUET","13","11","1","2229","BANQUET","13","2018-06-27 22:15:52","314161"
"A1RQQFUQ2GU9IZ","cs_wg_full_v2_pilot1","3LRLIPTPEQA5B2EZI5QSR2HK5FCAK8","51","0","KIDNEY","3","5","1","3783","kidney","3","2018-06-27 22:15:53","314162"
"A39YBLQYIUBR76","cs_wg_full_v2_pilot1","3LEP4MGT3G12G6DHW241I0603O0BDR","34","0","FLIGHT","6","11","1","2782","flight","6","2018-06-27 22:15:58","314163"
"AW2IJYOPX2MSE","cs_wg_full_v2_pilot1","3TDXMTX3CBVDI5C8SPO4YH0LHSXI6F","5","0","FRIEND","2","11","0","3446","friend","2","2018-06-27 22:15:59","314164"
"A1RQQFUQ2GU9IZ","cs_wg_full_v2_pilot1","3LRLIPTPEQA5B2EZI5QSR2HK5FCAK8","52","0","BABOON","6","5","0","1411","baboon","6","2018-06-27 22:16:02","314165"
"AYYEQBUPC7IM5","cs_wg_full_v2_pilot1","3TK8OJTYM1MQEHED6SMWJ6HWKZJPVP","42","0","FACTORY","10","11","1","4303","factory","10","2018-06-27 22:16:04","314166"
"ALQPGVQZEZSUE","cs_wg_full_v2_pilot1","378XPAWRUCEE57OBI25GEM27DBNIA5","56","0","CHURCH","12","11","1","2053","CHURCH","12","2018-06-27 22:16:04","314167"
"A299DY7LIIERYM","cs_wg_full_v2_pilot1","3DHE4R9OCWCB4DNCFZCYNS6TMA3G24","38","0","CABINET","3","5","1","2059","cabinet","3","2018-06-27 22:16:07","314168"
"A3EVXSWHYA1PTT","cs_wg_full_v2_pilot1","37FMASSAYCSJOHT3OG5C9XMDVT8IB0","46","0","PARENT","2","11","1","1810","parent","2","2018-06-27 22:16:10","314169"
"A1RQQFUQ2GU9IZ","cs_wg_full_v2_pilot1","3LRLIPTPEQA5B2EZI5QSR2HK5FCAK8","53","0","KIDNEY","3","5","1","2228","kidney","3","2018-06-27 22:16:10","314170"
"AW2IJYOPX2MSE","cs_wg_full_v2_pilot1","3TDXMTX3CBVDI5C8SPO4YH0LHSXI6F","6","0","CANVAS","15","11","0","1646","canvas","15","2018-06-27 22:16:10","314171"
"A39YBLQYIUBR76","cs_wg_full_v2_pilot1","3LEP4MGT3G12G6DHW241I0603O0BDR","35","0","CHIMNEY","13","11","0","2838","chimney","13","2018-06-27 22:16:11","314172"
"ALQPGVQZEZSUE","cs_wg_full_v2_pilot1","378XPAWRUCEE57OBI25GEM27DBNIA5","57","0","WAFFLE","1","11","1","1659","WAFFLE","1","2018-06-27 22:16:14","314173"
"AYYEQBUPC7IM5","cs_wg_full_v2_pilot1","3TK8OJTYM1MQEHED6SMWJ6HWKZJPVP","43","0","CHURCH","12","11","1","3325","church","12","2018-06-27 22:16:16","314174"
"A1RQQFUQ2GU9IZ","cs_wg_full_v2_pilot1","3LRLIPTPEQA5B2EZI5QSR2HK5FCAK8","54","0","LIQUID","3","5","1","1277","liquid","3","2018-06-27 22:16:17","314175"
"A299DY7LIIERYM","cs_wg_full_v2_pilot1","3DHE4R9OCWCB4DNCFZCYNS6TMA3G24","39","0","CHICKEN","7","5","0","1880","chicken","7","2018-06-27 22:16:18","314176"
"A3EVXSWHYA1PTT","cs_wg_full_v2_pilot1","37FMASSAYCSJOHT3OG5C9XMDVT8IB0","47","0","PENGUIN","13","11","0","2975","penguin","13","2018-06-27 22:16:22","314177"
"ALQPGVQZEZSUE","cs_wg_full_v2_pilot1","378XPAWRUCEE57OBI25GEM27DBNIA5","58","0","FIREMAN","13","11","1","1636","FIREMAN","13","2018-06-27 22:16:24","314178"
"A39YBLQYIUBR76","cs_wg_full_v2_pilot1","3LEP4MGT3G12G6DHW241I0603O0BDR","36","0","SPATULA","13","11","0","3182","spatula","13","2018-06-27 22:16:24","314179"
"AW2IJYOPX2MSE","cs_wg_full_v2_pilot1","3TDXMTX3CBVDI5C8SPO4YH0LHSXI6F","7","0","CHURCH","12","11","1","2919","church","12","2018-06-27 22:16:26","314180"
"A299DY7LIIERYM","cs_wg_full_v2_pilot1","3DHE4R9OCWCB4DNCFZCYNS6TMA3G24","40","0","CABINET","3","5","1","1545","cabinet","3","2018-06-27 22:16:28","314181"
"A1RQQFUQ2GU9IZ","cs_wg_full_v2_pilot1","3LRLIPTPEQA5B2EZI5QSR2HK5FCAK8","55","0","COFFIN","15","5","0","2006","coffin","15","2018-06-27 22:16:30","314182"
"A2BC4S4LVBQ3OV","cs_wg_full_v2_pilot1","37XITHEISWAFRLOSS3VGY9TM0ARCR5","39","0","CASINO","10","11","1","2389","casino","10","2018-06-27 22:16:30","314183"
"AYYEQBUPC7IM5","cs_wg_full_v2_pilot1","3TK8OJTYM1MQEHED6SMWJ6HWKZJPVP","44","0","SHIVER","15","11","1","1784","shiver","15","2018-06-27 22:16:31","314184"
"A3EVXSWHYA1PTT","cs_wg_full_v2_pilot1","37FMASSAYCSJOHT3OG5C9XMDVT8IB0","48","0","SILVER","15","11","0","1486","silver","15","2018-06-27 22:16:33","314185"
"A39YBLQYIUBR76","cs_wg_full_v2_pilot1","3LEP4MGT3G12G6DHW241I0603O0BDR","37","0","ABDOMEN","13","11","0","1934","abdomen","13","2018-06-27 22:16:36","314186"
"ALQPGVQZEZSUE","cs_wg_full_v2_pilot1","378XPAWRUCEE57OBI25GEM27DBNIA5","59","0","CHURCH","12","11","0","3450","CHURCH","12","2018-06-27 22:16:37","314187"
"A299DY7LIIERYM","cs_wg_full_v2_pilot1","3DHE4R9OCWCB4DNCFZCYNS6TMA3G24","41","0","CHICKEN","7","5","0","1759","chicken","7","2018-06-27 22:16:38","314188"
"A1RQQFUQ2GU9IZ","cs_wg_full_v2_pilot1","3LRLIPTPEQA5B2EZI5QSR2HK5FCAK8","56","0","BUDGET","10","5","0","2603","budget","10","2018-06-27 22:16:41","314189"
"AW2IJYOPX2MSE","cs_wg_full_v2_pilot1","3TDXMTX3CBVDI5C8SPO4YH0LHSXI6F","8","0","GIRAFFE","1","11","1","4284","giraffe","1","2018-06-27 22:16:41","314190"
"AYYEQBUPC7IM5","cs_wg_full_v2_pilot1","3TK8OJTYM1MQEHED6SMWJ6HWKZJPVP","45","0","CHURCH","12","11","0","3322","church","12","2018-06-27 22:16:42","314191"
"A3EVXSWHYA1PTT","cs_wg_full_v2_pilot1","37FMASSAYCSJOHT3OG5C9XMDVT8IB0","49","0","SUMMER","13","11","0","4339","summer","13","2018-06-27 22:16:47","314192"
"A299DY7LIIERYM","cs_wg_full_v2_pilot1","3DHE4R9OCWCB4DNCFZCYNS6TMA3G24","42","0","DEMON","3","5","1","1661","demon","3","2018-06-27 22:16:48","314193"
"A39YBLQYIUBR76","cs_wg_full_v2_pilot1","3LEP4MGT3G12G6DHW241I0603O0BDR","38","0","JAVELIN","15","11","1","2414","javelin","15","2018-06-27 22:16:48","314194"
"ALQPGVQZEZSUE","cs_wg_full_v2_pilot1","378XPAWRUCEE57OBI25GEM27DBNIA5","60","0","PEANUT","13","11","1","2309","PEANUT","13","2018-06-27 22:16:48","314195"
"A1RQQFUQ2GU9IZ","cs_wg_full_v2_pilot1","3LRLIPTPEQA5B2EZI5QSR2HK5FCAK8","57","0","PUMPKIN","7","5","0","993","pumpkin","7","2018-06-27 22:16:48","314196"
"A2BC4S4LVBQ3OV","cs_wg_full_v2_pilot1","37XITHEISWAFRLOSS3VGY9TM0ARCR5","40","0","FRIEND","2","11","1","1984","friend","2","2018-06-27 22:16:49","314197"
"AW2IJYOPX2MSE","cs_wg_full_v2_pilot1","3TDXMTX3CBVDI5C8SPO4YH0LHSXI6F","9","0","ALMOND","10","11","0","1653","almond","10","2018-06-27 22:16:51","314198"
"AYYEQBUPC7IM5","cs_wg_full_v2_pilot1","3TK8OJTYM1MQEHED6SMWJ6HWKZJPVP","46","0","SHIVER","15","11","0","2191","shiver","15","2018-06-27 22:16:54","314199"
"A3EVXSWHYA1PTT","cs_wg_full_v2_pilot1","37FMASSAYCSJOHT3OG5C9XMDVT8IB0","50","0","PARENT","2","11","1","1883","parent","2","2018-06-27 22:16:56","314200"
"A299DY7LIIERYM","cs_wg_full_v2_pilot1","3DHE4R9OCWCB4DNCFZCYNS6TMA3G24","43","0","BIKINI","6","5","0","1204","bikini","6","2018-06-27 22:16:57","314201"
"A1RQQFUQ2GU9IZ","cs_wg_full_v2_pilot1","3LRLIPTPEQA5B2EZI5QSR2HK5FCAK8","58","0","CARROT","4","5","0","2323","carrot","4","2018-06-27 22:16:58","314202"
"ALQPGVQZEZSUE","cs_wg_full_v2_pilot1","378XPAWRUCEE57OBI25GEM27DBNIA5","61","0","CAMERA","2","11","1","1830","CAMERA`","2","2018-06-27 22:16:58","314203"
"A39YBLQYIUBR76","cs_wg_full_v2_pilot1","3LEP4MGT3G12G6DHW241I0603O0BDR","39","0","COFFIN","1","11","1","1861","coffin","1","2018-06-27 22:16:58","314204"
"AW2IJYOPX2MSE","cs_wg_full_v2_pilot1","3TDXMTX3CBVDI5C8SPO4YH0LHSXI6F","10","0","ALMOND","10","11","1","2742","almond","10","2018-06-27 22:17:04","314205"
"AYYEQBUPC7IM5","cs_wg_full_v2_pilot1","3TK8OJTYM1MQEHED6SMWJ6HWKZJPVP","47","0","TONGUE","6","11","1","1879","tongue","6","2018-06-27 22:17:05","314206"
"A1RQQFUQ2GU9IZ","cs_wg_full_v2_pilot1","3LRLIPTPEQA5B2EZI5QSR2HK5FCAK8","59","0","BATTERY","14","5","0","869","battery","14","2018-06-27 22:17:06","314207"
"A299DY7LIIERYM","cs_wg_full_v2_pilot1","3DHE4R9OCWCB4DNCFZCYNS6TMA3G24","44","0","DEMON","3","5","1","1244","demon","3","2018-06-27 22:17:06","314208"
"A3EVXSWHYA1PTT","cs_wg_full_v2_pilot1","37FMASSAYCSJOHT3OG5C9XMDVT8IB0","51","0","ALMOND","10","11","1","3909","almond","10","2018-06-27 22:17:07","314209"
"A2BC4S4LVBQ3OV","cs_wg_full_v2_pilot1","37XITHEISWAFRLOSS3VGY9TM0ARCR5","41","0","CASINO","10","11","1","7209","casino","10","2018-06-27 22:17:07","314210"
"ALQPGVQZEZSUE","cs_wg_full_v2_pilot1","378XPAWRUCEE57OBI25GEM27DBNIA5","62","0","WAFFLE","1","11","1","1489","WAFFLE","1","2018-06-27 22:17:08","314211"
"A39YBLQYIUBR76","cs_wg_full_v2_pilot1","3LEP4MGT3G12G6DHW241I0603O0BDR","40","0","SHIVER","15","11","0","2217","shiver","15","2018-06-27 22:17:12","314212"
"AYYEQBUPC7IM5","cs_wg_full_v2_pilot1","3TK8OJTYM1MQEHED6SMWJ6HWKZJPVP","48","0","SHIVER","15","11","0","1677","shiver","15","2018-06-27 22:17:15","314213"
"A1RQQFUQ2GU9IZ","cs_wg_full_v2_pilot1","3LRLIPTPEQA5B2EZI5QSR2HK5FCAK8","60","0","BAGPIPE","6","5","0","1564","bagpipe","6","2018-06-27 22:17:16","314214"
"ALQPGVQZEZSUE","cs_wg_full_v2_pilot1","378XPAWRUCEE57OBI25GEM27DBNIA5","63","0","BEAVER","15","11","0","1879","BEAVER","15","2018-06-27 22:17:18","314215"
"AW2IJYOPX2MSE","cs_wg_full_v2_pilot1","3TDXMTX3CBVDI5C8SPO4YH0LHSXI6F","11","0","CHURCH","12","11","1","4083","church","12","2018-06-27 22:17:18","314216"
"A299DY7LIIERYM","cs_wg_full_v2_pilot1","3DHE4R9OCWCB4DNCFZCYNS6TMA3G24","45","0","PICTURE","3","5","0","5128","picture","3","2018-06-27 22:17:19","314217"
"A3EVXSWHYA1PTT","cs_wg_full_v2_pilot1","37FMASSAYCSJOHT3OG5C9XMDVT8IB0","52","0","PENGUIN","13","11","0","2954","penguin","13","2018-06-27 22:17:19","314218"
"A1RQQFUQ2GU9IZ","cs_wg_full_v2_pilot1","3LRLIPTPEQA5B2EZI5QSR2HK5FCAK8","61","0","CARROT","4","5","1","1276","carrot","4","2018-06-27 22:17:23","314219"
"A2BC4S4LVBQ3OV","cs_wg_full_v2_pilot1","37XITHEISWAFRLOSS3VGY9TM0ARCR5","42","0","TRAFFIC","1","11","1","3428","traffic","1","2018-06-27 22:17:25","314220"
"A39YBLQYIUBR76","cs_wg_full_v2_pilot1","3LEP4MGT3G12G6DHW241I0603O0BDR","41","0","THRONE","10","11","1","2404","throne","10","2018-06-27 22:17:26","314221"
"AYYEQBUPC7IM5","cs_wg_full_v2_pilot1","3TK8OJTYM1MQEHED6SMWJ6HWKZJPVP","49","0","TENNIS","13","11","1","1749","tennis","13","2018-06-27 22:17:27","314222"
"ALQPGVQZEZSUE","cs_wg_full_v2_pilot1","378XPAWRUCEE57OBI25GEM27DBNIA5","64","0","FIREMAN","13","11","0","2724","FIREMAN","13","2018-06-27 22:17:28","314223"
"A3EVXSWHYA1PTT","cs_wg_full_v2_pilot1","37FMASSAYCSJOHT3OG5C9XMDVT8IB0","53","0","SILVER","15","11","0","1339","silver","15","2018-06-27 22:17:28","314224"
"A299DY7LIIERYM","cs_wg_full_v2_pilot1","3DHE4R9OCWCB4DNCFZCYNS6TMA3G24","46","0","BIKINI","6","5","0","1165","bikini","6","2018-06-27 22:17:28","314225"
"A37GOI3N77WX21","cs_wg_full_v2_pilot1","3R2PKQ87NW9F78X0F5VLNDX77SCIMP","55","0","CHICKEN","9","11","1","27344","chicken","9","2018-06-27 22:17:29","314226"
"AW2IJYOPX2MSE","cs_wg_full_v2_pilot1","3TDXMTX3CBVDI5C8SPO4YH0LHSXI6F","12","0","CANVAS","15","11","0","2634","canvas","15","2018-06-27 22:17:31","314227"
"A1RQQFUQ2GU9IZ","cs_wg_full_v2_pilot1","3LRLIPTPEQA5B2EZI5QSR2HK5FCAK8","62","0","COFFIN","15","5","0","1147","coffin","15","2018-06-27 22:17:31","314228"
"AYYEQBUPC7IM5","cs_wg_full_v2_pilot1","3TK8OJTYM1MQEHED6SMWJ6HWKZJPVP","50","0","BUCKET","9","11","1","1812","bucket","9","2018-06-27 22:17:37","314229"
"A39YBLQYIUBR76","cs_wg_full_v2_pilot1","3LEP4MGT3G12G6DHW241I0603O0BDR","42","0","JAVELIN","15","11","0","1750","javelin","15","2018-06-27 22:17:37","314230"
"ALQPGVQZEZSUE","cs_wg_full_v2_pilot1","378XPAWRUCEE57OBI25GEM27DBNIA5","65","0","SMOKER","9","11","1","2173","SMOKER","9","2018-06-27 22:17:38","314231"
"A1RQQFUQ2GU9IZ","cs_wg_full_v2_pilot1","3LRLIPTPEQA5B2EZI5QSR2HK5FCAK8","63","0","BABOON","6","5","0","731","baboon","6","2018-06-27 22:17:39","314232"
"A3EVXSWHYA1PTT","cs_wg_full_v2_pilot1","37FMASSAYCSJOHT3OG5C9XMDVT8IB0","54","0","SILVER","15","11","0","3698","silver","15","2018-06-27 22:17:39","314233"
"A37GOI3N77WX21","cs_wg_full_v2_pilot1","3R2PKQ87NW9F78X0F5VLNDX77SCIMP","56","0","ADDICT","10","11","1","2314","addict","10","2018-06-27 22:17:39","314234"
"A2BC4S4LVBQ3OV","cs_wg_full_v2_pilot1","37XITHEISWAFRLOSS3VGY9TM0ARCR5","43","0","BASKET","9","11","1","6211","basket","9","2018-06-27 22:17:42","314235"
"AW2IJYOPX2MSE","cs_wg_full_v2_pilot1","3TDXMTX3CBVDI5C8SPO4YH0LHSXI6F","13","0","HERMIT","13","11","0","1926","hermit","13","2018-06-27 22:17:46","314236"
"A1RQQFUQ2GU9IZ","cs_wg_full_v2_pilot1","3LRLIPTPEQA5B2EZI5QSR2HK5FCAK8","64","0","LIQUID","3","5","1","1173","liquid","3","2018-06-27 22:17:47","314237"
"AYYEQBUPC7IM5","cs_wg_full_v2_pilot1","3TK8OJTYM1MQEHED6SMWJ6HWKZJPVP","51","0","TONGUE","6","11","1","2130","tongue","6","2018-06-27 22:17:48","314238"
"ALQPGVQZEZSUE","cs_wg_full_v2_pilot1","378XPAWRUCEE57OBI25GEM27DBNIA5","66","0","WAFFLE","1","11","1","1401","WAFFLE","1","2018-06-27 22:17:48","314239"
"A39YBLQYIUBR76","cs_wg_full_v2_pilot1","3LEP4MGT3G12G6DHW241I0603O0BDR","43","0","JAVELIN","15","11","0","1692","javelin","15","2018-06-27 22:17:49","314240"
"A3EVXSWHYA1PTT","cs_wg_full_v2_pilot1","37FMASSAYCSJOHT3OG5C9XMDVT8IB0","55","0","CHURCH","12","11","0","2304","church","12","2018-06-27 22:17:50","314241"
"A37GOI3N77WX21","cs_wg_full_v2_pilot1","3R2PKQ87NW9F78X0F5VLNDX77SCIMP","57","0","KIDNEY","13","11","0","3635","kidney","13","2018-06-27 22:17:51","314242"
"A3BEBDHWSLH1BQ","cs_wg_full_v2_pilot1","3I7DHKZYGN1XPAA4MY8E3E9T55U5FV","36","0","PEACOCK","10","11","1","107642","PEACOCK","11","2018-06-27 22:17:53","314243"
"A299DY7LIIERYM","cs_wg_full_v2_pilot1","3DHE4R9OCWCB4DNCFZCYNS6TMA3G24","47","0","FIREFLY","15","5","0","10148","firefly","15","2018-06-27 22:17:55","314244"
"A1RQQFUQ2GU9IZ","cs_wg_full_v2_pilot1","3LRLIPTPEQA5B2EZI5QSR2HK5FCAK8","65","0","KIDNEY","3","5","1","4380","kidney","3","2018-06-27 22:17:57","314245"
"ALQPGVQZEZSUE","cs_wg_full_v2_pilot1","378XPAWRUCEE57OBI25GEM27DBNIA5","67","0","SMOKER","9","11","1","2236","SMOKER","9","2018-06-27 22:17:57","314246"
"A3EVXSWHYA1PTT","cs_wg_full_v2_pilot1","37FMASSAYCSJOHT3OG5C9XMDVT8IB0","56","0","SILVER","15","11","0","875","silver","15","2018-06-27 22:17:58","314247"
"A2BC4S4LVBQ3OV","cs_wg_full_v2_pilot1","37XITHEISWAFRLOSS3VGY9TM0ARCR5","44","0","JUNGLE","6","11","1","4920","jungle","6","2018-06-27 22:17:58","314248"
"AYYEQBUPC7IM5","cs_wg_full_v2_pilot1","3TK8OJTYM1MQEHED6SMWJ6HWKZJPVP","52","0","FACTORY","10","11","1","1799","factory","10","2018-06-27 22:17:59","314249"
"A39YBLQYIUBR76","cs_wg_full_v2_pilot1","3LEP4MGT3G12G6DHW241I0603O0BDR","44","0","COFFIN","1","11","1","2015","coffin","1","2018-06-27 22:17:59","314250"
"AW2IJYOPX2MSE","cs_wg_full_v2_pilot1","3TDXMTX3CBVDI5C8SPO4YH0LHSXI6F","14","0","COSTUME","13","11","1","3688","costume","13","2018-06-27 22:18:02","314251"
"A37GOI3N77WX21","cs_wg_full_v2_pilot1","3R2PKQ87NW9F78X0F5VLNDX77SCIMP","58","0","KIDNEY","13","11","0","1560","kidney","13","2018-06-27 22:18:02","314252"
"A1RQQFUQ2GU9IZ","cs_wg_full_v2_pilot1","3LRLIPTPEQA5B2EZI5QSR2HK5FCAK8","66","0","COFFIN","15","5","0","946","coffin","15","2018-06-27 22:18:04","314253"
"ALQPGVQZEZSUE","cs_wg_full_v2_pilot1","378XPAWRUCEE57OBI25GEM27DBNIA5","68","0","BANQUET","13","11","0","1771","BANQUET","13","2018-06-27 22:18:07","314254"
"A3EVXSWHYA1PTT","cs_wg_full_v2_pilot1","37FMASSAYCSJOHT3OG5C9XMDVT8IB0","57","0","PEANUT","13","11","1","2141","peanut","13","2018-06-27 22:18:09","314255"
"A3BEBDHWSLH1BQ","cs_wg_full_v2_pilot1","3I7DHKZYGN1XPAA4MY8E3E9T55U5FV","37","0","FORGERY","2","11","1","2401","FORGERY","11","2018-06-27 22:18:09","314256"
"AYYEQBUPC7IM5","cs_wg_full_v2_pilot1","3TK8OJTYM1MQEHED6SMWJ6HWKZJPVP","53","0","TONGUE","6","11","1","1899","tongue","6","2018-06-27 22:18:10","314257"
"A39YBLQYIUBR76","cs_wg_full_v2_pilot1","3LEP4MGT3G12G6DHW241I0603O0BDR","45","0","SHIVER","15","11","0","2598","shiver","15","2018-06-27 22:18:11","314258"
"A1RQQFUQ2GU9IZ","cs_wg_full_v2_pilot1","3LRLIPTPEQA5B2EZI5QSR2HK5FCAK8","67","0","FIREMAN","3","5","1","970","fireman","3","2018-06-27 22:18:12","314259"
"A299DY7LIIERYM","cs_wg_full_v2_pilot1","3DHE4R9OCWCB4DNCFZCYNS6TMA3G24","48","0","BUDGET","10","5","0","6840","budget","10","2018-06-27 22:18:12","314260"
"A2BC4S4LVBQ3OV","cs_wg_full_v2_pilot1","37XITHEISWAFRLOSS3VGY9TM0ARCR5","45","0","PLANET","13","11","0","2865","planet","13","2018-06-27 22:18:13","314261"
"A37GOI3N77WX21","cs_wg_full_v2_pilot1","3R2PKQ87NW9F78X0F5VLNDX77SCIMP","59","0","TRAFFIC","1","11","1","3762","traffic","1","2018-06-27 22:18:16","314262"
"ALQPGVQZEZSUE","cs_wg_full_v2_pilot1","378XPAWRUCEE57OBI25GEM27DBNIA5","69","0","BANQUET","13","11","0","1816","BANQUET","13","2018-06-27 22:18:17","314263"
"A1RQQFUQ2GU9IZ","cs_wg_full_v2_pilot1","3LRLIPTPEQA5B2EZI5QSR2HK5FCAK8","68","0","GOGGLES","1","5","1","758","goggles","1","2018-06-27 22:18:18","314264"
"A3EVXSWHYA1PTT","cs_wg_full_v2_pilot1","37FMASSAYCSJOHT3OG5C9XMDVT8IB0","58","0","CHURCH","12","11","0","3341","church","12","2018-06-27 22:18:20","314265"
"A299DY7LIIERYM","cs_wg_full_v2_pilot1","3DHE4R9OCWCB4DNCFZCYNS6TMA3G24","49","0","CHICKEN","7","5","0","1286","chicken","7","2018-06-27 22:18:21","314266"
"AYYEQBUPC7IM5","cs_wg_full_v2_pilot1","3TK8OJTYM1MQEHED6SMWJ6HWKZJPVP","54","0","PILLAR","15","11","1","1568","pillar","15","2018-06-27 22:18:23","314267"
"A39YBLQYIUBR76","cs_wg_full_v2_pilot1","3LEP4MGT3G12G6DHW241I0603O0BDR","46","0","FLIGHT","6","11","1","3350","flight","6","2018-06-27 22:18:23","314268"
"A1RQQFUQ2GU9IZ","cs_wg_full_v2_pilot1","3LRLIPTPEQA5B2EZI5QSR2HK5FCAK8","69","0","PUMPKIN","7","5","0","724","pumpkin","7","2018-06-27 22:18:25","314269"
"A2BC4S4LVBQ3OV","cs_wg_full_v2_pilot1","37XITHEISWAFRLOSS3VGY9TM0ARCR5","46","0","PICTURE","13","11","0","4099","picture","13","2018-06-27 22:18:28","314270"
"A3BEBDHWSLH1BQ","cs_wg_full_v2_pilot1","3I7DHKZYGN1XPAA4MY8E3E9T55U5FV","38","0","SMOKER","9","11","1","2526","SMOKER","11","2018-06-27 22:18:28","314271"
"AW2IJYOPX2MSE","cs_wg_full_v2_pilot1","3TDXMTX3CBVDI5C8SPO4YH0LHSXI6F","15","0","HERMIT","13","11","1","2381","hermit","13","2018-06-27 22:18:29","314272"
"A3EVXSWHYA1PTT","cs_wg_full_v2_pilot1","37FMASSAYCSJOHT3OG5C9XMDVT8IB0","59","0","PARENT","2","11","1","1460","parent","2","2018-06-27 22:18:29","314273"
"ALQPGVQZEZSUE","cs_wg_full_v2_pilot1","378XPAWRUCEE57OBI25GEM27DBNIA5","70","0","PEANUT","13","11","1","2343","PEANUT","13","2018-06-27 22:18:29","314274"
"A37GOI3N77WX21","cs_wg_full_v2_pilot1","3R2PKQ87NW9F78X0F5VLNDX77SCIMP","60","0","PEACOCK","10","11","1","5482","peacock","10","2018-06-27 22:18:30","314275"
"A299DY7LIIERYM","cs_wg_full_v2_pilot1","3DHE4R9OCWCB4DNCFZCYNS6TMA3G24","50","0","CABINET","3","5","1","2891","cabinet","3","2018-06-27 22:18:33","314276"
"A1RQQFUQ2GU9IZ","cs_wg_full_v2_pilot1","3LRLIPTPEQA5B2EZI5QSR2HK5FCAK8","70","0","BABOON","6","5","0","1155","baboon","6","2018-06-27 22:18:34","314277"
"AYYEQBUPC7IM5","cs_wg_full_v2_pilot1","3TK8OJTYM1MQEHED6SMWJ6HWKZJPVP","55","0","SUNBURN","13","11","0","2028","sunburn","15","2018-06-27 22:18:35","314278"
"A39YBLQYIUBR76","cs_wg_full_v2_pilot1","3LEP4MGT3G12G6DHW241I0603O0BDR","47","0","CHIMNEY","13","11","1","3857","chimney","13","2018-06-27 22:18:37","314279"
"ALQPGVQZEZSUE","cs_wg_full_v2_pilot1","378XPAWRUCEE57OBI25GEM27DBNIA5","71","0","CAMERA","2","11","1","2594","CAMERA","2","2018-06-27 22:18:40","314280"
"A1RQQFUQ2GU9IZ","cs_wg_full_v2_pilot1","3LRLIPTPEQA5B2EZI5QSR2HK5FCAK8","71","0","SILVER","1","5","1","868","silver","1","2018-06-27 22:18:40","314281"
"A2BC4S4LVBQ3OV","cs_wg_full_v2_pilot1","37XITHEISWAFRLOSS3VGY9TM0ARCR5","47","0","BASKET","9","11","1","2880","basket","9","2018-06-27 22:18:42","314282"
"A37GOI3N77WX21","cs_wg_full_v2_pilot1","3R2PKQ87NW9F78X0F5VLNDX77SCIMP","61","0","PILLAR","15","11","0","2322","pillar","15","2018-06-27 22:18:43","314283"
"A299DY7LIIERYM","cs_wg_full_v2_pilot1","3DHE4R9OCWCB4DNCFZCYNS6TMA3G24","51","0","PEACOCK","6","5","0","1810","peacock","6","2018-06-27 22:18:43","314284"
"A3EVXSWHYA1PTT","cs_wg_full_v2_pilot1","37FMASSAYCSJOHT3OG5C9XMDVT8IB0","60","0","PEANUT","13","11","0","3140","peanut","13","2018-06-27 22:18:43","314285"
"AW2IJYOPX2MSE","cs_wg_full_v2_pilot1","3TDXMTX3CBVDI5C8SPO4YH0LHSXI6F","16","0","COSTUME","13","11","0","3900","costume","13","2018-06-27 22:18:47","314286"
"A1RQQFUQ2GU9IZ","cs_wg_full_v2_pilot1","3LRLIPTPEQA5B2EZI5QSR2HK5FCAK8","72","0","BABOON","6","5","0","1458","baboon","6","2018-06-27 22:18:48","314287"
"A39YBLQYIUBR76","cs_wg_full_v2_pilot1","3LEP4MGT3G12G6DHW241I0603O0BDR","48","0","BAGPIPE","10","11","0","4493","bagpipes","10","2018-06-27 22:18:51","314288"
"ALQPGVQZEZSUE","cs_wg_full_v2_pilot1","378XPAWRUCEE57OBI25GEM27DBNIA5","72","0","FIREMAN","13","11","0","1739","FIREMAN","13","2018-06-27 22:18:52","314289"
"A37GOI3N77WX21","cs_wg_full_v2_pilot1","3R2PKQ87NW9F78X0F5VLNDX77SCIMP","62","0","BEAVER","15","11","0","1394","beaver","15","2018-06-27 22:18:53","314290"
"A2BC4S4LVBQ3OV","cs_wg_full_v2_pilot1","37XITHEISWAFRLOSS3VGY9TM0ARCR5","48","0","JUNGLE","6","11","1","1960","jungle","6","2018-06-27 22:18:54","314291"
"A1RQQFUQ2GU9IZ","cs_wg_full_v2_pilot1","3LRLIPTPEQA5B2EZI5QSR2HK5FCAK8","73","0","LIQUID","3","5","1","706","liquid","3","2018-06-27 22:18:54","314292"
"A299DY7LIIERYM","cs_wg_full_v2_pilot1","3DHE4R9OCWCB4DNCFZCYNS6TMA3G24","52","0","PICTURE","3","5","1","1902","picture","3","2018-06-27 22:18:55","314293"
"A3EVXSWHYA1PTT","cs_wg_full_v2_pilot1","37FMASSAYCSJOHT3OG5C9XMDVT8IB0","61","0","PICKLE","9","11","1","3480","pickle","9","2018-06-27 22:18:55","314294"
"AYYEQBUPC7IM5","cs_wg_full_v2_pilot1","3TK8OJTYM1MQEHED6SMWJ6HWKZJPVP","56","0","BUCKET","9","11","1","13704","bucket","9","2018-06-27 22:18:59","314295"
"AW2IJYOPX2MSE","cs_wg_full_v2_pilot1","3TDXMTX3CBVDI5C8SPO4YH0LHSXI6F","17","0","HERMIT","13","11","0","1917","hermit","13","2018-06-27 22:18:59","314296"
"ALQPGVQZEZSUE","cs_wg_full_v2_pilot1","378XPAWRUCEE57OBI25GEM27DBNIA5","73","0","BANQUET","13","11","0","1208","BANQUET","13","2018-06-27 22:19:01","314297"
"A39YBLQYIUBR76","cs_wg_full_v2_pilot1","3LEP4MGT3G12G6DHW241I0603O0BDR","49","0","CARROT","12","11","1","2383","carrot","12","2018-06-27 22:19:03","314298"
"A37GOI3N77WX21","cs_wg_full_v2_pilot1","3R2PKQ87NW9F78X0F5VLNDX77SCIMP","63","0","FORGERY","2","11","1","3131","forgery","2","2018-06-27 22:19:04","314299"
"A1RQQFUQ2GU9IZ","cs_wg_full_v2_pilot1","3LRLIPTPEQA5B2EZI5QSR2HK5FCAK8","74","0","BAGPIPE","6","5","1","3211","bagpipe","6","2018-06-27 22:19:05","314300"
"A299DY7LIIERYM","cs_wg_full_v2_pilot1","3DHE4R9OCWCB4DNCFZCYNS6TMA3G24","53","0","CAMERA","14","5","0","4479","camera","14","2018-06-27 22:19:09","314301"
"A2BC4S4LVBQ3OV","cs_wg_full_v2_pilot1","37XITHEISWAFRLOSS3VGY9TM0ARCR5","49","0","PICTURE","13","11","0","3178","picture","13","2018-06-27 22:19:10","314302"
"A3EVXSWHYA1PTT","cs_wg_full_v2_pilot1","37FMASSAYCSJOHT3OG5C9XMDVT8IB0","62","0","PEANUT","13","11","1","1363","pickle","9
9","2018-06-27 22:19:10","314303"
"AYYEQBUPC7IM5","cs_wg_full_v2_pilot1","3TK8OJTYM1MQEHED6SMWJ6HWKZJPVP","57","0","FACTORY","10","11","1","1484","factory","10","2018-06-27 22:19:10","314304"
"A3BEBDHWSLH1BQ","cs_wg_full_v2_pilot1","3I7DHKZYGN1XPAA4MY8E3E9T55U5FV","39","0","PEACOCK","10","11","1","27242","PEACOCK","11","2018-06-27 22:19:10","314305"
"ALQPGVQZEZSUE","cs_wg_full_v2_pilot1","378XPAWRUCEE57OBI25GEM27DBNIA5","74","0","WAFFLE","1","11","1","1524","WAFFLE","1","2018-06-27 22:19:11","314306"
"AW2IJYOPX2MSE","cs_wg_full_v2_pilot1","3TDXMTX3CBVDI5C8SPO4YH0LHSXI6F","18","0","FLIGHT","6","11","1","1798","flight","6","2018-06-27 22:19:11","314307"
"A1RQQFUQ2GU9IZ","cs_wg_full_v2_pilot1","3LRLIPTPEQA5B2EZI5QSR2HK5FCAK8","75","0","BATTERY","14","5","0","747","battery","14","2018-06-27 22:19:12","314308"
"A39YBLQYIUBR76","cs_wg_full_v2_pilot1","3LEP4MGT3G12G6DHW241I0603O0BDR","50","0","JAVELIN","15","11","0","2390","javelin","15","2018-06-27 22:19:15","314309"
"A37GOI3N77WX21","cs_wg_full_v2_pilot1","3R2PKQ87NW9F78X0F5VLNDX77SCIMP","64","0","CHICKEN","9","11","1","3970","chicken","9","2018-06-27 22:19:17","314310"
"A1RQQFUQ2GU9IZ","cs_wg_full_v2_pilot1","3LRLIPTPEQA5B2EZI5QSR2HK5FCAK8","76","0","GOGGLES","1","5","1","628","goggles","1","2018-06-27 22:19:19","314311"
"A299DY7LIIERYM","cs_wg_full_v2_pilot1","3DHE4R9OCWCB4DNCFZCYNS6TMA3G24","54","0","JAVELIN","1","5","1","1758","javelin","1","2018-06-27 22:19:19","314312"
"A3EVXSWHYA1PTT","cs_wg_full_v2_pilot1","37FMASSAYCSJOHT3OG5C9XMDVT8IB0","63","0","BEGGAR","6","11","1","1409","beggar","6","2018-06-27 22:19:20","314313"
"ALQPGVQZEZSUE","cs_wg_full_v2_pilot1","378XPAWRUCEE57OBI25GEM27DBNIA5","75","0","WAFFLE","1","11","1","1546","WAFFLE","1","2018-06-27 22:19:22","314314"
"AYYEQBUPC7IM5","cs_wg_full_v2_pilot1","3TK8OJTYM1MQEHED6SMWJ6HWKZJPVP","58","0","FACTORY","10","11","1","2483","factory","10","2018-06-27 22:19:22","314315"
"AW2IJYOPX2MSE","cs_wg_full_v2_pilot1","3TDXMTX3CBVDI5C8SPO4YH0LHSXI6F","19","0","CANVAS","15","11","0","1645","canvas","15","2018-06-27 22:19:24","314316"
"A2BC4S4LVBQ3OV","cs_wg_full_v2_pilot1","37XITHEISWAFRLOSS3VGY9TM0ARCR5","50","0","PLANET","13","11","0","2365","planet","13","2018-06-27 22:19:24","314317"
"A1RQQFUQ2GU9IZ","cs_wg_full_v2_pilot1","3LRLIPTPEQA5B2EZI5QSR2HK5FCAK8","77","0","SILVER","1","5","1","933","silver","1","2018-06-27 22:19:26","314318"
"A3BEBDHWSLH1BQ","cs_wg_full_v2_pilot1","3I7DHKZYGN1XPAA4MY8E3E9T55U5FV","40","0","GOGGLES","15","11","1","2543","GOGGLES","11","2018-06-27 22:19:28","314319"
"A299DY7LIIERYM","cs_wg_full_v2_pilot1","3DHE4R9OCWCB4DNCFZCYNS6TMA3G24","55","0","EARDRUM","4","5","0","1870","eardrum","4","2018-06-27 22:19:30","314320"
"A39YBLQYIUBR76","cs_wg_full_v2_pilot1","3LEP4MGT3G12G6DHW241I0603O0BDR","51","0","CHIMNEY","13","11","0","2198","chminey","13","2018-06-27 22:19:30","314321"
"A3EVXSWHYA1PTT","cs_wg_full_v2_pilot1","37FMASSAYCSJOHT3OG5C9XMDVT8IB0","64","0","CASINO","10","11","1","1948","casino","10","2018-06-27 22:19:31","314322"
"A37GOI3N77WX21","cs_wg_full_v2_pilot1","3R2PKQ87NW9F78X0F5VLNDX77SCIMP","65","0","BARREL","12","11","0","3480","barrel","12","2018-06-27 22:19:31","314323"
"ALQPGVQZEZSUE","cs_wg_full_v2_pilot1","378XPAWRUCEE57OBI25GEM27DBNIA5","76","0","GOGGLES","15","11","0","1493","GOGGLES","15","2018-06-27 22:19:32","314324"
"A1RQQFUQ2GU9IZ","cs_wg_full_v2_pilot1","3LRLIPTPEQA5B2EZI5QSR2HK5FCAK8","78","0","BATTERY","14","5","0","1602","battery","14","2018-06-27 22:19:33","314325"
"AW2IJYOPX2MSE","cs_wg_full_v2_pilot1","3TDXMTX3CBVDI5C8SPO4YH0LHSXI6F","20","0","CHURCH","12","11","0","3735","church","12","2018-06-27 22:19:38","314326"
"A2BC4S4LVBQ3OV","cs_wg_full_v2_pilot1","37XITHEISWAFRLOSS3VGY9TM0ARCR5","51","0","PLANET","13","11","0","2122","planet","13","2018-06-27 22:19:38","314327"
"AYYEQBUPC7IM5","cs_wg_full_v2_pilot1","3TK8OJTYM1MQEHED6SMWJ6HWKZJPVP","59","0","BAPTISM","10","11","1","6516","baptism","10","2018-06-27 22:19:39","314328"
"A1RQQFUQ2GU9IZ","cs_wg_full_v2_pilot1","3LRLIPTPEQA5B2EZI5QSR2HK5FCAK8","79","0","LIQUID","3","5","1","802","liquid","3","2018-06-27 22:19:40","314329"
"A3EVXSWHYA1PTT","cs_wg_full_v2_pilot1","37FMASSAYCSJOHT3OG5C9XMDVT8IB0","65","0","JAVELIN","15","11","0","1523","javelin","15","2018-06-27 22:19:40","314330"
"A299DY7LIIERYM","cs_wg_full_v2_pilot1","3DHE4R9OCWCB4DNCFZCYNS6TMA3G24","56","0","BEAVER","1","5","1","1580","beaver","1","2018-06-27 22:19:40","314331"
"A37GOI3N77WX21","cs_wg_full_v2_pilot1","3R2PKQ87NW9F78X0F5VLNDX77SCIMP","66","0","SUMMER","13","11","0","1577","summer","13","2018-06-27 22:19:42","314332"
"ALQPGVQZEZSUE","cs_wg_full_v2_pilot1","378XPAWRUCEE57OBI25GEM27DBNIA5","77","0","BANQUET","13","11","0","1167","BANQUET","13","2018-06-27 22:19:42","314333"
"A39YBLQYIUBR76","cs_wg_full_v2_pilot1","3LEP4MGT3G12G6DHW241I0603O0BDR","52","0","BAGPIPE","10","11","1","2349","bagpipe","10","2018-06-27 22:19:47","314334"
"A1RQQFUQ2GU9IZ","cs_wg_full_v2_pilot1","3LRLIPTPEQA5B2EZI5QSR2HK5FCAK8","80","0","BUDGET","10","5","0","1317","budget","10","2018-06-27 22:19:47","314335"
"A299DY7LIIERYM","cs_wg_full_v2_pilot1","3DHE4R9OCWCB4DNCFZCYNS6TMA3G24","57","0","JAVELIN","1","5","1","1361","javelin","1","2018-06-27 22:19:49","314336"
"A3BEBDHWSLH1BQ","cs_wg_full_v2_pilot1","3I7DHKZYGN1XPAA4MY8E3E9T55U5FV","41","0","CASINO","10","11","0","6544","CASINO","10","2018-06-27 22:19:49","314337"
"A3EVXSWHYA1PTT","cs_wg_full_v2_pilot1","37FMASSAYCSJOHT3OG5C9XMDVT8IB0","66","0","ALMOND","10","11","1","3220","almond","10","2018-06-27 22:19:50","314338"
"A2BC4S4LVBQ3OV","cs_wg_full_v2_pilot1","37XITHEISWAFRLOSS3VGY9TM0ARCR5","52","0","TRAFFIC","1","11","1","1830","traffic","1","2018-06-27 22:19:51","314339"
"ALQPGVQZEZSUE","cs_wg_full_v2_pilot1","378XPAWRUCEE57OBI25GEM27DBNIA5","78","0","GOGGLES","15","11","0","1202","GOGGLES","15","2018-06-27 22:19:51","314340"
"A37GOI3N77WX21","cs_wg_full_v2_pilot1","3R2PKQ87NW9F78X0F5VLNDX77SCIMP","67","0","SUNBURN","13","11","0","1402","sunburn","13","2018-06-27 22:19:52","314341"
"AYYEQBUPC7IM5","cs_wg_full_v2_pilot1","3TK8OJTYM1MQEHED6SMWJ6HWKZJPVP","60","0","CHURCH","12","11","0","3274","church","12","2018-06-27 22:19:52","314342"
"A1RQQFUQ2GU9IZ","cs_wg_full_v2_pilot1","3LRLIPTPEQA5B2EZI5QSR2HK5FCAK8","81","0","BAGPIPE","6","5","0","1171","bagpipe","6","2018-06-27 22:19:55","314343"
"AW2IJYOPX2MSE","cs_wg_full_v2_pilot1","3TDXMTX3CBVDI5C8SPO4YH0LHSXI6F","21","0","KIDNEY","13","11","1","3589","kidney","13","2018-06-27 22:19:55","314344"
"A39YBLQYIUBR76","cs_wg_full_v2_pilot1","3LEP4MGT3G12G6DHW241I0603O0BDR","53","0","ABDOMEN","13","11","0","2135","abdomen","13","2018-06-27 22:19:59","314345"
"A3EVXSWHYA1PTT","cs_wg_full_v2_pilot1","37FMASSAYCSJOHT3OG5C9XMDVT8IB0","67","0","PENGUIN","13","11","0","1953","penguin","13","2018-06-27 22:20:01","314346"
"A299DY7LIIERYM","cs_wg_full_v2_pilot1","3DHE4R9OCWCB4DNCFZCYNS6TMA3G24","58","0","CABINET","3","5","1","1733","cabinet","3","2018-06-27 22:20:01","314347"
"A1RQQFUQ2GU9IZ","cs_wg_full_v2_pilot1","3LRLIPTPEQA5B2EZI5QSR2HK5FCAK8","82","0","SILVER","1","5","1","788","silver","1","2018-06-27 22:20:01","314348"
"ALQPGVQZEZSUE","cs_wg_full_v2_pilot1","378XPAWRUCEE57OBI25GEM27DBNIA5","79","0","ALMOND","10","11","1","2601","ALMOND","10","2018-06-27 22:20:02","314349"
"A2BC4S4LVBQ3OV","cs_wg_full_v2_pilot1","37XITHEISWAFRLOSS3VGY9TM0ARCR5","53","0","PICTURE","13","11","0","1867","picture","13","2018-06-27 22:20:03","314350"
"AYYEQBUPC7IM5","cs_wg_full_v2_pilot1","3TK8OJTYM1MQEHED6SMWJ6HWKZJPVP","61","0","SHIVER","15","11","0","1520","shiver","15","2018-06-27 22:20:04","314351"
"A37GOI3N77WX21","cs_wg_full_v2_pilot1","3R2PKQ87NW9F78X0F5VLNDX77SCIMP","68","0","KIDNEY","13","11","1","3747","kidney","13","2018-06-27 22:20:06","314352"
"A3EVXSWHYA1PTT","cs_wg_full_v2_pilot1","37FMASSAYCSJOHT3OG5C9XMDVT8IB0","68","0","ALMOND","10","11","1","1436","almond","10","2018-06-27 22:20:09","314353"
"A1RQQFUQ2GU9IZ","cs_wg_full_v2_pilot1","3LRLIPTPEQA5B2EZI5QSR2HK5FCAK8","83","0","BUDGET","10","5","0","1373","budget","10","2018-06-27 22:20:09","314354"
"ALQPGVQZEZSUE","cs_wg_full_v2_pilot1","378XPAWRUCEE57OBI25GEM27DBNIA5","80","0","DAGGER","6","11","1","1579","DAGGER","6","2018-06-27 22:20:11","314355"
"A39YBLQYIUBR76","cs_wg_full_v2_pilot1","3LEP4MGT3G12G6DHW241I0603O0BDR","54","0","SPATULA","13","11","0","1493","spatula","13","2018-06-27 22:20:13","314356"
"AW2IJYOPX2MSE","cs_wg_full_v2_pilot1","3TDXMTX3CBVDI5C8SPO4YH0LHSXI6F","22","0","BULLET","15","11","1","2086","bullet","15","2018-06-27 22:20:14","314357"
"AYYEQBUPC7IM5","cs_wg_full_v2_pilot1","3TK8OJTYM1MQEHED6SMWJ6HWKZJPVP","62","0","SHIVER","15","11","0","1430","shiver","15","2018-06-27 22:20:15","314358"
"A1RQQFUQ2GU9IZ","cs_wg_full_v2_pilot1","3LRLIPTPEQA5B2EZI5QSR2HK5FCAK8","84","0","SILVER","1","5","1","658","silver","1","2018-06-27 22:20:17","314359"
"A3BEBDHWSLH1BQ","cs_wg_full_v2_pilot1","3I7DHKZYGN1XPAA4MY8E3E9T55U5FV","42","0","PEACOCK","10","11","0","7888","PEACOCK

PEACOCK

PEACOCK

PEACOCK","10","2018-06-27 22:20:17","314360"
"A2BC4S4LVBQ3OV","cs_wg_full_v2_pilot1","37XITHEISWAFRLOSS3VGY9TM0ARCR5","54","0","BULLET","15","11","0","2625","bullet","15","2018-06-27 22:20:19","314361"
"A37GOI3N77WX21","cs_wg_full_v2_pilot1","3R2PKQ87NW9F78X0F5VLNDX77SCIMP","69","0","TRAFFIC","1","11","1","1514","traffic","1","2018-06-27 22:20:19","314362"
"ALQPGVQZEZSUE","cs_wg_full_v2_pilot1","378XPAWRUCEE57OBI25GEM27DBNIA5","81","0","CHURCH","12","11","0","2419","CHURCH","12","2018-06-27 22:20:22","314363"
"A3EVXSWHYA1PTT","cs_wg_full_v2_pilot1","37FMASSAYCSJOHT3OG5C9XMDVT8IB0","69","0","CASINO","10","11","1","1581","casino","10","2018-06-27 22:20:22","314364"
"A39YBLQYIUBR76","cs_wg_full_v2_pilot1","3LEP4MGT3G12G6DHW241I0603O0BDR","55","0","JAVELIN","15","11","0","1389","javelin","15","2018-06-27 22:20:24","314365"
"A1RQQFUQ2GU9IZ","cs_wg_full_v2_pilot1","3LRLIPTPEQA5B2EZI5QSR2HK5FCAK8","85","0","CARROT","4","5","1","1220","carrot","4","2018-06-27 22:20:25","314366"
"AW2IJYOPX2MSE","cs_wg_full_v2_pilot1","3TDXMTX3CBVDI5C8SPO4YH0LHSXI6F","23","0","BAGPIPE","10","11","0","2797","bagpipe","10","2018-06-27 22:20:28","314367"
"A37GOI3N77WX21","cs_wg_full_v2_pilot1","3R2PKQ87NW9F78X0F5VLNDX77SCIMP","70","0","FORGERY","2","11","1","1360","forgery","2","2018-06-27 22:20:29","314368"
"AYYEQBUPC7IM5","cs_wg_full_v2_pilot1","3TK8OJTYM1MQEHED6SMWJ6HWKZJPVP","63","0","PILLAR","15","11","0","5504","pillar","15","2018-06-27 22:20:30","314369"
"ALQPGVQZEZSUE","cs_wg_full_v2_pilot1","378XPAWRUCEE57OBI25GEM27DBNIA5","82","0","CHURCH","12","11","0","1145","CHURCH","12","2018-06-27 22:20:32","314370"
"A3EVXSWHYA1PTT","cs_wg_full_v2_pilot1","37FMASSAYCSJOHT3OG5C9XMDVT8IB0","70","0","PENGUIN","13","11","0","1812","penguin","13","2018-06-27 22:20:32","314371"
"A1RQQFUQ2GU9IZ","cs_wg_full_v2_pilot1","3LRLIPTPEQA5B2EZI5QSR2HK5FCAK8","86","0","KIDNEY","3","5","1","1899","kidney","3","2018-06-27 22:20:33","314372"
"A2BC4S4LVBQ3OV","cs_wg_full_v2_pilot1","37XITHEISWAFRLOSS3VGY9TM0ARCR5","55","0","BARREL","12","11","0","3065","barrel","12","2018-06-27 22:20:33","314373"
"A39YBLQYIUBR76","cs_wg_full_v2_pilot1","3LEP4MGT3G12G6DHW241I0603O0BDR","56","0","CHIMNEY","13","11","0","1540","chimney","13","2018-06-27 22:20:36","314374"
"A3BEBDHWSLH1BQ","cs_wg_full_v2_pilot1","3I7DHKZYGN1XPAA4MY8E3E9T55U5FV","43","0","GOGGLES","15","11","1","2145","GOGGLES","11","2018-06-27 22:20:36","314375"
"AW2IJYOPX2MSE","cs_wg_full_v2_pilot1","3TDXMTX3CBVDI5C8SPO4YH0LHSXI6F","24","0","FRIEND","2","11","1","1938","friend","2","2018-06-27 22:20:39","314376"
"A1RQQFUQ2GU9IZ","cs_wg_full_v2_pilot1","3LRLIPTPEQA5B2EZI5QSR2HK5FCAK8","87","0","BATTERY","14","5","0","676","battery","14","2018-06-27 22:20:40","314377"
"A37GOI3N77WX21","cs_wg_full_v2_pilot1","3R2PKQ87NW9F78X0F5VLNDX77SCIMP","71","0","PEACOCK","10","11","1","3817","peacock","10","2018-06-27 22:20:41","314378"
"ALQPGVQZEZSUE","cs_wg_full_v2_pilot1","378XPAWRUCEE57OBI25GEM27DBNIA5","83","0","DAGGER","6","11","1","2013","DAGGER","6","2018-06-27 22:20:41","314379"
"AYYEQBUPC7IM5","cs_wg_full_v2_pilot1","3TK8OJTYM1MQEHED6SMWJ6HWKZJPVP","64","0","DEMON","13","11","0","2802","demon","13","2018-06-27 22:20:42","314380"
"A2BC4S4LVBQ3OV","cs_wg_full_v2_pilot1","37XITHEISWAFRLOSS3VGY9TM0ARCR5","56","0","PLANET","13","11","0","1653","planet","13","2018-06-27 22:20:46","314381"
"A299DY7LIIERYM","cs_wg_full_v2_pilot1","3DHE4R9OCWCB4DNCFZCYNS6TMA3G24","59","0","CABINET","3","5","1","27394","cabinet","3","2018-06-27 22:20:47","314382"
"A1RQQFUQ2GU9IZ","cs_wg_full_v2_pilot1","3LRLIPTPEQA5B2EZI5QSR2HK5FCAK8","88","0","SILVER","1","5","1","1394","silver","1","2018-06-27 22:20:47","314383"
"A3EVXSWHYA1PTT","cs_wg_full_v2_pilot1","37FMASSAYCSJOHT3OG5C9XMDVT8IB0","71","0","CASINO","10","11","1","7477","casino","10","2018-06-27 22:20:48","314384"
"A39YBLQYIUBR76","cs_wg_full_v2_pilot1","3LEP4MGT3G12G6DHW241I0603O0BDR","57","0","FRIEND","2","11","1","2404","friend","2","2018-06-27 22:20:49","314385"
"ALQPGVQZEZSUE","cs_wg_full_v2_pilot1","378XPAWRUCEE57OBI25GEM27DBNIA5","84","0","CHURCH","12","11","0","1079","CHURCH","12","2018-06-27 22:20:50","314386"
"A37GOI3N77WX21","cs_wg_full_v2_pilot1","3R2PKQ87NW9F78X0F5VLNDX77SCIMP","72","0","BUDGET","6","11","1","2241","budget","6","2018-06-27 22:20:51","314387"
"AW2IJYOPX2MSE","cs_wg_full_v2_pilot1","3TDXMTX3CBVDI5C8SPO4YH0LHSXI6F","25","0","HERMIT","13","11","0","3441","hermit","13","2018-06-27 22:20:52","314388"
"AYYEQBUPC7IM5","cs_wg_full_v2_pilot1","3TK8OJTYM1MQEHED6SMWJ6HWKZJPVP","65","0","SHIVER","15","11","0","1254","shiver","15","2018-06-27 22:20:52","314389"
"A1RQQFUQ2GU9IZ","cs_wg_full_v2_pilot1","3LRLIPTPEQA5B2EZI5QSR2HK5FCAK8","89","0","FIREMAN","3","5","1","1260","fireman","3","2018-06-27 22:20:55","314390"
"A3EVXSWHYA1PTT","cs_wg_full_v2_pilot1","37FMASSAYCSJOHT3OG5C9XMDVT8IB0","72","0","COFFEE","1","11","1","2027","coffee","1","2018-06-27 22:20:57","314391"
"A3BEBDHWSLH1BQ","cs_wg_full_v2_pilot1","3I7DHKZYGN1XPAA4MY8E3E9T55U5FV","44","0","DEMON","13","11","1","2985","DEMON","11","2018-06-27 22:20:57","314392"
"ALQPGVQZEZSUE","cs_wg_full_v2_pilot1","378XPAWRUCEE57OBI25GEM27DBNIA5","85","0","FIREMAN","13","11","0","1329","FIREMAN","13","2018-06-27 22:20:59","314393"
"A39YBLQYIUBR76","cs_wg_full_v2_pilot1","3LEP4MGT3G12G6DHW241I0603O0BDR","58","0","COFFIN","1","11","0","1717","coffin","1","2018-06-27 22:20:59","314394"
"A299DY7LIIERYM","cs_wg_full_v2_pilot1","3DHE4R9OCWCB4DNCFZCYNS6TMA3G24","60","0","PICTURE","3","5","1","5127","picture","3","2018-06-27 22:21:01","314395"
"AW2IJYOPX2MSE","cs_wg_full_v2_pilot1","3TDXMTX3CBVDI5C8SPO4YH0LHSXI6F","26","0","BAGPIPE","10","11","0","1803","bagpipe","10","2018-06-27 22:21:03","314396"
"AYYEQBUPC7IM5","cs_wg_full_v2_pilot1","3TK8OJTYM1MQEHED6SMWJ6HWKZJPVP","66","0","PILLAR","15","11","0","1752","pillar","15","2018-06-27 22:21:03","314397"
"A37GOI3N77WX21","cs_wg_full_v2_pilot1","3R2PKQ87NW9F78X0F5VLNDX77SCIMP","73","0","CHICKEN","9","11","1","2986","chicken","9","2018-06-27 22:21:04","314398"
"A2BC4S4LVBQ3OV","cs_wg_full_v2_pilot1","37XITHEISWAFRLOSS3VGY9TM0ARCR5","57","0","TRIVIA","15","11","0","2875","trivia","15","2018-06-27 22:21:05","314399"
"A1RQQFUQ2GU9IZ","cs_wg_full_v2_pilot1","3LRLIPTPEQA5B2EZI5QSR2HK5FCAK8","90","0","KIDNEY","3","5","1","4636","kidney","3","2018-06-27 22:21:06","314400"
"ALQPGVQZEZSUE","cs_wg_full_v2_pilot1","378XPAWRUCEE57OBI25GEM27DBNIA5","86","0","WAFFLE","1","11","1","1579","WAFFLE","1","2018-06-27 22:21:08","314401"
"A3EVXSWHYA1PTT","cs_wg_full_v2_pilot1","37FMASSAYCSJOHT3OG5C9XMDVT8IB0","73","0","PEANUT","13","11","0","3645","peanut","13","2018-06-27 22:21:09","314402"
