"subject","version","assignmentId","trial","trial_type","word","value","alt","choice","rt","resp","resp2","stamp","id"
"A142ZRU284W9O","cs_wg_v3_poss_real1","3QBD8R3Z21K9Z4JX7W8ULGCQEXUO4K","0","0","MACHINE","0","5","1","2259","MACHINE","0","2017-03-29 16:55:02","31646"
"A142ZRU284W9O","cs_wg_v3_poss_real1","3QBD8R3Z21K9Z4JX7W8ULGCQEXUO4K","1","0","BASKET","10","5","1","1510","BASKET","10","2017-03-29 16:55:11","31647"
"A142ZRU284W9O","cs_wg_v3_poss_real1","3QBD8R3Z21K9Z4JX7W8ULGCQEXUO4K","2","0","KEYBOARD","10","5","1","2034","KEYBOARD","10","2017-03-29 16:55:21","31648"
"A142ZRU284W9O","cs_wg_v3_poss_real1","3QBD8R3Z21K9Z4JX7W8ULGCQEXUO4K","3","0","KEYBOARD","10","5","1","9324","KEYBOARD","10","2017-03-29 16:55:40","31649"
"A142ZRU284W9O","cs_wg_v3_poss_real1","3QBD8R3Z21K9Z4JX7W8ULGCQEXUO4K","4","1","FOOTBALL","5","5","1","1162","FOOTBALL",,"2017-03-29 16:55:48","31650"
"AD1WGUMVD6KED","cs_wg_v3_poss_real1","36U2A8VAG1067KC2YB48UOZOPTJYKV","0","1","KEYBOARD","5","5","1","5757","keyboard",,"2017-03-29 16:55:57","31651"
"A142ZRU284W9O","cs_wg_v3_poss_real1","3QBD8R3Z21K9Z4JX7W8ULGCQEXUO4K","5","0","BOOKSHELF","0","5","1","533","BOOKSHELF","0","2017-03-29 16:55:58","31652"
"A3TYA2ATHN50AW","cs_wg_v3_poss_real1","31LVTDXBL7B8UPIY5GOF1SJ6B69LRJ","0","0","BOOKSHELF","10","5","0","3952","bookshelf","10","2017-03-29 16:56:02","31653"
"A3KECQ3YIW2I0F","cs_wg_v3_poss_real1","3RUIQRXJBBPXRRNL0WRJFGA75EKLLT","0","1","LADDER","5","5","1","4484","LADDER",,"2017-03-29 16:56:04","31654"
"A142ZRU284W9O","cs_wg_v3_poss_real1","3QBD8R3Z21K9Z4JX7W8ULGCQEXUO4K","6","0","WEDDING","10","5","1","2043","WEDDING","10","2017-03-29 16:56:06","31655"
"A3F8G26PENQ6EO","cs_wg_v3_poss_real1","3VNL7UK1XFKZACLUNUQC6UF42VKTFZ","0","1","COMMUNITY","5","5","1","4103","community",,"2017-03-29 16:56:15","31656"
"A3TYA2ATHN50AW","cs_wg_v3_poss_real1","31LVTDXBL7B8UPIY5GOF1SJ6B69LRJ","1","0","COMMUNITY","0","5","0","2274","community","0","2017-03-29 16:56:16","31657"
"A142ZRU284W9O","cs_wg_v3_poss_real1","3QBD8R3Z21K9Z4JX7W8ULGCQEXUO4K","7","1","COMMUNITY","5","5","1","1327","COMMUNITY","5","2017-03-29 16:56:17","31658"
"A21UA6O7ZFAIQJ","cs_wg_v3_poss_real1","3YT88D1N08Z5RHFE9QBI4U3BGSP3KV","0","0","MACHINE","0","5","0","5088","machine","0","2017-03-29 16:56:18","31659"
"AD1WGUMVD6KED","cs_wg_v3_poss_real1","36U2A8VAG1067KC2YB48UOZOPTJYKV","1","0","BASKET","0","5","0","4762","basket","0","2017-03-29 16:56:23","31660"
"A142ZRU284W9O","cs_wg_v3_poss_real1","3QBD8R3Z21K9Z4JX7W8ULGCQEXUO4K","8","0","STRUCTURE","0","5","1","618","STRUCTURE","0","2017-03-29 16:56:25","31661"
"A3KECQ3YIW2I0F","cs_wg_v3_poss_real1","3RUIQRXJBBPXRRNL0WRJFGA75EKLLT","1","0","FOOTBALL","0","5","1","8267","FOOTBALL","0","2017-03-29 16:56:26","31662"
"A30V0XGG1XNYI7","cs_wg_v3_poss_real1","3TOK3KHVJTJ6IR1G9U61OSW05ZKO74","0","0","BOOKSHELF","0","5","1","18660","BOOKSHELF","5","2017-03-29 16:56:29","31663"
"A21UA6O7ZFAIQJ","cs_wg_v3_poss_real1","3YT88D1N08Z5RHFE9QBI4U3BGSP3KV","1","0","MACHINE","0","5","1","2708","MACHINE","0","2017-03-29 16:56:31","31664"
"A3F8G26PENQ6EO","cs_wg_v3_poss_real1","3VNL7UK1XFKZACLUNUQC6UF42VKTFZ","1","0","HELICOPTER","0","5","1","3553","helicopter","0","2017-03-29 16:56:31","31665"
"A142ZRU284W9O","cs_wg_v3_poss_real1","3QBD8R3Z21K9Z4JX7W8ULGCQEXUO4K","9","1","COMMUNITY","5","5","1","1166","COMMUNITY",,"2017-03-29 16:56:33","31666"
"A3PIIKN7MTJ3O7","cs_wg_v3_poss_real1","3HHRAGRYX86AWAP9OR4L2ON60P8O9G","0","0","STRUCTURE","0","5","0","4531","structure","0","2017-03-29 16:56:35","31667"
"A3TYA2ATHN50AW","cs_wg_v3_poss_real1","31LVTDXBL7B8UPIY5GOF1SJ6B69LRJ","2","1","WEDDING","5","5","1","2670","wedding","5","2017-03-29 16:56:36","31668"
"AD1WGUMVD6KED","cs_wg_v3_poss_real1","36U2A8VAG1067KC2YB48UOZOPTJYKV","2","1","TRAFFIC","5","5","1","3260","traffic",,"2017-03-29 16:56:36","31669"
"A3KECQ3YIW2I0F","cs_wg_v3_poss_real1","3RUIQRXJBBPXRRNL0WRJFGA75EKLLT","2","0","BOOKSHELF","10","5","1","5650","BOOKSHELF","10","2017-03-29 16:56:43","31670"
"A3F8G26PENQ6EO","cs_wg_v3_poss_real1","3VNL7UK1XFKZACLUNUQC6UF42VKTFZ","2","1","WEDDING","5","5","1","5028","wedding",,"2017-03-29 16:56:44","31671"
"A142ZRU284W9O","cs_wg_v3_poss_real1","3QBD8R3Z21K9Z4JX7W8ULGCQEXUO4K","10","0","BOOKSHELF","0","5","1","4912","BOOKSHELF","0","2017-03-29 16:56:45","31672"
"A21UA6O7ZFAIQJ","cs_wg_v3_poss_real1","3YT88D1N08Z5RHFE9QBI4U3BGSP3KV","2","0","MACHINE","0","5","1","2677","MACHINE","0","2017-03-29 16:56:47","31673"
"A30V0XGG1XNYI7","cs_wg_v3_poss_real1","3TOK3KHVJTJ6IR1G9U61OSW05ZKO74","1","0","HELICOPTER","10","5","1","3002","HELICOPTER","10","2017-03-29 16:56:48","31674"
"A3TYA2ATHN50AW","cs_wg_v3_poss_real1","31LVTDXBL7B8UPIY5GOF1SJ6B69LRJ","3","1","TRAFFIC","5","5","1","1872","traffic","5","2017-03-29 16:56:49","31675"
"A142ZRU284W9O","cs_wg_v3_poss_real1","3QBD8R3Z21K9Z4JX7W8ULGCQEXUO4K","11","1","STOMACH","5","5","1","494","STOMACH",,"2017-03-29 16:56:51","31676"
"AD1WGUMVD6KED","cs_wg_v3_poss_real1","36U2A8VAG1067KC2YB48UOZOPTJYKV","3","0","LADDER","10","5","1","6745","ladder","10","2017-03-29 16:56:52","31677"
"A3F8G26PENQ6EO","cs_wg_v3_poss_real1","3VNL7UK1XFKZACLUNUQC6UF42VKTFZ","3","0","TRAFFIC","10","5","0","1332","traffic","10","2017-03-29 16:56:54","31678"
"A3PIIKN7MTJ3O7","cs_wg_v3_poss_real1","3HHRAGRYX86AWAP9OR4L2ON60P8O9G","1","1","LADDER","5","5","1","3763","ladder",,"2017-03-29 16:56:56","31679"
"A3KECQ3YIW2I0F","cs_wg_v3_poss_real1","3RUIQRXJBBPXRRNL0WRJFGA75EKLLT","3","0","STRUCTURE","10","5","1","2227","STRUCTURE","10","2017-03-29 16:56:56","31680"
"A21UA6O7ZFAIQJ","cs_wg_v3_poss_real1","3YT88D1N08Z5RHFE9QBI4U3BGSP3KV","3","0","FOOTBALL","10","5","0","2093","FOOTBALL","10","2017-03-29 16:56:57","31681"
"A142ZRU284W9O","cs_wg_v3_poss_real1","3QBD8R3Z21K9Z4JX7W8ULGCQEXUO4K","12","0","STRUCTURE","0","5","1","760","STRUCTURE","0","2017-03-29 16:56:59","31682"
"A3TYA2ATHN50AW","cs_wg_v3_poss_real1","31LVTDXBL7B8UPIY5GOF1SJ6B69LRJ","4","1","MACHINE","5","5","1","2208","machine","5","2017-03-29 16:57:00","31683"
"A3F8G26PENQ6EO","cs_wg_v3_poss_real1","3VNL7UK1XFKZACLUNUQC6UF42VKTFZ","4","0","KEYBOARD","10","5","0","1708","keyboard","10","2017-03-29 16:57:05","31684"
"A142ZRU284W9O","cs_wg_v3_poss_real1","3QBD8R3Z21K9Z4JX7W8ULGCQEXUO4K","13","0","UMBRELLA","10","5","1","381","UMBRELLA","10","2017-03-29 16:57:07","31685"
"AD1WGUMVD6KED","cs_wg_v3_poss_real1","36U2A8VAG1067KC2YB48UOZOPTJYKV","4","0","BASKET","0","5","1","6659","basket","0","2017-03-29 16:57:09","31686"
"A3PIIKN7MTJ3O7","cs_wg_v3_poss_real1","3HHRAGRYX86AWAP9OR4L2ON60P8O9G","2","0","WEDDING","10","5","0","2240","wedding","10","2017-03-29 16:57:10","31687"
"A3KECQ3YIW2I0F","cs_wg_v3_poss_real1","3RUIQRXJBBPXRRNL0WRJFGA75EKLLT","4","0","DOORWAY","10","5","1","2061","DOORWAY","10","2017-03-29 16:57:10","31688"
"A30V0XGG1XNYI7","cs_wg_v3_poss_real1","3TOK3KHVJTJ6IR1G9U61OSW05ZKO74","2","0","KEYBOARD","10","5","1","2562","KEYBOARD","10","2017-03-29 16:57:11","31689"
"A21UA6O7ZFAIQJ","cs_wg_v3_poss_real1","3YT88D1N08Z5RHFE9QBI4U3BGSP3KV","4","1","DOORWAY","5","5","1","2880","DOORWAY",,"2017-03-29 16:57:12","31690"
"A3TYA2ATHN50AW","cs_wg_v3_poss_real1","31LVTDXBL7B8UPIY5GOF1SJ6B69LRJ","5","1","MACHINE","5","5","1","1707","machine","5","2017-03-29 16:57:13","31691"
"A142ZRU284W9O","cs_wg_v3_poss_real1","3QBD8R3Z21K9Z4JX7W8ULGCQEXUO4K","14","0","STRUCTURE","0","5","1","3380","STRUCTURE","0","2017-03-29 16:57:17","31692"
"AD1WGUMVD6KED","cs_wg_v3_poss_real1","36U2A8VAG1067KC2YB48UOZOPTJYKV","5","0","LADDER","10","5","0","2425","ladder","10","2017-03-29 16:57:19","31693"
"A3F8G26PENQ6EO","cs_wg_v3_poss_real1","3VNL7UK1XFKZACLUNUQC6UF42VKTFZ","5","0","HELICOPTER","0","5","0","1644","helicopter","0","2017-03-29 16:57:19","31694"
"A3PG5AKYG7QW2","cs_wg_v3_poss_real1","3EICBYG644XYTX5FKYM7WI7S7G1JC9","0","0","WEDDING","0","5","0","5659","wedding","0","2017-03-29 16:57:20","31695"
"A3PIIKN7MTJ3O7","cs_wg_v3_poss_real1","3HHRAGRYX86AWAP9OR4L2ON60P8O9G","3","0","COMMUNITY","0","5","1","2289","community","0","2017-03-29 16:57:22","31696"
"A3KECQ3YIW2I0F","cs_wg_v3_poss_real1","3RUIQRXJBBPXRRNL0WRJFGA75EKLLT","5","0","KEYBOARD","0","5","1","2268","KEYBOARD","0","2017-03-29 16:57:22","31697"
"A142ZRU284W9O","cs_wg_v3_poss_real1","3QBD8R3Z21K9Z4JX7W8ULGCQEXUO4K","15","0","KEYBOARD","10","5","1","655","KEYBOARD","10","2017-03-29 16:57:25","31698"
"A32432Z96ADY84","cs_wg_v3_poss_real1","3JCG6DTRV3RJ9LJBK67BDO8VPQUQQC","0","0","HELICOPTER","0","5","0","11633","helicopter","0","2017-03-29 16:57:26","31699"
"A30V0XGG1XNYI7","cs_wg_v3_poss_real1","3TOK3KHVJTJ6IR1G9U61OSW05ZKO74","3","1","SUNLIGHT","5","5","1","1987","SUNLIGHT","0","2017-03-29 16:57:27","31700"
"A3TYA2ATHN50AW","cs_wg_v3_poss_real1","31LVTDXBL7B8UPIY5GOF1SJ6B69LRJ","6","0","UMBRELLA","0","5","0","1755","umbrella","5","2017-03-29 16:57:28","31701"
"AD1WGUMVD6KED","cs_wg_v3_poss_real1","36U2A8VAG1067KC2YB48UOZOPTJYKV","6","1","STRUCTURE","5","5","1","3907","structure",,"2017-03-29 16:57:30","31702"
"A3PIIKN7MTJ3O7","cs_wg_v3_poss_real1","3HHRAGRYX86AWAP9OR4L2ON60P8O9G","4","1","SUNLIGHT","5","5","1","2174","sunlight",,"2017-03-29 16:57:32","31703"
"A3F8G26PENQ6EO","cs_wg_v3_poss_real1","3VNL7UK1XFKZACLUNUQC6UF42VKTFZ","6","0","BOOKSHELF","10","5","1","2167","bookshelf ","10","2017-03-29 16:57:33","31704"
"A142ZRU284W9O","cs_wg_v3_poss_real1","3QBD8R3Z21K9Z4JX7W8ULGCQEXUO4K","16","0","LADDER","10","5","1","3551","LADDER","10","2017-03-29 16:57:36","31705"
"A3KECQ3YIW2I0F","cs_wg_v3_poss_real1","3RUIQRXJBBPXRRNL0WRJFGA75EKLLT","6","0","UMBRELLA","10","5","1","2041","UMBRELLA","10","2017-03-29 16:57:37","31706"
"A49KQWKKE9TM9
","cs_wg_v3_poss_real1","3PIWWX1FJJ7L1BBLUQ3TJMKNX0AJJN","0","0","BOOKSHELF","0","5","1","9075","Bookshelf",,"2017-03-29 16:57:37","31707"
"AD1WGUMVD6KED","cs_wg_v3_poss_real1","36U2A8VAG1067KC2YB48UOZOPTJYKV","7","0","WEDDING","0","5","1","3085","wedding","0","2017-03-29 16:57:41","31708"
"A3PG5AKYG7QW2","cs_wg_v3_poss_real1","3EICBYG644XYTX5FKYM7WI7S7G1JC9","1","1","UMBRELLA","5","5","1","2707","umbrella",,"2017-03-29 16:57:42","31709"
"A30V0XGG1XNYI7","cs_wg_v3_poss_real1","3TOK3KHVJTJ6IR1G9U61OSW05ZKO74","4","1","STOMACH","5","5","1","2460","STOMACH","0","2017-03-29 16:57:42","31710"
"A3F8G26PENQ6EO","cs_wg_v3_poss_real1","3VNL7UK1XFKZACLUNUQC6UF42VKTFZ","7","1","DOORWAY","5","5","1","2004","doorway",,"2017-03-29 16:57:43","31711"
"A32432Z96ADY84","cs_wg_v3_poss_real1","3JCG6DTRV3RJ9LJBK67BDO8VPQUQQC","1","0","STOMACH","10","5","1","4478","stomach","10","2017-03-29 16:57:43","31712"
"A3PIIKN7MTJ3O7","cs_wg_v3_poss_real1","3HHRAGRYX86AWAP9OR4L2ON60P8O9G","5","0","UMBRELLA","0","5","0","2499","umbrella","0","2017-03-29 16:57:44","31713"
"A3QJJR5Y3XE92N","cs_wg_v3_poss_real1","3SBEHTYCWN4F1PMEY8JWH8KBXPUYIK","0","1","KEYBOARD","5","5","1","7681","keyboard",,"2017-03-29 16:57:44","31714"
"A142ZRU284W9O","cs_wg_v3_poss_real1","3QBD8R3Z21K9Z4JX7W8ULGCQEXUO4K","17","1","FOOTBALL","5","5","1","318","FOOTBALL","5","2017-03-29 16:57:45","31715"
"A3TYA2ATHN50AW","cs_wg_v3_poss_real1","31LVTDXBL7B8UPIY5GOF1SJ6B69LRJ","7","0","STOMACH","10","5","0","2149","stomach","10","2017-03-29 16:57:45","31716"
"A31PCN2LP7DP8I
","cs_wg_v3_poss_real1","3LWJHTCVCCNMIWT26QWH1P4HIOLQFI","0","1","LADDER","5","5","1","5862","Ladder",,"2017-03-29 16:57:48","31717"
"A3KECQ3YIW2I0F","cs_wg_v3_poss_real1","3RUIQRXJBBPXRRNL0WRJFGA75EKLLT","7","0","WEDDING","0","5","0","2861","WEDDING","0","2017-03-29 16:57:51","31718"
"A142ZRU284W9O","cs_wg_v3_poss_real1","3QBD8R3Z21K9Z4JX7W8ULGCQEXUO4K","18","0","TRAFFIC","0","5","1","303","TRAFFIC","0","2017-03-29 16:57:51","31719"
"AD1WGUMVD6KED","cs_wg_v3_poss_real1","36U2A8VAG1067KC2YB48UOZOPTJYKV","8","0","STOMACH","10","5","1","3157","stomach","10","2017-03-29 16:57:52","31720"
"A30V0XGG1XNYI7","cs_wg_v3_poss_real1","3TOK3KHVJTJ6IR1G9U61OSW05ZKO74","5","0","TRAFFIC","10","5","0","2507","TRAFFIC","10","2017-03-29 16:57:53","31721"
"A3PIIKN7MTJ3O7","cs_wg_v3_poss_real1","3HHRAGRYX86AWAP9OR4L2ON60P8O9G","6","1","LADDER","5","5","1","1945","ladder",,"2017-03-29 16:57:53","31722"
"A2HHIHKXZPFEI6","cs_wg_v3_poss_real1","30LB5CDZNCB4ZKF3Q4W9PBTHHPI0ZJ","0","0","MACHINE","0","5","0","6894","machine ","0","2017-03-29 16:57:54","31723"
"A1FHH3XEFEQYV7","cs_wg_v3_poss_real1","33CID57104UGBNXWUQNJJUGQ5SU3LY","0","1","COMMUNITY","5","5","1","7300","community",,"2017-03-29 16:57:56","31724"
"A3F8G26PENQ6EO","cs_wg_v3_poss_real1","3VNL7UK1XFKZACLUNUQC6UF42VKTFZ","8","0","STOMACH","0","5","0","3369","stomach","0","2017-03-29 16:57:57","31725"
"A3TYA2ATHN50AW","cs_wg_v3_poss_real1","31LVTDXBL7B8UPIY5GOF1SJ6B69LRJ","8","0","KEYBOARD","0","5","0","1376","keyboard","0","2017-03-29 16:57:57","31726"
"A32432Z96ADY84","cs_wg_v3_poss_real1","3JCG6DTRV3RJ9LJBK67BDO8VPQUQQC","2","0","HELICOPTER","0","5","1","3209","helicopter","0","2017-03-29 16:57:58","31727"
"A142ZRU284W9O","cs_wg_v3_poss_real1","3QBD8R3Z21K9Z4JX7W8ULGCQEXUO4K","19","0","TRAFFIC","0","5","1","320","TRAFFIC","0","2017-03-29 16:57:58","31728"
"A3PG5AKYG7QW2","cs_wg_v3_poss_real1","3EICBYG644XYTX5FKYM7WI7S7G1JC9","2","0","KEYBOARD","0","5","1","5627","keyboard","0","2017-03-29 16:57:59","31729"
"A3KECQ3YIW2I0F","cs_wg_v3_poss_real1","3RUIQRXJBBPXRRNL0WRJFGA75EKLLT","8","0","MACHINE","0","5","0","1989","MACHINE","0","2017-03-29 16:58:01","31730"
" A1FYTTGF0QACU9","cs_wg_v3_poss_real1","3NLZY2D53PQ8IO3YS1ZFW291FK7QLN","0","1","STOMACH","5","5","1","3725","stomach",,"2017-03-29 16:58:02","31731"
"AD1WGUMVD6KED","cs_wg_v3_poss_real1","36U2A8VAG1067KC2YB48UOZOPTJYKV","9","0","LADDER","10","5","0","3389","ladder","10","2017-03-29 16:58:03","31732"
"A30V0XGG1XNYI7","cs_wg_v3_poss_real1","3TOK3KHVJTJ6IR1G9U61OSW05ZKO74","6","0","TRAFFIC","10","5","0","758","TRAFFIC","10","2017-03-29 16:58:03","31733"
"A142ZRU284W9O","cs_wg_v3_poss_real1","3QBD8R3Z21K9Z4JX7W8ULGCQEXUO4K","20","0","TRAFFIC","0","5","1","423","TRAFFIC","0","2017-03-29 16:58:05","31734"
"A3PIIKN7MTJ3O7","cs_wg_v3_poss_real1","3HHRAGRYX86AWAP9OR4L2ON60P8O9G","7","0","WEDDING","10","5","0","1897","wedding","10","2017-03-29 16:58:05","31735"
"A3F8G26PENQ6EO","cs_wg_v3_poss_real1","3VNL7UK1XFKZACLUNUQC6UF42VKTFZ","9","1","COMMUNITY","5","5","1","1521","community","0","2017-03-29 16:58:08","31736"
"A3QJJR5Y3XE92N","cs_wg_v3_poss_real1","3SBEHTYCWN4F1PMEY8JWH8KBXPUYIK","1","1","BOOKSHELF","5","5","1","9123","bookshelf",,"2017-03-29 16:58:08","31737"
"A31PCN2LP7DP8I
","cs_wg_v3_poss_real1","3LWJHTCVCCNMIWT26QWH1P4HIOLQFI","1","0","FOOTBALL","0","5","0","5422","Football","0","2017-03-29 16:58:09","31738"
"A32432Z96ADY84","cs_wg_v3_poss_real1","3JCG6DTRV3RJ9LJBK67BDO8VPQUQQC","3","0","UMBRELLA","10","5","0","3241","umbrella","10","2017-03-29 16:58:09","31739"
"A3TYA2ATHN50AW","cs_wg_v3_poss_real1","31LVTDXBL7B8UPIY5GOF1SJ6B69LRJ","9","0","HELICOPTER","0","5","0","1391","helicopter","0","2017-03-29 16:58:10","31740"
"A3KECQ3YIW2I0F","cs_wg_v3_poss_real1","3RUIQRXJBBPXRRNL0WRJFGA75EKLLT","9","1","TRAFFIC","5","5","1","2613","TRAFFIC",,"2017-03-29 16:58:11","31741"
"A142ZRU284W9O","cs_wg_v3_poss_real1","3QBD8R3Z21K9Z4JX7W8ULGCQEXUO4K","21","1","FOOTBALL","5","5","1","478","FOOTBALL",,"2017-03-29 16:58:12","31742"
"A30V0XGG1XNYI7","cs_wg_v3_poss_real1","3TOK3KHVJTJ6IR1G9U61OSW05ZKO74","7","1","FOOTBALL","5","5","1","1597","FOOTBALL",,"2017-03-29 16:58:12","31743"
"A3PG5AKYG7QW2","cs_wg_v3_poss_real1","3EICBYG644XYTX5FKYM7WI7S7G1JC9","3","0","WEDDING","0","5","1","3067","wedding","0","2017-03-29 16:58:13","31744"
"A1FHH3XEFEQYV7","cs_wg_v3_poss_real1","33CID57104UGBNXWUQNJJUGQ5SU3LY","1","0","BOOKSHELF","0","5","0","4234","bookshelf","0","2017-03-29 16:58:15","31745"
"AD1WGUMVD6KED","cs_wg_v3_poss_real1","36U2A8VAG1067KC2YB48UOZOPTJYKV","10","0","HELICOPTER","0","5","1","2631","helicopter","0","2017-03-29 16:58:15","31746"
"A3PIIKN7MTJ3O7","cs_wg_v3_poss_real1","3HHRAGRYX86AWAP9OR4L2ON60P8O9G","8","0","WEDDING","10","5","0","2769","wedding","10","2017-03-29 16:58:16","31747"
"A3F8G26PENQ6EO","cs_wg_v3_poss_real1","3VNL7UK1XFKZACLUNUQC6UF42VKTFZ","10","1","COMMUNITY","5","5","1","1716","community","5","2017-03-29 16:58:20","31748"
"A30V0XGG1XNYI7","cs_wg_v3_poss_real1","3TOK3KHVJTJ6IR1G9U61OSW05ZKO74","8","1","STOMACH","5","5","1","1320","STOMACH",,"2017-03-29 16:58:21","31749"
"A142ZRU284W9O","cs_wg_v3_poss_real1","3QBD8R3Z21K9Z4JX7W8ULGCQEXUO4K","22","1","HELICOPTER","5","5","1","342","HELICOPTER",,"2017-03-29 16:58:21","31750"
"A3QJJR5Y3XE92N","cs_wg_v3_poss_real1","3SBEHTYCWN4F1PMEY8JWH8KBXPUYIK","2","0","WEDDING","10","5","0","3915","wedding","10","2017-03-29 16:58:21","31751"
"A32432Z96ADY84","cs_wg_v3_poss_real1","3JCG6DTRV3RJ9LJBK67BDO8VPQUQQC","4","0","STOMACH","10","5","0","3758","stomach","10","2017-03-29 16:58:21","31752"
"A3TYA2ATHN50AW","cs_wg_v3_poss_real1","31LVTDXBL7B8UPIY5GOF1SJ6B69LRJ","10","0","BASKET","10","5","1","1563","basket","10","2017-03-29 16:58:22","31753"
"AD1WGUMVD6KED","cs_wg_v3_poss_real1","36U2A8VAG1067KC2YB48UOZOPTJYKV","11","1","TRAFFIC","5","5","1","1848","traffic",,"2017-03-29 16:58:25","31754"
"A3PG5AKYG7QW2","cs_wg_v3_poss_real1","3EICBYG644XYTX5FKYM7WI7S7G1JC9","4","1","MACHINE","5","5","1","1497","machine",,"2017-03-29 16:58:25","31755"
"A31PCN2LP7DP8I
","cs_wg_v3_poss_real1","3LWJHTCVCCNMIWT26QWH1P4HIOLQFI","2","0","DOORWAY","10","5","0","5579","Doorway","10","2017-03-29 16:58:27","31756"
"A3PIIKN7MTJ3O7","cs_wg_v3_poss_real1","3HHRAGRYX86AWAP9OR4L2ON60P8O9G","9","1","HELICOPTER","5","5","1","2284","helicopter",,"2017-03-29 16:58:27","31757"
"A1FHH3XEFEQYV7","cs_wg_v3_poss_real1","33CID57104UGBNXWUQNJJUGQ5SU3LY","2","0","UMBRELLA","0","5","0","2393","umbrella","0","2017-03-29 16:58:28","31758"
"A3KECQ3YIW2I0F","cs_wg_v3_poss_real1","3RUIQRXJBBPXRRNL0WRJFGA75EKLLT","10","0","STOMACH","0","5","0","4404","STOMACH","0","2017-03-29 16:58:28","31759"
"A142ZRU284W9O","cs_wg_v3_poss_real1","3QBD8R3Z21K9Z4JX7W8ULGCQEXUO4K","23","1","HELICOPTER","5","5","1","1079","HELICOPTER",,"2017-03-29 16:58:29","31760"
"AS30B1NLM2G4V","cs_wg_v3_poss_real1","3P1L2B7AD1Q5XCQIDO7B7XE10JPLOA","0","0","FOOTBALL","0","5","0","10116","football","0","2017-03-29 16:58:31","31761"
"A30V0XGG1XNYI7","cs_wg_v3_poss_real1","3TOK3KHVJTJ6IR1G9U61OSW05ZKO74","9","0","MACHINE","0","5","0","1886","MACHINE",,"2017-03-29 16:58:31","31762"
"A3F8G26PENQ6EO","cs_wg_v3_poss_real1","3VNL7UK1XFKZACLUNUQC6UF42VKTFZ","11","1","UMBRELLA","5","5","1","978","umbrella","0","2017-03-29 16:58:32","31763"
"A2HHIHKXZPFEI6","cs_wg_v3_poss_real1","30LB5CDZNCB4ZKF3Q4W9PBTHHPI0ZJ","1","1","SUNLIGHT","5","5","1","12624","sunlight","0","2017-03-29 16:58:32","31764"
"A3TYA2ATHN50AW","cs_wg_v3_poss_real1","31LVTDXBL7B8UPIY5GOF1SJ6B69LRJ","11","0","UMBRELLA","0","5","1","1595","umbrella","0","2017-03-29 16:58:33","31765"
"A3QJJR5Y3XE92N","cs_wg_v3_poss_real1","3SBEHTYCWN4F1PMEY8JWH8KBXPUYIK","3","0","UMBRELLA","0","5","0","2548","umbrella","0","2017-03-29 16:58:34","31766"
" A1FYTTGF0QACU9","cs_wg_v3_poss_real1","3NLZY2D53PQ8IO3YS1ZFW291FK7QLN","1","0","STRUCTURE","0","5","1","10457","structure","0","2017-03-29 16:58:35","31767"
"A3PG5AKYG7QW2","cs_wg_v3_poss_real1","3EICBYG644XYTX5FKYM7WI7S7G1JC9","5","1","UMBRELLA","5","5","1","1668","umbrella",,"2017-03-29 16:58:36","31768"
"AD1WGUMVD6KED","cs_wg_v3_poss_real1","36U2A8VAG1067KC2YB48UOZOPTJYKV","12","0","WEDDING","0","5","1","2829","wedding","0","2017-03-29 16:58:37","31769"
"A142ZRU284W9O","cs_wg_v3_poss_real1","3QBD8R3Z21K9Z4JX7W8ULGCQEXUO4K","24","0","MACHINE","0","5","1","513","MACHINE","0","2017-03-29 16:58:37","31770"
"A3PIIKN7MTJ3O7","cs_wg_v3_poss_real1","3HHRAGRYX86AWAP9OR4L2ON60P8O9G","10","0","BASKET","10","5","0","1685","basket","10","2017-03-29 16:58:37","31771"
"A32432Z96ADY84","cs_wg_v3_poss_real1","3JCG6DTRV3RJ9LJBK67BDO8VPQUQQC","5","1","LADDER","5","5","1","2160","ladder",,"2017-03-29 16:58:38","31772"
"A1MV2B8I02QVOE","cs_wg_v3_poss_real1","39LOEL67OS6LWGDD01EFEPUKLSV38C","0","0","DOORWAY","10","5","1","3487","doorway","10","2017-03-29 16:58:39","31773"
"A31PCN2LP7DP8I
","cs_wg_v3_poss_real1","3LWJHTCVCCNMIWT26QWH1P4HIOLQFI","3","1","WEDDING","5","5","1","4571","Wedding ",,"2017-03-29 16:58:40","31774"
"A3KECQ3YIW2I0F","cs_wg_v3_poss_real1","3RUIQRXJBBPXRRNL0WRJFGA75EKLLT","11","0","STOMACH","0","5","1","3517","STOMACH","0","2017-03-29 16:58:41","31775"
"A30V0XGG1XNYI7","cs_wg_v3_poss_real1","3TOK3KHVJTJ6IR1G9U61OSW05ZKO74","10","0","LADDER","10","5","0","3120","LADDER","10","2017-03-29 16:58:41","31776"
"A1FHH3XEFEQYV7","cs_wg_v3_poss_real1","33CID57104UGBNXWUQNJJUGQ5SU3LY","3","1","LADDER","5","5","1","5642","LADDER",,"2017-03-29 16:58:43","31777"
"A3F8G26PENQ6EO","cs_wg_v3_poss_real1","3VNL7UK1XFKZACLUNUQC6UF42VKTFZ","12","1","COMMUNITY","5","5","1","1954","community",,"2017-03-29 16:58:44","31778"
"A142ZRU284W9O","cs_wg_v3_poss_real1","3QBD8R3Z21K9Z4JX7W8ULGCQEXUO4K","25","1","COMMUNITY","5","5","1","308","COMMUNITY",,"2017-03-29 16:58:45","31779"
"AD1WGUMVD6KED","cs_wg_v3_poss_real1","36U2A8VAG1067KC2YB48UOZOPTJYKV","13","0","DOORWAY","0","5","1","1718","doorway","0","2017-03-29 16:58:45","31780"
"A3QJJR5Y3XE92N","cs_wg_v3_poss_real1","3SBEHTYCWN4F1PMEY8JWH8KBXPUYIK","4","0","DOORWAY","10","5","0","2541","doorway","10","2017-03-29 16:58:46","31781"
"A3TYA2ATHN50AW","cs_wg_v3_poss_real1","31LVTDXBL7B8UPIY5GOF1SJ6B69LRJ","12","0","KEYBOARD","0","5","1","2813","keyboard","0","2017-03-29 16:58:47","31782"
"A3PIIKN7MTJ3O7","cs_wg_v3_poss_real1","3HHRAGRYX86AWAP9OR4L2ON60P8O9G","11","0","KEYBOARD","10","5","1","2249","keyboard","10","2017-03-29 16:58:48","31783"
"A30V0XGG1XNYI7","cs_wg_v3_poss_real1","3TOK3KHVJTJ6IR1G9U61OSW05ZKO74","11","1","UMBRELLA","5","5","1","1797","UMBRELLA",,"2017-03-29 16:58:49","31784"
"A32432Z96ADY84","cs_wg_v3_poss_real1","3JCG6DTRV3RJ9LJBK67BDO8VPQUQQC","6","0","SUNLIGHT","0","5","1","2864","sunlight","0","2017-03-29 16:58:50","31785"
"A3K4MDM191NKF6","cs_wg_v3_poss_real1","3ATPCQ38J8B0V73GMKRJ0AWSKHPYAG","0","0","LADDER","10","5","0","3845","ladder","10","2017-03-29 16:58:52","31786"
"A3KECQ3YIW2I0F","cs_wg_v3_poss_real1","3RUIQRXJBBPXRRNL0WRJFGA75EKLLT","12","1","LADDER","5","5","1","3177","LADDER","0","2017-03-29 16:58:52","31787"
"A3PG5AKYG7QW2","cs_wg_v3_poss_real1","3EICBYG644XYTX5FKYM7WI7S7G1JC9","6","0","KEYBOARD","0","5","1","3136","keyboard","0","2017-03-29 16:58:52","31788"
"A142ZRU284W9O","cs_wg_v3_poss_real1","3QBD8R3Z21K9Z4JX7W8ULGCQEXUO4K","26","1","STOMACH","5","5","1","329","STOMACH",,"2017-03-29 16:58:53","31789"
" A1FYTTGF0QACU9","cs_wg_v3_poss_real1","3NLZY2D53PQ8IO3YS1ZFW291FK7QLN","2","1","KEYBOARD","5","5","1","3111","keyboard",,"2017-03-29 16:58:53","31790"
"A31PCN2LP7DP8I
","cs_wg_v3_poss_real1","3LWJHTCVCCNMIWT26QWH1P4HIOLQFI","4","0","BASKET","0","5","0","2777","Basket","0","2017-03-29 16:58:53","31791"
"AY6HFCSWZJ9WD","cs_wg_v3_poss_real1","3Q5C1WP23M26ZVGWFZTTEC5WLIG15G","0","0","BOOKSHELF","10","5","1","5941","bookshelf","10","2017-03-29 16:58:54","31792"
"A3F8G26PENQ6EO","cs_wg_v3_poss_real1","3VNL7UK1XFKZACLUNUQC6UF42VKTFZ","13","0","STOMACH","0","5","1","2073","stomach","0","2017-03-29 16:58:54","31793"
"A2HHIHKXZPFEI6","cs_wg_v3_poss_real1","30LB5CDZNCB4ZKF3Q4W9PBTHHPI0ZJ","2","0","LADDER","10","5","0","4852","ladder","10","2017-03-29 16:58:54","31794"
"AD1WGUMVD6KED","cs_wg_v3_poss_real1","36U2A8VAG1067KC2YB48UOZOPTJYKV","14","0","COMMUNITY","10","5","1","1905","community","10","2017-03-29 16:58:55","31795"
"A1FHH3XEFEQYV7","cs_wg_v3_poss_real1","33CID57104UGBNXWUQNJJUGQ5SU3LY","4","0","WEDDING","0","5","1","4800","WEDDING",,"2017-03-29 16:58:56","31796"
"AS30B1NLM2G4V","cs_wg_v3_poss_real1","3P1L2B7AD1Q5XCQIDO7B7XE10JPLOA","1","1","TRAFFIC","5","5","1","4133","traffic",,"2017-03-29 16:58:56","31797"
"A3QJJR5Y3XE92N","cs_wg_v3_poss_real1","3SBEHTYCWN4F1PMEY8JWH8KBXPUYIK","5","0","WEDDING","10","5","0","2156","wedding","10","2017-03-29 16:58:56","31798"
"A1N4AZ1QXPOPXH","cs_wg_v3_poss_real1","3VSOLARPKBALALWN5TKTELPV5YD391","0","1","BASKET","5","5","1","3081","basket",,"2017-03-29 16:58:58","31799"
"A3TYA2ATHN50AW","cs_wg_v3_poss_real1","31LVTDXBL7B8UPIY5GOF1SJ6B69LRJ","13","0","FOOTBALL","10","5","0","1703","football","10","2017-03-29 16:58:58","31800"
"A30V0XGG1XNYI7","cs_wg_v3_poss_real1","3TOK3KHVJTJ6IR1G9U61OSW05ZKO74","12","0","COMMUNITY","10","5","0","3652","COMMUNITY","10","2017-03-29 16:58:59","31801"
"A142ZRU284W9O","cs_wg_v3_poss_real1","3QBD8R3Z21K9Z4JX7W8ULGCQEXUO4K","27","1","STOMACH","5","5","1","423","STOMACH",,"2017-03-29 16:59:00","31802"
"A3PIIKN7MTJ3O7","cs_wg_v3_poss_real1","3HHRAGRYX86AWAP9OR4L2ON60P8O9G","12","0","BOOKSHELF","0","5","1","1748","bookshelf","0","2017-03-29 16:59:00","31803"
"A32432Z96ADY84","cs_wg_v3_poss_real1","3JCG6DTRV3RJ9LJBK67BDO8VPQUQQC","7","1","DOORWAY","5","5","1","1910","doorway",,"2017-03-29 16:59:01","31804"
"A1MV2B8I02QVOE","cs_wg_v3_poss_real1","39LOEL67OS6LWGDD01EFEPUKLSV38C","1","0","FOOTBALL","0","5","1","3755","football","0","2017-03-29 16:59:01","31805"
"A3PG5AKYG7QW2","cs_wg_v3_poss_real1","3EICBYG644XYTX5FKYM7WI7S7G1JC9","7","1","TRAFFIC","5","5","1","1670","traffic",,"2017-03-29 16:59:02","31806"
"A3F8G26PENQ6EO","cs_wg_v3_poss_real1","3VNL7UK1XFKZACLUNUQC6UF42VKTFZ","14","1","COMMUNITY","5","5","1","1470","community",,"2017-03-29 16:59:03","31807"
"AD1WGUMVD6KED","cs_wg_v3_poss_real1","36U2A8VAG1067KC2YB48UOZOPTJYKV","15","1","TRAFFIC","5","5","1","1386","traffic",,"2017-03-29 16:59:04","31808"
"A1FHH3XEFEQYV7","cs_wg_v3_poss_real1","33CID57104UGBNXWUQNJJUGQ5SU3LY","5","0","WEDDING","0","5","1","3015","WEDDING",,"2017-03-29 16:59:05","31809"
"A142ZRU284W9O","cs_wg_v3_poss_real1","3QBD8R3Z21K9Z4JX7W8ULGCQEXUO4K","28","0","BASKET","10","5","1","169","BASKET","10","2017-03-29 16:59:06","31810"
"A3KECQ3YIW2I0F","cs_wg_v3_poss_real1","3RUIQRXJBBPXRRNL0WRJFGA75EKLLT","13","1","TRAFFIC","5","5","1","2563","TRAFFIC",,"2017-03-29 16:59:06","31811"
"A30V0XGG1XNYI7","cs_wg_v3_poss_real1","3TOK3KHVJTJ6IR1G9U61OSW05ZKO74","13","1","STOMACH","5","5","1","1285","STOMACH",,"2017-03-29 16:59:08","31812"
"AY6HFCSWZJ9WD","cs_wg_v3_poss_real1","3Q5C1WP23M26ZVGWFZTTEC5WLIG15G","1","0","BASKET","10","5","0","4315","basket","10","2017-03-29 16:59:09","31813"
"A3PIIKN7MTJ3O7","cs_wg_v3_poss_real1","3HHRAGRYX86AWAP9OR4L2ON60P8O9G","13","1","HELICOPTER","5","5","1","1694","helicopter",,"2017-03-29 16:59:10","31814"
"A32432Z96ADY84","cs_wg_v3_poss_real1","3JCG6DTRV3RJ9LJBK67BDO8VPQUQQC","8","1","KEYBOARD","5","5","1","1550","keyboard",,"2017-03-29 16:59:11","31815"
"A1N4AZ1QXPOPXH","cs_wg_v3_poss_real1","3VSOLARPKBALALWN5TKTELPV5YD391","1","0","HELICOPTER","0","5","0","2642","helicopter","0","2017-03-29 16:59:11","31816"
"A20NITCOBY4775","cs_wg_v3_poss_real1","30JNVC0OR9L6WSK81GKH4AGUY3YQHG","0","1","LADDER","5","5","1","32670","LADDER ",,"2017-03-29 16:59:11","31817"
"A3TYA2ATHN50AW","cs_wg_v3_poss_real1","31LVTDXBL7B8UPIY5GOF1SJ6B69LRJ","14","0","BOOKSHELF","10","5","0","2812","bookshelf","10","2017-03-29 16:59:11","31818"
"A3K4MDM191NKF6","cs_wg_v3_poss_real1","3ATPCQ38J8B0V73GMKRJ0AWSKHPYAG","1","1","FOOTBALL","5","5","1","8324","football",,"2017-03-29 16:59:11","31819"
"A142ZRU284W9O","cs_wg_v3_poss_real1","3QBD8R3Z21K9Z4JX7W8ULGCQEXUO4K","29","0","TRAFFIC","0","5","1","481","TRAFFIC","0","2017-03-29 16:59:13","31820"
"A3QJJR5Y3XE92N","cs_wg_v3_poss_real1","3SBEHTYCWN4F1PMEY8JWH8KBXPUYIK","6","0","HELICOPTER","0","5","0","1580","helicopter","0","2017-03-29 16:59:13","31821"
"A31PCN2LP7DP8I
","cs_wg_v3_poss_real1","3LWJHTCVCCNMIWT26QWH1P4HIOLQFI","5","0","KEYBOARD","0","5","0","2354","Keyboard","0","2017-03-29 16:59:13","31822"
"A30V0XGG1XNYI7","cs_wg_v3_poss_real1","3TOK3KHVJTJ6IR1G9U61OSW05ZKO74","14","1","FOOTBALL","5","5","1","1274","FOOTBALL",,"2017-03-29 16:59:15","31823"
"AD1WGUMVD6KED","cs_wg_v3_poss_real1","36U2A8VAG1067KC2YB48UOZOPTJYKV","16","0","DOORWAY","0","5","0","3266","doorway","0","2017-03-29 16:59:15","31824"
"A3F8G26PENQ6EO","cs_wg_v3_poss_real1","3VNL7UK1XFKZACLUNUQC6UF42VKTFZ","15","1","FOOTBALL","5","5","1","1261","football",,"2017-03-29 16:59:15","31825"
"A3KECQ3YIW2I0F","cs_wg_v3_poss_real1","3RUIQRXJBBPXRRNL0WRJFGA75EKLLT","14","1","BASKET","5","5","1","1908","BASKET",,"2017-03-29 16:59:15","31826"
"AS30B1NLM2G4V","cs_wg_v3_poss_real1","3P1L2B7AD1Q5XCQIDO7B7XE10JPLOA","2","0","BASKET","0","5","1","4835","Basket","0
0","2017-03-29 16:59:16","31827"
" A1FYTTGF0QACU9","cs_wg_v3_poss_real1","3NLZY2D53PQ8IO3YS1ZFW291FK7QLN","3","0","BOOKSHELF","0","5","0","4030","bookshelve","0","2017-03-29 16:59:16","31828"
"A1FHH3XEFEQYV7","cs_wg_v3_poss_real1","33CID57104UGBNXWUQNJJUGQ5SU3LY","6","1","KEYBOARD","5","5","1","4045","KEYBOARD",,"2017-03-29 16:59:16","31829"
"A142ZRU284W9O","cs_wg_v3_poss_real1","3QBD8R3Z21K9Z4JX7W8ULGCQEXUO4K","30","0","BASKET","10","5","1","48","BASKET","10","2017-03-29 16:59:19","31830"
"A3PG5AKYG7QW2","cs_wg_v3_poss_real1","3EICBYG644XYTX5FKYM7WI7S7G1JC9","8","0","STRUCTURE","10","5","0","3051","structure","10","2017-03-29 16:59:19","31831"
"A1MV2B8I02QVOE","cs_wg_v3_poss_real1","39LOEL67OS6LWGDD01EFEPUKLSV38C","2","0","TRAFFIC","10","5","0","4378","traffic","10
10","2017-03-29 16:59:19","31832"
"A2HHIHKXZPFEI6","cs_wg_v3_poss_real1","30LB5CDZNCB4ZKF3Q4W9PBTHHPI0ZJ","3","0","COMMUNITY","10","5","0","2929","community","10","2017-03-29 16:59:19","31833"
"A32432Z96ADY84","cs_wg_v3_poss_real1","3JCG6DTRV3RJ9LJBK67BDO8VPQUQQC","9","1","WEDDING","5","5","1","1488","wedding",,"2017-03-29 16:59:20","31834"
"AY6HFCSWZJ9WD","cs_wg_v3_poss_real1","3Q5C1WP23M26ZVGWFZTTEC5WLIG15G","2","0","MACHINE","0","5","0","1453","machine","0","2017-03-29 16:59:20","31835"
"A1N4AZ1QXPOPXH","cs_wg_v3_poss_real1","3VSOLARPKBALALWN5TKTELPV5YD391","2","1","COMMUNITY","5","5","1","2715","community",,"2017-03-29 16:59:21","31836"
"A3PIIKN7MTJ3O7","cs_wg_v3_poss_real1","3HHRAGRYX86AWAP9OR4L2ON60P8O9G","14","0","MACHINE","0","5","0","1414","machine","0
0","2017-03-29 16:59:22","31837"
"A3TYA2ATHN50AW","cs_wg_v3_poss_real1","31LVTDXBL7B8UPIY5GOF1SJ6B69LRJ","15","1","WEDDING","5","5","1","2528","wedding",,"2017-03-29 16:59:23","31838"
"A3K4MDM191NKF6","cs_wg_v3_poss_real1","3ATPCQ38J8B0V73GMKRJ0AWSKHPYAG","2","0","STOMACH","10","5","0","2594","stomach","10","2017-03-29 16:59:23","31839"
"AD1WGUMVD6KED","cs_wg_v3_poss_real1","36U2A8VAG1067KC2YB48UOZOPTJYKV","17","0","DOORWAY","0","5","1","1883","doorway","0","2017-03-29 16:59:24","31840"
"A3F8G26PENQ6EO","cs_wg_v3_poss_real1","3VNL7UK1XFKZACLUNUQC6UF42VKTFZ","16","1","FOOTBALL","5","5","1","1628","football",,"2017-03-29 16:59:24","31841"
"A3KECQ3YIW2I0F","cs_wg_v3_poss_real1","3RUIQRXJBBPXRRNL0WRJFGA75EKLLT","15","0","WEDDING","0","5","1","2780","WEDDING","0","2017-03-29 16:59:25","31842"
"A3QJJR5Y3XE92N","cs_wg_v3_poss_real1","3SBEHTYCWN4F1PMEY8JWH8KBXPUYIK","7","0","WEDDING","10","5","0","2434","wedding","10","2017-03-29 16:59:25","31843"
"A142ZRU284W9O","cs_wg_v3_poss_real1","3QBD8R3Z21K9Z4JX7W8ULGCQEXUO4K","31","0","KEYBOARD","10","5","1","663","KEYBOARD","10","2017-03-29 16:59:25","31844"
"A31PCN2LP7DP8I
","cs_wg_v3_poss_real1","3LWJHTCVCCNMIWT26QWH1P4HIOLQFI","6","0","STOMACH","10","5","0","2919","Stomach","10","2017-03-29 16:59:26","31845"
"A30V0XGG1XNYI7","cs_wg_v3_poss_real1","3TOK3KHVJTJ6IR1G9U61OSW05ZKO74","15","0","LADDER","10","5","1","1421","LADDER1","10","2017-03-29 16:59:27","31846"
"AS30B1NLM2G4V","cs_wg_v3_poss_real1","3P1L2B7AD1Q5XCQIDO7B7XE10JPLOA","3","1","MACHINE","5","5","1","2142","machine",,"2017-03-29 16:59:28","31847"
"A3PG5AKYG7QW2","cs_wg_v3_poss_real1","3EICBYG644XYTX5FKYM7WI7S7G1JC9","9","1","MACHINE","5","5","1","1465","machine",,"2017-03-29 16:59:29","31848"
"A1FHH3XEFEQYV7","cs_wg_v3_poss_real1","33CID57104UGBNXWUQNJJUGQ5SU3LY","7","0","HELICOPTER","10","5","1","4395","HELICOPTER","10","2017-03-29 16:59:30","31849"
"AD1WGUMVD6KED","cs_wg_v3_poss_real1","36U2A8VAG1067KC2YB48UOZOPTJYKV","18","1","STRUCTURE","5","5","1","1420","structure",,"2017-03-29 16:59:31","31850"
"A1N4AZ1QXPOPXH","cs_wg_v3_poss_real1","3VSOLARPKBALALWN5TKTELPV5YD391","3","0","WEDDING","0","5","0","2167","wedding","0","2017-03-29 16:59:32","31851"
"A1MV2B8I02QVOE","cs_wg_v3_poss_real1","39LOEL67OS6LWGDD01EFEPUKLSV38C","3","1","KEYBOARD","5","5","1","2036","keyboard",,"2017-03-29 16:59:32","31852"
"A3PIIKN7MTJ3O7","cs_wg_v3_poss_real1","3HHRAGRYX86AWAP9OR4L2ON60P8O9G","15","0","BASKET","10","5","0","2993","basket","10","2017-03-29 16:59:33","31853"
"A3F8G26PENQ6EO","cs_wg_v3_poss_real1","3VNL7UK1XFKZACLUNUQC6UF42VKTFZ","17","1","UMBRELLA","5","5","1","1348","umbrella",,"2017-03-29 16:59:33","31854"
"A3TYA2ATHN50AW","cs_wg_v3_poss_real1","31LVTDXBL7B8UPIY5GOF1SJ6B69LRJ","16","0","DOORWAY","0","5","0","1443","doorway","0","2017-03-29 16:59:34","31855"
"A30V0XGG1XNYI7","cs_wg_v3_poss_real1","3TOK3KHVJTJ6IR1G9U61OSW05ZKO74","16","1","STOMACH","5","5","1","1445","STOMACH",,"2017-03-29 16:59:34","31856"
" A1FYTTGF0QACU9","cs_wg_v3_poss_real1","3NLZY2D53PQ8IO3YS1ZFW291FK7QLN","4","0","HELICOPTER","10","5","1","2842","Helicopter","10","2017-03-29 16:59:34","31857"
"A3K4MDM191NKF6","cs_wg_v3_poss_real1","3ATPCQ38J8B0V73GMKRJ0AWSKHPYAG","3","0","BOOKSHELF","0","5","0","2190","bookshelf","0","2017-03-29 16:59:35","31858"
"A3KECQ3YIW2I0F","cs_wg_v3_poss_real1","3RUIQRXJBBPXRRNL0WRJFGA75EKLLT","16","0","SUNLIGHT","10","5","1","1738","SUNLIGHT","10","2017-03-29 16:59:35","31859"
"A3QJJR5Y3XE92N","cs_wg_v3_poss_real1","3SBEHTYCWN4F1PMEY8JWH8KBXPUYIK","8","1","STOMACH","5","5","1","2876","stomach",,"2017-03-29 16:59:35","31860"
"A142ZRU284W9O","cs_wg_v3_poss_real1","3QBD8R3Z21K9Z4JX7W8ULGCQEXUO4K","32","0","DOORWAY","0","5","1","682","DOORWAY","0","2017-03-29 16:59:35","31861"
"AY6HFCSWZJ9WD","cs_wg_v3_poss_real1","3Q5C1WP23M26ZVGWFZTTEC5WLIG15G","3","1","STOMACH","5","5","1","4135","stomach","0","2017-03-29 16:59:36","31862"
"A20NITCOBY4775","cs_wg_v3_poss_real1","30JNVC0OR9L6WSK81GKH4AGUY3YQHG","1","1","WEDDING","5","5","1","7293","WEDDING ",,"2017-03-29 16:59:36","31863"
"A3TJ3ORKWH4IYW","cs_wg_v3_poss_real1","3I3WADAZ9Q5RVNNXL1R4Q8I4ETPO5P","0","1","HELICOPTER","5","5","1","3164","helicopter","5","2017-03-29 16:59:38","31864"
"A2HHIHKXZPFEI6","cs_wg_v3_poss_real1","30LB5CDZNCB4ZKF3Q4W9PBTHHPI0ZJ","4","1","KEYBOARD","5","5","1","3304","keyboard","0","2017-03-29 16:59:40","31865"
"AD1WGUMVD6KED","cs_wg_v3_poss_real1","36U2A8VAG1067KC2YB48UOZOPTJYKV","19","1","KEYBOARD","5","5","1","1248","keyboard",,"2017-03-29 16:59:40","31866"
"A32432Z96ADY84","cs_wg_v3_poss_real1","3JCG6DTRV3RJ9LJBK67BDO8VPQUQQC","10","0","BOOKSHELF","0","5","0","2225","bookshelf","0","2017-03-29 16:59:41","31867"
"A3GDTSFHVBUJHD","cs_wg_v3_poss_real1","3K9FOBBF2HKNFRQ6C97YS8EWA9KLNV","0","0","MACHINE","10","5","0","3758","machine","10","2017-03-29 16:59:41","31868"
"A1FHH3XEFEQYV7","cs_wg_v3_poss_real1","33CID57104UGBNXWUQNJJUGQ5SU3LY","8","1","SUNLIGHT","5","5","1","4006","SUNLIGHT",,"2017-03-29 16:59:42","31869"
"A31PCN2LP7DP8I
","cs_wg_v3_poss_real1","3LWJHTCVCCNMIWT26QWH1P4HIOLQFI","7","0","DOORWAY","10","5","0","5519","Doorway","10","2017-03-29 16:59:42","31870"
"A3PIIKN7MTJ3O7","cs_wg_v3_poss_real1","3HHRAGRYX86AWAP9OR4L2ON60P8O9G","16","0","KEYBOARD","10","5","0","1366","keyboard","10","2017-03-29 16:59:42","31871"
"A30V0XGG1XNYI7","cs_wg_v3_poss_real1","3TOK3KHVJTJ6IR1G9U61OSW05ZKO74","17","1","FOOTBALL","5","5","1","1327","FOOTBALL",,"2017-03-29 16:59:42","31872"
"A142ZRU284W9O","cs_wg_v3_poss_real1","3QBD8R3Z21K9Z4JX7W8ULGCQEXUO4K","33","0","LADDER","10","5","1","316","LADDER","10","2017-03-29 16:59:43","31873"
"A3F8G26PENQ6EO","cs_wg_v3_poss_real1","3VNL7UK1XFKZACLUNUQC6UF42VKTFZ","18","1","UMBRELLA","5","5","1","971","umbrella",,"2017-03-29 16:59:43","31874"
"A3PG5AKYG7QW2","cs_wg_v3_poss_real1","3EICBYG644XYTX5FKYM7WI7S7G1JC9","10","1","HELICOPTER","5","5","1","1429","helicopter",,"2017-03-29 16:59:43","31875"
"AS30B1NLM2G4V","cs_wg_v3_poss_real1","3P1L2B7AD1Q5XCQIDO7B7XE10JPLOA","4","0","BOOKSHELF","10","5","1","2067","bookshelf","10","2017-03-29 16:59:44","31876"
"A1N4AZ1QXPOPXH","cs_wg_v3_poss_real1","3VSOLARPKBALALWN5TKTELPV5YD391","4","1","BASKET","5","5","1","1853","basket",,"2017-03-29 16:59:44","31877"
"A3KECQ3YIW2I0F","cs_wg_v3_poss_real1","3RUIQRXJBBPXRRNL0WRJFGA75EKLLT","17","1","COMMUNITY","5","5","1","1911","COMMUNITY",,"2017-03-29 16:59:44","31878"
"AY6HFCSWZJ9WD","cs_wg_v3_poss_real1","3Q5C1WP23M26ZVGWFZTTEC5WLIG15G","4","0","LADDER","0","5","0","2164","ladder","0","2017-03-29 16:59:45","31879"
"A1MV2B8I02QVOE","cs_wg_v3_poss_real1","39LOEL67OS6LWGDD01EFEPUKLSV38C","4","0","COMMUNITY","10","5","1","3551","community","10","2017-03-29 16:59:45","31880"
"A3K4MDM191NKF6","cs_wg_v3_poss_real1","3ATPCQ38J8B0V73GMKRJ0AWSKHPYAG","4","0","STOMACH","10","5","0","1267","stomach","10","2017-03-29 16:59:45","31881"
"A3TYA2ATHN50AW","cs_wg_v3_poss_real1","31LVTDXBL7B8UPIY5GOF1SJ6B69LRJ","17","0","FOOTBALL","10","5","0","2525","football","10","2017-03-29 16:59:46","31882"
"A3QJJR5Y3XE92N","cs_wg_v3_poss_real1","3SBEHTYCWN4F1PMEY8JWH8KBXPUYIK","9","0","SUNLIGHT","10","5","0","1573","sunlight","10","2017-03-29 16:59:48","31883"
"AD1WGUMVD6KED","cs_wg_v3_poss_real1","36U2A8VAG1067KC2YB48UOZOPTJYKV","20","1","UMBRELLA","5","5","1","2134","umbrella",,"2017-03-29 16:59:50","31884"
"A142ZRU284W9O","cs_wg_v3_poss_real1","3QBD8R3Z21K9Z4JX7W8ULGCQEXUO4K","34","0","KEYBOARD","10","5","1","641","KEYBOARD","10","2017-03-29 16:59:50","31885"
"A32432Z96ADY84","cs_wg_v3_poss_real1","3JCG6DTRV3RJ9LJBK67BDO8VPQUQQC","11","0","FOOTBALL","0","5","1","1913","football","0","2017-03-29 16:59:51","31886"
"A3F8G26PENQ6EO","cs_wg_v3_poss_real1","3VNL7UK1XFKZACLUNUQC6UF42VKTFZ","19","0","STOMACH","0","5","1","2310","stomach",,"2017-03-29 16:59:51","31887"
"A3PG5AKYG7QW2","cs_wg_v3_poss_real1","3EICBYG644XYTX5FKYM7WI7S7G1JC9","11","1","TRAFFIC","5","5","1","1441","traffic",,"2017-03-29 16:59:52","31888"
"A3TJ3ORKWH4IYW","cs_wg_v3_poss_real1","3I3WADAZ9Q5RVNNXL1R4Q8I4ETPO5P","1","0","SUNLIGHT","10","5","0","3790","sunlight","10","2017-03-29 16:59:52","31889"
" A1FYTTGF0QACU9","cs_wg_v3_poss_real1","3NLZY2D53PQ8IO3YS1ZFW291FK7QLN","5","0","COMMUNITY","10","5","1","2946","community","10","2017-03-29 16:59:53","31890"
"A30V0XGG1XNYI7","cs_wg_v3_poss_real1","3TOK3KHVJTJ6IR1G9U61OSW05ZKO74","18","0","KEYBOARD","10","5","0","1465","KEYBOARD","10","2017-03-29 16:59:53","31891"
"A1N4AZ1QXPOPXH","cs_wg_v3_poss_real1","3VSOLARPKBALALWN5TKTELPV5YD391","5","1","STRUCTURE","5","5","1","1911","structure",,"2017-03-29 16:59:53","31892"
"A31PCN2LP7DP8I
","cs_wg_v3_poss_real1","3LWJHTCVCCNMIWT26QWH1P4HIOLQFI","8","1","MACHINE","5","5","1","2275","Machine",,"2017-03-29 16:59:54","31893"
"AY6HFCSWZJ9WD","cs_wg_v3_poss_real1","3Q5C1WP23M26ZVGWFZTTEC5WLIG15G","5","0","TRAFFIC","0","5","0","1567","traffic","0","2017-03-29 16:59:54","31894"
"A3PIIKN7MTJ3O7","cs_wg_v3_poss_real1","3HHRAGRYX86AWAP9OR4L2ON60P8O9G","17","1","HELICOPTER","5","5","1","2510","helicopter",,"2017-03-29 16:59:54","31895"
"A3KECQ3YIW2I0F","cs_wg_v3_poss_real1","3RUIQRXJBBPXRRNL0WRJFGA75EKLLT","18","0","STRUCTURE","10","5","0","2737","STRUCTURE","10","2017-03-29 16:59:55","31896"
"A1FHH3XEFEQYV7","cs_wg_v3_poss_real1","33CID57104UGBNXWUQNJJUGQ5SU3LY","9","0","DOORWAY","0","5","1","4170","DOORWAY",,"2017-03-29 16:59:56","31897"
"A142ZRU284W9O","cs_wg_v3_poss_real1","3QBD8R3Z21K9Z4JX7W8ULGCQEXUO4K","35","0","KEYBOARD","10","5","1","1043","KEYBOARD","10","2017-03-29 16:59:57","31898"
"A3GDTSFHVBUJHD","cs_wg_v3_poss_real1","3K9FOBBF2HKNFRQ6C97YS8EWA9KLNV","1","0","TRAFFIC","10","5","0","2095","traffic","10","2017-03-29 16:59:57","31899"
"A20NITCOBY4775","cs_wg_v3_poss_real1","30JNVC0OR9L6WSK81GKH4AGUY3YQHG","2","1","WEDDING","5","5","1","5580","WEDDING ",,"2017-03-29 16:59:58","31900"
"A3TYA2ATHN50AW","cs_wg_v3_poss_real1","31LVTDXBL7B8UPIY5GOF1SJ6B69LRJ","18","0","STOMACH","10","5","0","1247","stomach","10","2017-03-29 16:59:58","31901"
"AS30B1NLM2G4V","cs_wg_v3_poss_real1","3P1L2B7AD1Q5XCQIDO7B7XE10JPLOA","5","0","FOOTBALL","0","5","1","3084","football","0","2017-03-29 16:59:58","31902"
"AD1WGUMVD6KED","cs_wg_v3_poss_real1","36U2A8VAG1067KC2YB48UOZOPTJYKV","21","0","LADDER","10","5","0","1962","ladder","10","2017-03-29 16:59:58","31903"
"A2HHIHKXZPFEI6","cs_wg_v3_poss_real1","30LB5CDZNCB4ZKF3Q4W9PBTHHPI0ZJ","5","0","COMMUNITY","10","5","1","3550","community","10","2017-03-29 17:00:00","31904"
"A3QJJR5Y3XE92N","cs_wg_v3_poss_real1","3SBEHTYCWN4F1PMEY8JWH8KBXPUYIK","10","1","BOOKSHELF","5","5","1","2056","bookshelf",,"2017-03-29 17:00:00","31905"
"A32432Z96ADY84","cs_wg_v3_poss_real1","3JCG6DTRV3RJ9LJBK67BDO8VPQUQQC","12","1","WEDDING","5","5","1","1451","wedding",,"2017-03-29 17:00:00","31906"
"A3KECQ3YIW2I0F","cs_wg_v3_poss_real1","3RUIQRXJBBPXRRNL0WRJFGA75EKLLT","19","1","BASKET","5","5","1","1517","BASKET",,"2017-03-29 17:00:02","31907"
"A3F8G26PENQ6EO","cs_wg_v3_poss_real1","3VNL7UK1XFKZACLUNUQC6UF42VKTFZ","20","0","BASKET","0","5","0","2873","basket","0","2017-03-29 17:00:03","31908"
"A30V0XGG1XNYI7","cs_wg_v3_poss_real1","3TOK3KHVJTJ6IR1G9U61OSW05ZKO74","19","1","SUNLIGHT","5","5","1","1376","SUNLIGHT",,"2017-03-29 17:00:04","31909"
"A3K4MDM191NKF6","cs_wg_v3_poss_real1","3ATPCQ38J8B0V73GMKRJ0AWSKHPYAG","5","1","STRUCTURE","5","5","1","1832","structure",,"2017-03-29 17:00:04","31910"
"A1N4AZ1QXPOPXH","cs_wg_v3_poss_real1","3VSOLARPKBALALWN5TKTELPV5YD391","6","0","HELICOPTER","0","5","1","2436","helicopter","0","2017-03-29 17:00:05","31911"
"A1MV2B8I02QVOE","cs_wg_v3_poss_real1","39LOEL67OS6LWGDD01EFEPUKLSV38C","5","0","BOOKSHELF","0","5","1","6394","bookshelf","0","2017-03-29 17:00:05","31912"
"A142ZRU284W9O","cs_wg_v3_poss_real1","3QBD8R3Z21K9Z4JX7W8ULGCQEXUO4K","36","0","STRUCTURE","0","5","1","851","STRUCTURE","0","2017-03-29 17:00:05","31913"
"A3TJ3ORKWH4IYW","cs_wg_v3_poss_real1","3I3WADAZ9Q5RVNNXL1R4Q8I4ETPO5P","2","0","TRAFFIC","0","5","0","2748","traffic","0","2017-03-29 17:00:06","31914"
"AY6HFCSWZJ9WD","cs_wg_v3_poss_real1","3Q5C1WP23M26ZVGWFZTTEC5WLIG15G","6","0","LADDER","0","5","1","3652","ladder","0","2017-03-29 17:00:06","31915"
"A31PCN2LP7DP8I
","cs_wg_v3_poss_real1","3LWJHTCVCCNMIWT26QWH1P4HIOLQFI","9","0","UMBRELLA","10","5","0","1951","umbrella","10","2017-03-29 17:00:07","31916"
"A3TYA2ATHN50AW","cs_wg_v3_poss_real1","31LVTDXBL7B8UPIY5GOF1SJ6B69LRJ","19","0","BASKET","10","5","1","1627","basket","10","2017-03-29 17:00:08","31917"
"A3PG5AKYG7QW2","cs_wg_v3_poss_real1","3EICBYG644XYTX5FKYM7WI7S7G1JC9","12","0","SUNLIGHT","10","5","1","3641","sunlight","10","2017-03-29 17:00:09","31918"
"A1FHH3XEFEQYV7","cs_wg_v3_poss_real1","33CID57104UGBNXWUQNJJUGQ5SU3LY","10","1","LADDER","5","5","1","7024","LADDER",,"2017-03-29 17:00:09","31919"
"AD1WGUMVD6KED","cs_wg_v3_poss_real1","36U2A8VAG1067KC2YB48UOZOPTJYKV","22","0","HELICOPTER","0","5","1","3418","helicopter","0","2017-03-29 17:00:09","31920"
"A3PIIKN7MTJ3O7","cs_wg_v3_poss_real1","3HHRAGRYX86AWAP9OR4L2ON60P8O9G","18","0","STOMACH","10","5","0","1671","stomach","10","2017-03-29 17:00:09","31921"
"A3QJJR5Y3XE92N","cs_wg_v3_poss_real1","3SBEHTYCWN4F1PMEY8JWH8KBXPUYIK","11","0","TRAFFIC","0","5","0","1817","traffic","0","2017-03-29 17:00:10","31922"
" A1FYTTGF0QACU9","cs_wg_v3_poss_real1","3NLZY2D53PQ8IO3YS1ZFW291FK7QLN","6","0","COMMUNITY","10","5","0","2703","community","10","2017-03-29 17:00:11","31923"
"A3GDTSFHVBUJHD","cs_wg_v3_poss_real1","3K9FOBBF2HKNFRQ6C97YS8EWA9KLNV","2","0","BASKET","0","5","0","1245","basket","0","2017-03-29 17:00:11","31924"
"A32432Z96ADY84","cs_wg_v3_poss_real1","3JCG6DTRV3RJ9LJBK67BDO8VPQUQQC","13","0","UMBRELLA","10","5","0","3240","umbrella","10","2017-03-29 17:00:11","31925"
"A3F8G26PENQ6EO","cs_wg_v3_poss_real1","3VNL7UK1XFKZACLUNUQC6UF42VKTFZ","21","1","WEDDING","5","5","1","1141","wedding",,"2017-03-29 17:00:12","31926"
"A3KECQ3YIW2I0F","cs_wg_v3_poss_real1","3RUIQRXJBBPXRRNL0WRJFGA75EKLLT","20","0","BOOKSHELF","10","5","0","2218","BOOKSHELF","10","2017-03-29 17:00:13","31927"
"A142ZRU284W9O","cs_wg_v3_poss_real1","3QBD8R3Z21K9Z4JX7W8ULGCQEXUO4K","37","0","BASKET","10","5","0","2633","BASKET","10","2017-03-29 17:00:14","31928"
"AS30B1NLM2G4V","cs_wg_v3_poss_real1","3P1L2B7AD1Q5XCQIDO7B7XE10JPLOA","6","0","UMBRELLA","10","5","0","3851","umbrella","10","2017-03-29 17:00:14","31929"
"A1MV2B8I02QVOE","cs_wg_v3_poss_real1","39LOEL67OS6LWGDD01EFEPUKLSV38C","6","1","KEYBOARD","5","5","1","2567","keyboard",,"2017-03-29 17:00:15","31930"
"A3K4MDM191NKF6","cs_wg_v3_poss_real1","3ATPCQ38J8B0V73GMKRJ0AWSKHPYAG","6","0","COMMUNITY","0","5","0","1496","community","0","2017-03-29 17:00:17","31931"
"A1N4AZ1QXPOPXH","cs_wg_v3_poss_real1","3VSOLARPKBALALWN5TKTELPV5YD391","7","0","HELICOPTER","0","5","1","1891","helicopter","0","2017-03-29 17:00:17","31932"
"A31PCN2LP7DP8I
","cs_wg_v3_poss_real1","3LWJHTCVCCNMIWT26QWH1P4HIOLQFI","10","1","STRUCTURE","5","5","1","1759","structure ",,"2017-03-29 17:00:18","31933"
"A30V0XGG1XNYI7","cs_wg_v3_poss_real1","3TOK3KHVJTJ6IR1G9U61OSW05ZKO74","20","0","MACHINE","0","5","1","3694","MACHINE",,"2017-03-29 17:00:18","31934"
"A3TYA2ATHN50AW","cs_wg_v3_poss_real1","31LVTDXBL7B8UPIY5GOF1SJ6B69LRJ","20","1","SUNLIGHT","5","5","1","2400","sunlight",,"2017-03-29 17:00:19","31935"
"A2HHIHKXZPFEI6","cs_wg_v3_poss_real1","30LB5CDZNCB4ZKF3Q4W9PBTHHPI0ZJ","6","0","STOMACH","0","5","0","3089","stomach","0","2017-03-29 17:00:19","31936"
"AY6HFCSWZJ9WD","cs_wg_v3_poss_real1","3Q5C1WP23M26ZVGWFZTTEC5WLIG15G","7","1","HELICOPTER","5","5","1","3585","helicopter","0","2017-03-29 17:00:19","31937"
"A3QJJR5Y3XE92N","cs_wg_v3_poss_real1","3SBEHTYCWN4F1PMEY8JWH8KBXPUYIK","12","1","BASKET","5","5","1","1876","basket",,"2017-03-29 17:00:19","31938"
"AD1WGUMVD6KED","cs_wg_v3_poss_real1","36U2A8VAG1067KC2YB48UOZOPTJYKV","23","0","BOOKSHELF","10","5","1","1594","bookshelf","10","2017-03-29 17:00:19","31939"
"A1FHH3XEFEQYV7","cs_wg_v3_poss_real1","33CID57104UGBNXWUQNJJUGQ5SU3LY","11","0","DOORWAY","0","5","1","5376","DOORWAY",,"2017-03-29 17:00:20","31940"
"A3PG5AKYG7QW2","cs_wg_v3_poss_real1","3EICBYG644XYTX5FKYM7WI7S7G1JC9","13","0","FOOTBALL","10","5","1","2196","football","10","2017-03-29 17:00:21","31941"
"A32432Z96ADY84","cs_wg_v3_poss_real1","3JCG6DTRV3RJ9LJBK67BDO8VPQUQQC","14","0","UMBRELLA","10","5","0","1454","umbrella","10","2017-03-29 17:00:22","31942"
"A3F8G26PENQ6EO","cs_wg_v3_poss_real1","3VNL7UK1XFKZACLUNUQC6UF42VKTFZ","22","0","SUNLIGHT","0","5","0","1184","sunlight","0","2017-03-29 17:00:22","31943"
"A3KECQ3YIW2I0F","cs_wg_v3_poss_real1","3RUIQRXJBBPXRRNL0WRJFGA75EKLLT","21","0","WEDDING","0","5","1","1811","WEDDING","0","2017-03-29 17:00:22","31944"
"A3PIIKN7MTJ3O7","cs_wg_v3_poss_real1","3HHRAGRYX86AWAP9OR4L2ON60P8O9G","19","1","TRAFFIC","5","5","1","2444","traffic",,"2017-03-29 17:00:24","31945"
"A3TJ3ORKWH4IYW","cs_wg_v3_poss_real1","3I3WADAZ9Q5RVNNXL1R4Q8I4ETPO5P","3","1","HELICOPTER","5","5","1","5125","helicopter","0","2017-03-29 17:00:24","31946"
"A20NITCOBY4775","cs_wg_v3_poss_real1","30JNVC0OR9L6WSK81GKH4AGUY3YQHG","3","0","KEYBOARD","10","5","0","5285","KEYBOARD ","10","2017-03-29 17:00:25","31947"
"AS30B1NLM2G4V","cs_wg_v3_poss_real1","3P1L2B7AD1Q5XCQIDO7B7XE10JPLOA","7","1","WEDDING","5","5","1","1981","wedding",,"2017-03-29 17:00:25","31948"
"A3GDTSFHVBUJHD","cs_wg_v3_poss_real1","3K9FOBBF2HKNFRQ6C97YS8EWA9KLNV","3","1","STOMACH","5","5","1","2365","stomach",,"2017-03-29 17:00:27","31949"
"A30V0XGG1XNYI7","cs_wg_v3_poss_real1","3TOK3KHVJTJ6IR1G9U61OSW05ZKO74","21","0","KEYBOARD","10","5","1","1230","KEYBOARD","10","2017-03-29 17:00:28","31950"
"A1N4AZ1QXPOPXH","cs_wg_v3_poss_real1","3VSOLARPKBALALWN5TKTELPV5YD391","8","0","BOOKSHELF","10","5","0","1380","bookshelf","10","2017-03-29 17:00:28","31951"
" A1FYTTGF0QACU9","cs_wg_v3_poss_real1","3NLZY2D53PQ8IO3YS1ZFW291FK7QLN","7","0","BASKET","0","5","1","2815","basket","0","2017-03-29 17:00:29","31952"
"AD1WGUMVD6KED","cs_wg_v3_poss_real1","36U2A8VAG1067KC2YB48UOZOPTJYKV","24","0","BOOKSHELF","10","5","0","2027","bookshelf","10","2017-03-29 17:00:29","31953"
"A3TYA2ATHN50AW","cs_wg_v3_poss_real1","31LVTDXBL7B8UPIY5GOF1SJ6B69LRJ","21","0","KEYBOARD","0","5","0","1161","keyboard","0","2017-03-29 17:00:29","31954"
"A31PCN2LP7DP8I
","cs_wg_v3_poss_real1","3LWJHTCVCCNMIWT26QWH1P4HIOLQFI","11","1","MACHINE","5","5","1","4021","machine",,"2017-03-29 17:00:30","31955"
"A1FHH3XEFEQYV7","cs_wg_v3_poss_real1","33CID57104UGBNXWUQNJJUGQ5SU3LY","12","1","SUNLIGHT","5","5","1","4831","SUNLIGHT",,"2017-03-29 17:00:30","31956"
"A1MV2B8I02QVOE","cs_wg_v3_poss_real1","39LOEL67OS6LWGDD01EFEPUKLSV38C","7","1","WEDDING","5","5","1","3907","wedding",,"2017-03-29 17:00:30","31957"
"A3K4MDM191NKF6","cs_wg_v3_poss_real1","3ATPCQ38J8B0V73GMKRJ0AWSKHPYAG","7","0","KEYBOARD","10","5","0","2582","keyboard","10","2017-03-29 17:00:31","31958"
"A32432Z96ADY84","cs_wg_v3_poss_real1","3JCG6DTRV3RJ9LJBK67BDO8VPQUQQC","15","0","BASKET","10","5","1","1705","basket","10","2017-03-29 17:00:31","31959"
"A2HHIHKXZPFEI6","cs_wg_v3_poss_real1","30LB5CDZNCB4ZKF3Q4W9PBTHHPI0ZJ","7","1","DOORWAY","5","5","1","1961","doorway","5","2017-03-29 17:00:32","31960"
"A3QJJR5Y3XE92N","cs_wg_v3_poss_real1","3SBEHTYCWN4F1PMEY8JWH8KBXPUYIK","13","0","HELICOPTER","0","5","1","2864","helicopter","0","2017-03-29 17:00:33","31961"
"A3F8G26PENQ6EO","cs_wg_v3_poss_real1","3VNL7UK1XFKZACLUNUQC6UF42VKTFZ","23","1","COMMUNITY","5","5","1","3079","community",,"2017-03-29 17:00:33","31962"
"A3KECQ3YIW2I0F","cs_wg_v3_poss_real1","3RUIQRXJBBPXRRNL0WRJFGA75EKLLT","22","0","KEYBOARD","0","5","0","3173","KEYBOARD","0","2017-03-29 17:00:33","31963"
"AY6HFCSWZJ9WD","cs_wg_v3_poss_real1","3Q5C1WP23M26ZVGWFZTTEC5WLIG15G","8","0","COMMUNITY","10","5","0","1168","community","10","2017-03-29 17:00:35","31964"
"AS30B1NLM2G4V","cs_wg_v3_poss_real1","3P1L2B7AD1Q5XCQIDO7B7XE10JPLOA","8","1","TRAFFIC","5","5","1","1618","traffic",,"2017-03-29 17:00:35","31965"
"A3PG5AKYG7QW2","cs_wg_v3_poss_real1","3EICBYG644XYTX5FKYM7WI7S7G1JC9","14","0","COMMUNITY","0","5","0","3673","community","0","2017-03-29 17:00:36","31966"
"A3TJ3ORKWH4IYW","cs_wg_v3_poss_real1","3I3WADAZ9Q5RVNNXL1R4Q8I4ETPO5P","4","1","UMBRELLA","5","5","1","2084","umbrella",,"2017-03-29 17:00:36","31967"
"AD1WGUMVD6KED","cs_wg_v3_poss_real1","36U2A8VAG1067KC2YB48UOZOPTJYKV","25","1","KEYBOARD","5","5","1","1262","keyboard",,"2017-03-29 17:00:36","31968"
"A1Z7E1C3P16DEA","cs_wg_v3_poss_real1","3DUZQ9U6SMPNR9U5Y9QQEBM4O6UVS0","0","0","STRUCTURE","0","5","0","4317","people","0","2017-03-29 17:00:36","31969"
"A30V0XGG1XNYI7","cs_wg_v3_poss_real1","3TOK3KHVJTJ6IR1G9U61OSW05ZKO74","22","0","LADDER","10","5","0","1422","LADDER","10","2017-03-29 17:00:37","31970"
"A3PIIKN7MTJ3O7","cs_wg_v3_poss_real1","3HHRAGRYX86AWAP9OR4L2ON60P8O9G","20","1","LADDER","5","5","1","4158","ladder",,"2017-03-29 17:00:37","31971"
"A32432Z96ADY84","cs_wg_v3_poss_real1","3JCG6DTRV3RJ9LJBK67BDO8VPQUQQC","16","1","KEYBOARD","5","5","1","1536","keyboard",,"2017-03-29 17:00:40","31972"
"A1N4AZ1QXPOPXH","cs_wg_v3_poss_real1","3VSOLARPKBALALWN5TKTELPV5YD391","9","0","TRAFFIC","10","5","0","1432","traffic","10","2017-03-29 17:00:40","31973"
"A3TYA2ATHN50AW","cs_wg_v3_poss_real1","31LVTDXBL7B8UPIY5GOF1SJ6B69LRJ","22","1","SUNLIGHT","5","5","1","1565","sunlight",,"2017-03-29 17:00:40","31974"
"A3K4MDM191NKF6","cs_wg_v3_poss_real1","3ATPCQ38J8B0V73GMKRJ0AWSKHPYAG","8","1","SUNLIGHT","5","5","1","1583","sunlight",,"2017-03-29 17:00:41","31975"
"A3GDTSFHVBUJHD","cs_wg_v3_poss_real1","3K9FOBBF2HKNFRQ6C97YS8EWA9KLNV","4","0","UMBRELLA","0","5","0","1453","umbrella","0","2017-03-29 17:00:41","31976"
"A3F8G26PENQ6EO","cs_wg_v3_poss_real1","3VNL7UK1XFKZACLUNUQC6UF42VKTFZ","24","0","BASKET","0","5","1","1744","basket","0","2017-03-29 17:00:42","31977"
"A3QJJR5Y3XE92N","cs_wg_v3_poss_real1","3SBEHTYCWN4F1PMEY8JWH8KBXPUYIK","14","0","UMBRELLA","0","5","1","1815","umbrella","0","2017-03-29 17:00:43","31978"
"A31PCN2LP7DP8I
","cs_wg_v3_poss_real1","3LWJHTCVCCNMIWT26QWH1P4HIOLQFI","12","0","TRAFFIC","10","5","0","2045","Traffic","10","2017-03-29 17:00:43","31979"
"A1MV2B8I02QVOE","cs_wg_v3_poss_real1","39LOEL67OS6LWGDD01EFEPUKLSV38C","8","0","UMBRELLA","10","5","0","3076","umbrella","10","2017-03-29 17:00:44","31980"
"A3PG5AKYG7QW2","cs_wg_v3_poss_real1","3EICBYG644XYTX5FKYM7WI7S7G1JC9","15","1","TRAFFIC","5","5","1","1303","traffic",,"2017-03-29 17:00:44","31981"
"A3KECQ3YIW2I0F","cs_wg_v3_poss_real1","3RUIQRXJBBPXRRNL0WRJFGA75EKLLT","23","0","MACHINE","0","5","1","4867","MACHINE","0","2017-03-29 17:00:45","31982"
"A30V0XGG1XNYI7","cs_wg_v3_poss_real1","3TOK3KHVJTJ6IR1G9U61OSW05ZKO74","23","1","STOMACH","5","5","1","1162","STOMACH",,"2017-03-29 17:00:45","31983"
"AD1WGUMVD6KED","cs_wg_v3_poss_real1","36U2A8VAG1067KC2YB48UOZOPTJYKV","26","0","MACHINE","10","5","1","1502","machine","10","2017-03-29 17:00:46","31984"
"A20NITCOBY4775","cs_wg_v3_poss_real1","30JNVC0OR9L6WSK81GKH4AGUY3YQHG","4","1","LADDER","5","5","1","6290","LADDER ",,"2017-03-29 17:00:46","31985"
" A1FYTTGF0QACU9","cs_wg_v3_poss_real1","3NLZY2D53PQ8IO3YS1ZFW291FK7QLN","8","0","COMMUNITY","10","5","0","2052","community","10","2017-03-29 17:00:46","31986"
"A1FHH3XEFEQYV7","cs_wg_v3_poss_real1","33CID57104UGBNXWUQNJJUGQ5SU3LY","13","1","BASKET","5","5","1","10957","BASKET",,"2017-03-29 17:00:47","31987"
"A3TJ3ORKWH4IYW","cs_wg_v3_poss_real1","3I3WADAZ9Q5RVNNXL1R4Q8I4ETPO5P","5","0","TRAFFIC","0","5","1","2088","traffic","0","2017-03-29 17:00:47","31988"
"A3TYA2ATHN50AW","cs_wg_v3_poss_real1","31LVTDXBL7B8UPIY5GOF1SJ6B69LRJ","23","1","SUNLIGHT","5","5","1","1343","sunlight",,"2017-03-29 17:00:50","31989"
"A32432Z96ADY84","cs_wg_v3_poss_real1","3JCG6DTRV3RJ9LJBK67BDO8VPQUQQC","17","0","STOMACH","10","5","0","2319","stomach","10","2017-03-29 17:00:50","31990"
"A1N4AZ1QXPOPXH","cs_wg_v3_poss_real1","3VSOLARPKBALALWN5TKTELPV5YD391","10","0","WEDDING","0","5","1","1637","wedding","0","2017-03-29 17:00:50","31991"
"AY6HFCSWZJ9WD","cs_wg_v3_poss_real1","3Q5C1WP23M26ZVGWFZTTEC5WLIG15G","9","0","FOOTBALL","10","5","1","3823","football","10","2017-03-29 17:00:50","31992"
"A3K4MDM191NKF6","cs_wg_v3_poss_real1","3ATPCQ38J8B0V73GMKRJ0AWSKHPYAG","9","1","FOOTBALL","5","5","1","1741","football",,"2017-03-29 17:00:51","31993"
"A3GDTSFHVBUJHD","cs_wg_v3_poss_real1","3K9FOBBF2HKNFRQ6C97YS8EWA9KLNV","5","1","WEDDING","5","5","1","2055","wedding",,"2017-03-29 17:00:51","31994"
"A1Z7E1C3P16DEA","cs_wg_v3_poss_real1","3DUZQ9U6SMPNR9U5Y9QQEBM4O6UVS0","1","0","STOMACH","10","5","0","2896","stomach","10","2017-03-29 17:00:51","31995"
"AS30B1NLM2G4V","cs_wg_v3_poss_real1","3P1L2B7AD1Q5XCQIDO7B7XE10JPLOA","9","0","SUNLIGHT","0","5","0","4761","sunlight","0","2017-03-29 17:00:51","31996"
"A30V0XGG1XNYI7","cs_wg_v3_poss_real1","3TOK3KHVJTJ6IR1G9U61OSW05ZKO74","24","0","LADDER","10","5","0","1130","LADDER","10","2017-03-29 17:00:53","31997"
"A3QJJR5Y3XE92N","cs_wg_v3_poss_real1","3SBEHTYCWN4F1PMEY8JWH8KBXPUYIK","15","0","LADDER","10","5","0","1958","ladder","10","2017-03-29 17:00:54","31998"
"A3KECQ3YIW2I0F","cs_wg_v3_poss_real1","3RUIQRXJBBPXRRNL0WRJFGA75EKLLT","24","0","STOMACH","0","5","1","2040","STOMACH","0","2017-03-29 17:00:54","31999"
"AD1WGUMVD6KED","cs_wg_v3_poss_real1","36U2A8VAG1067KC2YB48UOZOPTJYKV","27","0","LADDER","10","5","0","1738","ladder","10","2017-03-29 17:00:55","32000"
"A3PIIKN7MTJ3O7","cs_wg_v3_poss_real1","3HHRAGRYX86AWAP9OR4L2ON60P8O9G","21","0","BOOKSHELF","0","5","0","7078","bookshelf","0","2017-03-29 17:00:55","32001"
"A2HHIHKXZPFEI6","cs_wg_v3_poss_real1","30LB5CDZNCB4ZKF3Q4W9PBTHHPI0ZJ","8","0","WEDDING","10","5","0","2432","wedding","10","2017-03-29 17:00:55","32002"
"A1MV2B8I02QVOE","cs_wg_v3_poss_real1","39LOEL67OS6LWGDD01EFEPUKLSV38C","9","0","LADDER","0","5","1","1880","ladder","0","2017-03-29 17:00:55","32003"
"A142ZRU284W9O","cs_wg_v3_poss_real1","3QBD8R3Z21K9Z4JX7W8ULGCQEXUO4K","38","0","MACHINE","0","5","1","1625","MACHINE","0","2017-03-29 17:00:55","32004"
"A3F8G26PENQ6EO","cs_wg_v3_poss_real1","3VNL7UK1XFKZACLUNUQC6UF42VKTFZ","25","0","SUNLIGHT","0","5","1","1607","sunlight","0","2017-03-29 17:00:56","32005"
"A3PG5AKYG7QW2","cs_wg_v3_poss_real1","3EICBYG644XYTX5FKYM7WI7S7G1JC9","16","0","BASKET","0","5","0","2078","basket","0","2017-03-29 17:00:57","32006"
"A31PCN2LP7DP8I
","cs_wg_v3_poss_real1","3LWJHTCVCCNMIWT26QWH1P4HIOLQFI","13","0","TRAFFIC","10","5","0","4749","traffic","10","2017-03-29 17:00:58","32007"
"A3TYA2ATHN50AW","cs_wg_v3_poss_real1","31LVTDXBL7B8UPIY5GOF1SJ6B69LRJ","24","1","WEDDING","5","5","1","1071","wedding",,"2017-03-29 17:00:59","32008"
"AY6HFCSWZJ9WD","cs_wg_v3_poss_real1","3Q5C1WP23M26ZVGWFZTTEC5WLIG15G","10","0","BASKET","10","5","0","1936","basket","10","2017-03-29 17:01:00","32009"
"A3TJ3ORKWH4IYW","cs_wg_v3_poss_real1","3I3WADAZ9Q5RVNNXL1R4Q8I4ETPO5P","6","0","SUNLIGHT","10","5","0","2255","sunlight","10","2017-03-29 17:01:00","32010"
"A1N4AZ1QXPOPXH","cs_wg_v3_poss_real1","3VSOLARPKBALALWN5TKTELPV5YD391","11","0","LADDER","0","5","0","1416","ladder","0","2017-03-29 17:01:00","32011"
"A32432Z96ADY84","cs_wg_v3_poss_real1","3JCG6DTRV3RJ9LJBK67BDO8VPQUQQC","18","0","HELICOPTER","0","5","1","2559","helicopter","0","2017-03-29 17:01:00","32012"
"A1FHH3XEFEQYV7","cs_wg_v3_poss_real1","33CID57104UGBNXWUQNJJUGQ5SU3LY","14","0","FOOTBALL","10","5","0","5411","FOOTBALL","10","2017-03-29 17:01:00","32013"
"A3QJJR5Y3XE92N","cs_wg_v3_poss_real1","3SBEHTYCWN4F1PMEY8JWH8KBXPUYIK","16","1","BASKET","5","5","1","1282","basket",,"2017-03-29 17:01:02","32014"
"A3KECQ3YIW2I0F","cs_wg_v3_poss_real1","3RUIQRXJBBPXRRNL0WRJFGA75EKLLT","25","0","MACHINE","0","5","1","1356","MACHINE","0","2017-03-29 17:01:02","32015"
"A3K4MDM191NKF6","cs_wg_v3_poss_real1","3ATPCQ38J8B0V73GMKRJ0AWSKHPYAG","10","0","TRAFFIC","10","5","0","1813","traffic","10","2017-03-29 17:01:03","32016"
"A30V0XGG1XNYI7","cs_wg_v3_poss_real1","3TOK3KHVJTJ6IR1G9U61OSW05ZKO74","25","0","WEDDING","0","5","0","956","WEDDING","0","2017-03-29 17:01:03","32017"
"A1Z7E1C3P16DEA","cs_wg_v3_poss_real1","3DUZQ9U6SMPNR9U5Y9QQEBM4O6UVS0","2","0","FOOTBALL","10","5","0","1999","football","10","2017-03-29 17:01:03","32018"
"A3F8G26PENQ6EO","cs_wg_v3_poss_real1","3VNL7UK1XFKZACLUNUQC6UF42VKTFZ","26","1","FOOTBALL","5","5","1","1342","football",,"2017-03-29 17:01:03","32019"
"AD1WGUMVD6KED","cs_wg_v3_poss_real1","36U2A8VAG1067KC2YB48UOZOPTJYKV","28","0","FOOTBALL","0","5","1","1222","football","0","2017-03-29 17:01:04","32020"
"A142ZRU284W9O","cs_wg_v3_poss_real1","3QBD8R3Z21K9Z4JX7W8ULGCQEXUO4K","39","1","COMMUNITY","5","5","1","1312","COMMUNITY",,"2017-03-29 17:01:04","32021"
"A3PIIKN7MTJ3O7","cs_wg_v3_poss_real1","3HHRAGRYX86AWAP9OR4L2ON60P8O9G","22","1","TRAFFIC","5","5","1","1965","traffic",,"2017-03-29 17:01:04","32022"
" A1FYTTGF0QACU9","cs_wg_v3_poss_real1","3NLZY2D53PQ8IO3YS1ZFW291FK7QLN","9","0","MACHINE","0","5","1","2078","machine","0","2017-03-29 17:01:04","32023"
"A3GDTSFHVBUJHD","cs_wg_v3_poss_real1","3K9FOBBF2HKNFRQ6C97YS8EWA9KLNV","6","1","FOOTBALL","5","5","1","1553","football",,"2017-03-29 17:01:05","32024"
"A20NITCOBY4775","cs_wg_v3_poss_real1","30JNVC0OR9L6WSK81GKH4AGUY3YQHG","5","1","STRUCTURE","5","5","1","3956","STRUCTURE ",,"2017-03-29 17:01:06","32025"
"AS30B1NLM2G4V","cs_wg_v3_poss_real1","3P1L2B7AD1Q5XCQIDO7B7XE10JPLOA","10","0","DOORWAY","10","5","0","4353","doorway","10","2017-03-29 17:01:06","32026"
"A3TYA2ATHN50AW","cs_wg_v3_poss_real1","31LVTDXBL7B8UPIY5GOF1SJ6B69LRJ","25","1","TRAFFIC","5","5","1","1391","traffic",,"2017-03-29 17:01:09","32027"
"A3PG5AKYG7QW2","cs_wg_v3_poss_real1","3EICBYG644XYTX5FKYM7WI7S7G1JC9","17","0","STRUCTURE","10","5","0","2387","structure","10","2017-03-29 17:01:11","32028"
"A3KECQ3YIW2I0F","cs_wg_v3_poss_real1","3RUIQRXJBBPXRRNL0WRJFGA75EKLLT","26","0","MACHINE","0","5","1","1395","MACHINE","0","2017-03-29 17:01:11","32029"
"A3TJ3ORKWH4IYW","cs_wg_v3_poss_real1","3I3WADAZ9Q5RVNNXL1R4Q8I4ETPO5P","7","1","STRUCTURE","5","5","1","2098","structure",,"2017-03-29 17:01:11","32030"
"A30V0XGG1XNYI7","cs_wg_v3_poss_real1","3TOK3KHVJTJ6IR1G9U61OSW05ZKO74","26","0","MACHINE","0","5","0","1160","MACHINE",,"2017-03-29 17:01:12","32031"
"AY6HFCSWZJ9WD","cs_wg_v3_poss_real1","3Q5C1WP23M26ZVGWFZTTEC5WLIG15G","11","1","WEDDING","5","5","1","3571","wedding","0","2017-03-29 17:01:12","32032"
"A3QJJR5Y3XE92N","cs_wg_v3_poss_real1","3SBEHTYCWN4F1PMEY8JWH8KBXPUYIK","17","0","COMMUNITY","0","5","0","1762","community","0","2017-03-29 17:01:12","32033"
"A32432Z96ADY84","cs_wg_v3_poss_real1","3JCG6DTRV3RJ9LJBK67BDO8VPQUQQC","19","0","STRUCTURE","10","5","1","1517","structure","10","2017-03-29 17:01:12","32034"
"A142ZRU284W9O","cs_wg_v3_poss_real1","3QBD8R3Z21K9Z4JX7W8ULGCQEXUO4K","40","1","HELICOPTER","5","5","1","1403","HELICOPTER",,"2017-03-29 17:01:12","32035"
"A1FHH3XEFEQYV7","cs_wg_v3_poss_real1","33CID57104UGBNXWUQNJJUGQ5SU3LY","15","1","COMMUNITY","5","5","1","4355","COMMUNITY",,"2017-03-29 17:01:12","32036"
"A3F8G26PENQ6EO","cs_wg_v3_poss_real1","3VNL7UK1XFKZACLUNUQC6UF42VKTFZ","27","1","FOOTBALL","5","5","1","1087","football",,"2017-03-29 17:01:13","32037"
"A1Z7E1C3P16DEA","cs_wg_v3_poss_real1","3DUZQ9U6SMPNR9U5Y9QQEBM4O6UVS0","3","0","TRAFFIC","10","5","0","1525","traffic","10","2017-03-29 17:01:14","32038"
"A39WGGJ22N4S4F","cs_wg_v3_poss_real1","3BDCF01OGXVHRQUKJBG99OC3ETOYLY","0","0","MACHINE","10","5","0","3359","machine","10","2017-03-29 17:01:14","32039"
"A1MV2B8I02QVOE","cs_wg_v3_poss_real1","39LOEL67OS6LWGDD01EFEPUKLSV38C","10","0","TRAFFIC","10","5","1","8684","traffic","10","2017-03-29 17:01:14","32040"
"AD1WGUMVD6KED","cs_wg_v3_poss_real1","36U2A8VAG1067KC2YB48UOZOPTJYKV","29","0","BASKET","0","5","1","3302","basket","0","2017-03-29 17:01:14","32041"
"A31PCN2LP7DP8I
","cs_wg_v3_poss_real1","3LWJHTCVCCNMIWT26QWH1P4HIOLQFI","14","0","FOOTBALL","0","5","1","2924","football","0","2017-03-29 17:01:15","32042"
"AS30B1NLM2G4V","cs_wg_v3_poss_real1","3P1L2B7AD1Q5XCQIDO7B7XE10JPLOA","11","1","WEDDING","5","5","1","1848","wedding",,"2017-03-29 17:01:17","32043"
"A2HHIHKXZPFEI6","cs_wg_v3_poss_real1","30LB5CDZNCB4ZKF3Q4W9PBTHHPI0ZJ","9","1","HELICOPTER","5","5","1","2652","helicopter","0","2017-03-29 17:01:17","32044"
" A1FYTTGF0QACU9","cs_wg_v3_poss_real1","3NLZY2D53PQ8IO3YS1ZFW291FK7QLN","10","1","UMBRELLA","5","5","1","2012","umbrella",,"2017-03-29 17:01:18","32045"
"A30V0XGG1XNYI7","cs_wg_v3_poss_real1","3TOK3KHVJTJ6IR1G9U61OSW05ZKO74","27","1","BASKET","5","5","1","1350","BASKET",,"2017-03-29 17:01:18","32046"
"A3GDTSFHVBUJHD","cs_wg_v3_poss_real1","3K9FOBBF2HKNFRQ6C97YS8EWA9KLNV","7","0","LADDER","10","5","0","1569","ladder","10","2017-03-29 17:01:19","32047"
"A142ZRU284W9O","cs_wg_v3_poss_real1","3QBD8R3Z21K9Z4JX7W8ULGCQEXUO4K","41","0","WEDDING","10","5","1","1066","WEDDING","10","2017-03-29 17:01:19","32048"
"A3PG5AKYG7QW2","cs_wg_v3_poss_real1","3EICBYG644XYTX5FKYM7WI7S7G1JC9","18","1","DOORWAY","5","5","1","1219","doorway",,"2017-03-29 17:01:19","32049"
"A3QJJR5Y3XE92N","cs_wg_v3_poss_real1","3SBEHTYCWN4F1PMEY8JWH8KBXPUYIK","18","1","BOOKSHELF","5","5","1","1679","bookshelf",,"2017-03-29 17:01:21","32050"
"A3KECQ3YIW2I0F","cs_wg_v3_poss_real1","3RUIQRXJBBPXRRNL0WRJFGA75EKLLT","27","1","COMMUNITY","5","5","1","2172","COMMUNITY",,"2017-03-29 17:01:21","32051"
"A3TYA2ATHN50AW","cs_wg_v3_poss_real1","31LVTDXBL7B8UPIY5GOF1SJ6B69LRJ","26","0","HELICOPTER","0","5","1","1257","helicopter","0","2017-03-29 17:01:22","32052"
"AY6HFCSWZJ9WD","cs_wg_v3_poss_real1","3Q5C1WP23M26ZVGWFZTTEC5WLIG15G","12","0","FOOTBALL","10","5","0","2506","football","10","2017-03-29 17:01:22","32053"
"AD1WGUMVD6KED","cs_wg_v3_poss_real1","36U2A8VAG1067KC2YB48UOZOPTJYKV","30","1","STRUCTURE","5","5","1","630","structure",,"2017-03-29 17:01:22","32054"
"A3K4MDM191NKF6","cs_wg_v3_poss_real1","3ATPCQ38J8B0V73GMKRJ0AWSKHPYAG","11","0","STOMACH","10","5","0","3804","stomach","10
10","2017-03-29 17:01:22","32055"
"A3TJ3ORKWH4IYW","cs_wg_v3_poss_real1","3I3WADAZ9Q5RVNNXL1R4Q8I4ETPO5P","8","0","LADDER","0","5","0","2143","ladder","0","2017-03-29 17:01:23","32056"
"A1N4AZ1QXPOPXH","cs_wg_v3_poss_real1","3VSOLARPKBALALWN5TKTELPV5YD391","12","0","BOOKSHELF","10","5","0","873","bookshelf","10","2017-03-29 17:01:23","32057"
"A3F8G26PENQ6EO","cs_wg_v3_poss_real1","3VNL7UK1XFKZACLUNUQC6UF42VKTFZ","28","0","KEYBOARD","10","5","0","1513","keyboard","10","2017-03-29 17:01:23","32058"
"A32432Z96ADY84","cs_wg_v3_poss_real1","3JCG6DTRV3RJ9LJBK67BDO8VPQUQQC","20","0","HELICOPTER","0","5","1","1853","helicopter","0","2017-03-29 17:01:26","32059"
"A142ZRU284W9O","cs_wg_v3_poss_real1","3QBD8R3Z21K9Z4JX7W8ULGCQEXUO4K","42","0","BOOKSHELF","0","5","1","642","BOOKSHELF","0","2017-03-29 17:01:26","32060"
"A1FHH3XEFEQYV7","cs_wg_v3_poss_real1","33CID57104UGBNXWUQNJJUGQ5SU3LY","16","0","HELICOPTER","10","5","0","6635","HELICOPTER","10","2017-03-29 17:01:27","32061"
"A1MV2B8I02QVOE","cs_wg_v3_poss_real1","39LOEL67OS6LWGDD01EFEPUKLSV38C","11","0","STOMACH","0","5","1","3193","stomach","0","2017-03-29 17:01:27","32062"
"A30V0XGG1XNYI7","cs_wg_v3_poss_real1","3TOK3KHVJTJ6IR1G9U61OSW05ZKO74","28","0","HELICOPTER","10","5","0","992","HELICOPTER","10","2017-03-29 17:01:27","32063"
"A2HHIHKXZPFEI6","cs_wg_v3_poss_real1","30LB5CDZNCB4ZKF3Q4W9PBTHHPI0ZJ","10","1","SUNLIGHT","5","5","1","2032","sunlight","0","2017-03-29 17:01:29","32064"
"A39WGGJ22N4S4F","cs_wg_v3_poss_real1","3BDCF01OGXVHRQUKJBG99OC3ETOYLY","1","1","HELICOPTER","5","5","1","2257","helicopter",,"2017-03-29 17:01:29","32065"
"A3QJJR5Y3XE92N","cs_wg_v3_poss_real1","3SBEHTYCWN4F1PMEY8JWH8KBXPUYIK","19","1","KEYBOARD","5","5","1","1257","keyboard",,"2017-03-29 17:01:30","32066"
"A3KECQ3YIW2I0F","cs_wg_v3_poss_real1","3RUIQRXJBBPXRRNL0WRJFGA75EKLLT","28","1","BASKET","5","5","1","1298","BASKET",,"2017-03-29 17:01:30","32067"
"AS30B1NLM2G4V","cs_wg_v3_poss_real1","3P1L2B7AD1Q5XCQIDO7B7XE10JPLOA","12","0","UMBRELLA","10","5","0","1563","umbrella","10","2017-03-29 17:01:30","32068"
"A20NITCOBY4775","cs_wg_v3_poss_real1","30JNVC0OR9L6WSK81GKH4AGUY3YQHG","6","0","COMMUNITY","0","5","1","6461","COMMUNITY ","0","2017-03-29 17:01:31","32069"
"AMY9FF4EMW50O","cs_wg_v3_poss_real1","3TR2532VIPV9DGWEA794AIFIBUQJ6H","0","0","COMMUNITY","10","5","1","3806","community","10","2017-03-29 17:01:31","32070"
"A3PG5AKYG7QW2","cs_wg_v3_poss_real1","3EICBYG644XYTX5FKYM7WI7S7G1JC9","19","0","WEDDING","0","5","1","3102","wedding","0","2017-03-29 17:01:32","32071"
"AD1WGUMVD6KED","cs_wg_v3_poss_real1","36U2A8VAG1067KC2YB48UOZOPTJYKV","31","0","HELICOPTER","0","5","1","1712","helicopter","0","2017-03-29 17:01:32","32072"
"AY6HFCSWZJ9WD","cs_wg_v3_poss_real1","3Q5C1WP23M26ZVGWFZTTEC5WLIG15G","13","0","FOOTBALL","10","5","0","1289","football","10","2017-03-29 17:01:32","32073"
"A1N4AZ1QXPOPXH","cs_wg_v3_poss_real1","3VSOLARPKBALALWN5TKTELPV5YD391","13","0","SUNLIGHT","10","5","0","1015","sunlight","10","2017-03-29 17:01:33","32074"
"A3TJ3ORKWH4IYW","cs_wg_v3_poss_real1","3I3WADAZ9Q5RVNNXL1R4Q8I4ETPO5P","9","0","MACHINE","10","5","1","2212","machine","10","2017-03-29 17:01:33","32075"
"A3K4MDM191NKF6","cs_wg_v3_poss_real1","3ATPCQ38J8B0V73GMKRJ0AWSKHPYAG","12","1","MACHINE","5","5","1","1839","machine",,"2017-03-29 17:01:33","32076"
"A3GDTSFHVBUJHD","cs_wg_v3_poss_real1","3K9FOBBF2HKNFRQ6C97YS8EWA9KLNV","8","1","HELICOPTER","5","5","1","2148","helicopter",,"2017-03-29 17:01:33","32077"
"A31PCN2LP7DP8I
","cs_wg_v3_poss_real1","3LWJHTCVCCNMIWT26QWH1P4HIOLQFI","15","0","UMBRELLA","10","5","0","5573","umbrella ","10","2017-03-29 17:01:33","32078"
"A3TYA2ATHN50AW","cs_wg_v3_poss_real1","31LVTDXBL7B8UPIY5GOF1SJ6B69LRJ","27","0","DOORWAY","0","5","0","1711","doorway","0","2017-03-29 17:01:33","32079"
" A1FYTTGF0QACU9","cs_wg_v3_poss_real1","3NLZY2D53PQ8IO3YS1ZFW291FK7QLN","11","1","KEYBOARD","5","5","1","2235","keyboard",,"2017-03-29 17:01:34","32080"
"A3F8G26PENQ6EO","cs_wg_v3_poss_real1","3VNL7UK1XFKZACLUNUQC6UF42VKTFZ","29","0","KEYBOARD","10","5","0","1854","keyboard","10","2017-03-29 17:01:34","32081"
"A142ZRU284W9O","cs_wg_v3_poss_real1","3QBD8R3Z21K9Z4JX7W8ULGCQEXUO4K","43","0","UMBRELLA","10","5","1","290","UMBRELLA","10","2017-03-29 17:01:35","32082"
"A30V0XGG1XNYI7","cs_wg_v3_poss_real1","3TOK3KHVJTJ6IR1G9U61OSW05ZKO74","29","0","TRAFFIC","10","5","0","1061","TRAFFIC","10","2017-03-29 17:01:35","32083"
"A1FHH3XEFEQYV7","cs_wg_v3_poss_real1","33CID57104UGBNXWUQNJJUGQ5SU3LY","17","0","WEDDING","0","5","1","3907","WEDDING",,"2017-03-29 17:01:36","32084"
"A3PIIKN7MTJ3O7","cs_wg_v3_poss_real1","3HHRAGRYX86AWAP9OR4L2ON60P8O9G","23","0","KEYBOARD","10","5","0","20872","keyboard","10","2017-03-29 17:01:36","32085"
"A32432Z96ADY84","cs_wg_v3_poss_real1","3JCG6DTRV3RJ9LJBK67BDO8VPQUQQC","21","0","BASKET","10","5","0","2952","basket","10","2017-03-29 17:01:37","32086"
"A1Z7E1C3P16DEA","cs_wg_v3_poss_real1","3DUZQ9U6SMPNR9U5Y9QQEBM4O6UVS0","4","0","KEYBOARD","0","5","0","1299","keyboard","0","2017-03-29 17:01:37","32087"
"A3QJJR5Y3XE92N","cs_wg_v3_poss_real1","3SBEHTYCWN4F1PMEY8JWH8KBXPUYIK","20","1","BOOKSHELF","5","5","1","1157","bookshelf",,"2017-03-29 17:01:39","32088"
"A3KECQ3YIW2I0F","cs_wg_v3_poss_real1","3RUIQRXJBBPXRRNL0WRJFGA75EKLLT","29","0","DOORWAY","10","5","0","2294","DOORWAY","10","2017-03-29 17:01:39","32089"
"AD1WGUMVD6KED","cs_wg_v3_poss_real1","36U2A8VAG1067KC2YB48UOZOPTJYKV","32","1","SUNLIGHT","5","5","1","1083","sunlight",,"2017-03-29 17:01:41","32090"
"AS30B1NLM2G4V","cs_wg_v3_poss_real1","3P1L2B7AD1Q5XCQIDO7B7XE10JPLOA","13","0","STOMACH","10","5","0","1719","stomach",,"2017-03-29 17:01:42","32091"
"A3TYA2ATHN50AW","cs_wg_v3_poss_real1","31LVTDXBL7B8UPIY5GOF1SJ6B69LRJ","28","1","WEDDING","5","5","1","1234","wedding",,"2017-03-29 17:01:42","32092"
"A30V0XGG1XNYI7","cs_wg_v3_poss_real1","3TOK3KHVJTJ6IR1G9U61OSW05ZKO74","30","1","BASKET","5","5","1","1194","BASKET",,"2017-03-29 17:01:42","32093"
"A1N4AZ1QXPOPXH","cs_wg_v3_poss_real1","3VSOLARPKBALALWN5TKTELPV5YD391","14","0","HELICOPTER","0","5","1","1327","helicopter","0","2017-03-29 17:01:42","32094"
"A39WGGJ22N4S4F","cs_wg_v3_poss_real1","3BDCF01OGXVHRQUKJBG99OC3ETOYLY","2","0","STOMACH","10","5","0","1868","stomach","10","2017-03-29 17:01:43","32095"
"A3K4MDM191NKF6","cs_wg_v3_poss_real1","3ATPCQ38J8B0V73GMKRJ0AWSKHPYAG","13","1","DOORWAY","5","5","1","1864","doorway",,"2017-03-29 17:01:43","32096"
"A142ZRU284W9O","cs_wg_v3_poss_real1","3QBD8R3Z21K9Z4JX7W8ULGCQEXUO4K","44","0","BOOKSHELF","0","5","1","1241","BOOKSHELF","0","2017-03-29 17:01:43","32097"
"A32432Z96ADY84","cs_wg_v3_poss_real1","3JCG6DTRV3RJ9LJBK67BDO8VPQUQQC","22","1","WEDDING","5","5","1","1235","wedding",,"2017-03-29 17:01:44","32098"
"AY6HFCSWZJ9WD","cs_wg_v3_poss_real1","3Q5C1WP23M26ZVGWFZTTEC5WLIG15G","14","1","SUNLIGHT","5","5","1","3490","sunlight","5","2017-03-29 17:01:44","32099"
"A3TJ3ORKWH4IYW","cs_wg_v3_poss_real1","3I3WADAZ9Q5RVNNXL1R4Q8I4ETPO5P","10","1","BOOKSHELF","5","5","1","2836","bookshelf",,"2017-03-29 17:01:45","32100"
" A1FYTTGF0QACU9","cs_wg_v3_poss_real1","3NLZY2D53PQ8IO3YS1ZFW291FK7QLN","12","1","DOORWAY","5","5","1","1818","doorway",,"2017-03-29 17:01:45","32101"
"A1MV2B8I02QVOE","cs_wg_v3_poss_real1","39LOEL67OS6LWGDD01EFEPUKLSV38C","12","0","DOORWAY","10","5","0","9006","doorway","10","2017-03-29 17:01:45","32102"
"A3GDTSFHVBUJHD","cs_wg_v3_poss_real1","3K9FOBBF2HKNFRQ6C97YS8EWA9KLNV","9","1","STOMACH","5","5","1","1786","stomach",,"2017-03-29 17:01:46","32103"
"A3F8G26PENQ6EO","cs_wg_v3_poss_real1","3VNL7UK1XFKZACLUNUQC6UF42VKTFZ","30","0","LADDER","10","5","0","1535","ladder","10","2017-03-29 17:01:46","32104"
"A1FHH3XEFEQYV7","cs_wg_v3_poss_real1","33CID57104UGBNXWUQNJJUGQ5SU3LY","18","0","HELICOPTER","10","5","0","4091","HELICOPTER","10","2017-03-29 17:01:47","32105"
"A3PG5AKYG7QW2","cs_wg_v3_poss_real1","3EICBYG644XYTX5FKYM7WI7S7G1JC9","20","0","SUNLIGHT","10","5","0","5329","sunlight","10","2017-03-29 17:01:47","32106"
"A1Z7E1C3P16DEA","cs_wg_v3_poss_real1","3DUZQ9U6SMPNR9U5Y9QQEBM4O6UVS0","5","0","BASKET","0","5","0","1241","basket","0","2017-03-29 17:01:47","32107"
"A31PCN2LP7DP8I
","cs_wg_v3_poss_real1","3LWJHTCVCCNMIWT26QWH1P4HIOLQFI","16","0","TRAFFIC","10","5","1","4011","traffic","10","2017-03-29 17:01:47","32108"
"AD1WGUMVD6KED","cs_wg_v3_poss_real1","36U2A8VAG1067KC2YB48UOZOPTJYKV","33","1","KEYBOARD","5","5","1","1050","keyboard",,"2017-03-29 17:01:49","32109"
"A3KECQ3YIW2I0F","cs_wg_v3_poss_real1","3RUIQRXJBBPXRRNL0WRJFGA75EKLLT","30","1","HELICOPTER","5","5","1","1665","HELICOPTER",,"2017-03-29 17:01:49","32110"
"A142ZRU284W9O","cs_wg_v3_poss_real1","3QBD8R3Z21K9Z4JX7W8ULGCQEXUO4K","45","1","COMMUNITY","5","5","1","960","COMMUNITY",,"2017-03-29 17:01:50","32111"
"A30V0XGG1XNYI7","cs_wg_v3_poss_real1","3TOK3KHVJTJ6IR1G9U61OSW05ZKO74","31","1","FOOTBALL","5","5","1","1484","FOOTBALL",,"2017-03-29 17:01:51","32112"
"A3TYA2ATHN50AW","cs_wg_v3_poss_real1","31LVTDXBL7B8UPIY5GOF1SJ6B69LRJ","29","1","WEDDING","5","5","1","1384","wedding",,"2017-03-29 17:01:51","32113"
"A3QJJR5Y3XE92N","cs_wg_v3_poss_real1","3SBEHTYCWN4F1PMEY8JWH8KBXPUYIK","21","0","COMMUNITY","0","5","0","3253","community","0","2017-03-29 17:01:51","32114"
"AY6HFCSWZJ9WD","cs_wg_v3_poss_real1","3Q5C1WP23M26ZVGWFZTTEC5WLIG15G","15","0","FOOTBALL","10","5","0","1050","football","10","2017-03-29 17:01:52","32115"
"A2HHIHKXZPFEI6","cs_wg_v3_poss_real1","30LB5CDZNCB4ZKF3Q4W9PBTHHPI0ZJ","11","0","TRAFFIC","0","5","0","3101","traffic","0","2017-03-29 17:01:53","32116"
"A1N4AZ1QXPOPXH","cs_wg_v3_poss_real1","3VSOLARPKBALALWN5TKTELPV5YD391","15","1","STRUCTURE","5","5","1","1792","structure",,"2017-03-29 17:01:53","32117"
"AMY9FF4EMW50O","cs_wg_v3_poss_real1","3TR2532VIPV9DGWEA794AIFIBUQJ6H","1","0","HELICOPTER","10","5","0","4913","hellicopter","10","2017-03-29 17:01:54","32118"
"A3F8G26PENQ6EO","cs_wg_v3_poss_real1","3VNL7UK1XFKZACLUNUQC6UF42VKTFZ","31","1","WEDDING","5","5","1","1377","wedding",,"2017-03-29 17:01:55","32119"
"A32432Z96ADY84","cs_wg_v3_poss_real1","3JCG6DTRV3RJ9LJBK67BDO8VPQUQQC","23","0","MACHINE","0","5","1","1542","machine","0","2017-03-29 17:01:55","32120"
"A1FHH3XEFEQYV7","cs_wg_v3_poss_real1","33CID57104UGBNXWUQNJJUGQ5SU3LY","19","1","BASKET","5","5","1","3615","BASKET",,"2017-03-29 17:01:56","32121"
"A1MV2B8I02QVOE","cs_wg_v3_poss_real1","39LOEL67OS6LWGDD01EFEPUKLSV38C","13","0","HELICOPTER","10","5","1","1727","helicopter","10","2017-03-29 17:01:56","32122"
"AS30B1NLM2G4V","cs_wg_v3_poss_real1","3P1L2B7AD1Q5XCQIDO7B7XE10JPLOA","14","1","MACHINE","5","5","1","4034","machine",,"2017-03-29 17:01:56","32123"
"A3K4MDM191NKF6","cs_wg_v3_poss_real1","3ATPCQ38J8B0V73GMKRJ0AWSKHPYAG","14","0","COMMUNITY","0","5","1","2066","community","0","2017-03-29 17:01:57","32124"
"AD1WGUMVD6KED","cs_wg_v3_poss_real1","36U2A8VAG1067KC2YB48UOZOPTJYKV","34","1","STRUCTURE","5","5","1","1191","structure",,"2017-03-29 17:01:57","32125"
"A20NITCOBY4775","cs_wg_v3_poss_real1","30JNVC0OR9L6WSK81GKH4AGUY3YQHG","7","0","COMMUNITY","0","5","1","6692","COMMUNITY ","0","2017-03-29 17:01:57","32126"
"A3TJ3ORKWH4IYW","cs_wg_v3_poss_real1","3I3WADAZ9Q5RVNNXL1R4Q8I4ETPO5P","11","0","STOMACH","0","5","0","3013","stomach","0","2017-03-29 17:01:57","32127"
"A3PG5AKYG7QW2","cs_wg_v3_poss_real1","3EICBYG644XYTX5FKYM7WI7S7G1JC9","21","1","MACHINE","5","5","1","1561","machine",,"2017-03-29 17:01:57","32128"
"A31PCN2LP7DP8I
","cs_wg_v3_poss_real1","3LWJHTCVCCNMIWT26QWH1P4HIOLQFI","17","1","STRUCTURE","5","5","1","1736","structure",,"2017-03-29 17:01:58","32129"
"A3KECQ3YIW2I0F","cs_wg_v3_poss_real1","3RUIQRXJBBPXRRNL0WRJFGA75EKLLT","31","0","WEDDING","0","5","1","1698","WEDDING","0","2017-03-29 17:01:59","32130"
"A30V0XGG1XNYI7","cs_wg_v3_poss_real1","3TOK3KHVJTJ6IR1G9U61OSW05ZKO74","32","0","COMMUNITY","10","5","0","1079","COMMUNITY","10","2017-03-29 17:01:59","32131"
"A3TYA2ATHN50AW","cs_wg_v3_poss_real1","31LVTDXBL7B8UPIY5GOF1SJ6B69LRJ","30","1","LADDER","5","5","1","1222","ladder",,"2017-03-29 17:01:59","32132"
"A1Z7E1C3P16DEA","cs_wg_v3_poss_real1","3DUZQ9U6SMPNR9U5Y9QQEBM4O6UVS0","6","1","BOOKSHELF","5","5","1","2655","bookshelf",,"2017-03-29 17:02:00","32133"
"A3GDTSFHVBUJHD","cs_wg_v3_poss_real1","3K9FOBBF2HKNFRQ6C97YS8EWA9KLNV","10","0","UMBRELLA","0","5","1","3497","umbrella","0","2017-03-29 17:02:01","32134"
"A3QJJR5Y3XE92N","cs_wg_v3_poss_real1","3SBEHTYCWN4F1PMEY8JWH8KBXPUYIK","22","0","TRAFFIC","0","5","1","1613","traffic","0","2017-03-29 17:02:01","32135"
"A3PIIKN7MTJ3O7","cs_wg_v3_poss_real1","3HHRAGRYX86AWAP9OR4L2ON60P8O9G","24","1","LADDER","5","5","1","18081","ladder",,"2017-03-29 17:02:01","32136"
" A1FYTTGF0QACU9","cs_wg_v3_poss_real1","3NLZY2D53PQ8IO3YS1ZFW291FK7QLN","13","0","COMMUNITY","10","5","0","1918","community","10","2017-03-29 17:02:02","32137"
"A1P8M5BKOTAA8I","cs_wg_v3_poss_real1","3FK0YFF9PZH3J1B9S4VVPY6BNAOVV5","0","1","STOMACH","5","5","1","6229","STOMACH","5","2017-03-29 17:02:02","32138"
"A1N4AZ1QXPOPXH","cs_wg_v3_poss_real1","3VSOLARPKBALALWN5TKTELPV5YD391","16","0","LADDER","0","5","0","2166","ladder","0","2017-03-29 17:02:03","32139"
"A39WGGJ22N4S4F","cs_wg_v3_poss_real1","3BDCF01OGXVHRQUKJBG99OC3ETOYLY","3","0","DOORWAY","0","5","0","2183","doorway","0","2017-03-29 17:02:03","32140"
"AY6HFCSWZJ9WD","cs_wg_v3_poss_real1","3Q5C1WP23M26ZVGWFZTTEC5WLIG15G","16","0","BASKET","10","5","0","1053","basket","10","2017-03-29 17:02:03","32141"
"A142ZRU284W9O","cs_wg_v3_poss_real1","3QBD8R3Z21K9Z4JX7W8ULGCQEXUO4K","46","0","UMBRELLA","10","5","0","6264","UMBRELLA","10","2017-03-29 17:02:04","32142"
"AD1WGUMVD6KED","cs_wg_v3_poss_real1","36U2A8VAG1067KC2YB48UOZOPTJYKV","35","0","LADDER","10","5","0","1125","ladder","10","2017-03-29 17:02:05","32143"
"A32432Z96ADY84","cs_wg_v3_poss_real1","3JCG6DTRV3RJ9LJBK67BDO8VPQUQQC","24","0","FOOTBALL","0","5","1","2629","football","0","2017-03-29 17:02:06","32144"
"A1FHH3XEFEQYV7","cs_wg_v3_poss_real1","33CID57104UGBNXWUQNJJUGQ5SU3LY","20","0","TRAFFIC","10","5","1","4068","TRAFFIC","10","2017-03-29 17:02:06","32145"
"A3K4MDM191NKF6","cs_wg_v3_poss_real1","3ATPCQ38J8B0V73GMKRJ0AWSKHPYAG","15","1","DOORWAY","5","5","1","1820","doorway",,"2017-03-29 17:02:07","32146"
"A30V0XGG1XNYI7","cs_wg_v3_poss_real1","3TOK3KHVJTJ6IR1G9U61OSW05ZKO74","33","1","SUNLIGHT","5","5","1","1185","SUNLIGHT",,"2017-03-29 17:02:07","32147"
"A2HHIHKXZPFEI6","cs_wg_v3_poss_real1","30LB5CDZNCB4ZKF3Q4W9PBTHHPI0ZJ","12","1","KEYBOARD","5","5","1","1990","keyboard","0","2017-03-29 17:02:07","32148"
"A3F8G26PENQ6EO","cs_wg_v3_poss_real1","3VNL7UK1XFKZACLUNUQC6UF42VKTFZ","32","0","STOMACH","0","5","1","1959","stomach","0","2017-03-29 17:02:07","32149"
"A3KECQ3YIW2I0F","cs_wg_v3_poss_real1","3RUIQRXJBBPXRRNL0WRJFGA75EKLLT","32","1","TRAFFIC","5","5","1","1794","TRAFFIC",,"2017-03-29 17:02:08","32150"
"A3TJ3ORKWH4IYW","cs_wg_v3_poss_real1","3I3WADAZ9Q5RVNNXL1R4Q8I4ETPO5P","12","0","WEDDING","10","5","1","1378","wedding","10","2017-03-29 17:02:08","32151"
"A3PG5AKYG7QW2","cs_wg_v3_poss_real1","3EICBYG644XYTX5FKYM7WI7S7G1JC9","22","0","FOOTBALL","10","5","0","1559","football","10","2017-03-29 17:02:08","32152"
"AS30B1NLM2G4V","cs_wg_v3_poss_real1","3P1L2B7AD1Q5XCQIDO7B7XE10JPLOA","15","0","DOORWAY","10","5","0","3389","doorway","10","2017-03-29 17:02:09","32153"
"A1Z7E1C3P16DEA","cs_wg_v3_poss_real1","3DUZQ9U6SMPNR9U5Y9QQEBM4O6UVS0","7","0","UMBRELLA","0","5","0","984","umbrella","0","2017-03-29 17:02:11","32154"
"A3TYA2ATHN50AW","cs_wg_v3_poss_real1","31LVTDXBL7B8UPIY5GOF1SJ6B69LRJ","31","1","LADDER","5","5","1","1210","LADDER",,"2017-03-29 17:02:11","32155"
"A31PCN2LP7DP8I
","cs_wg_v3_poss_real1","3LWJHTCVCCNMIWT26QWH1P4HIOLQFI","18","0","BASKET","0","5","1","4476","basket","0","2017-03-29 17:02:11","32156"
"AMY9FF4EMW50O","cs_wg_v3_poss_real1","3TR2532VIPV9DGWEA794AIFIBUQJ6H","2","0","UMBRELLA","10","5","0","2450","UMBRELLA","10","2017-03-29 17:02:12","32157"
"A1MV2B8I02QVOE","cs_wg_v3_poss_real1","39LOEL67OS6LWGDD01EFEPUKLSV38C","14","0","BOOKSHELF","0","5","0","6661","bookshelf","0","2017-03-29 17:02:12","32158"
"A1N4AZ1QXPOPXH","cs_wg_v3_poss_real1","3VSOLARPKBALALWN5TKTELPV5YD391","17","1","STRUCTURE","5","5","1","1238","structure",,"2017-03-29 17:02:13","32159"
"A3QJJR5Y3XE92N","cs_wg_v3_poss_real1","3SBEHTYCWN4F1PMEY8JWH8KBXPUYIK","23","0","STRUCTURE","10","5","0","2009","structure","10","2017-03-29 17:02:13","32160"
"AD1WGUMVD6KED","cs_wg_v3_poss_real1","36U2A8VAG1067KC2YB48UOZOPTJYKV","36","0","HELICOPTER","0","5","1","1345","helicopter","0","2017-03-29 17:02:14","32161"
"A142ZRU284W9O","cs_wg_v3_poss_real1","3QBD8R3Z21K9Z4JX7W8ULGCQEXUO4K","47","1","COMMUNITY","5","5","1","1638","COMMUNITY","5","2017-03-29 17:02:14","32162"
"A30V0XGG1XNYI7","cs_wg_v3_poss_real1","3TOK3KHVJTJ6IR1G9U61OSW05ZKO74","34","0","DOORWAY","0","5","0","1115","DOORWAY",,"2017-03-29 17:02:14","32163"
"A39WGGJ22N4S4F","cs_wg_v3_poss_real1","3BDCF01OGXVHRQUKJBG99OC3ETOYLY","4","0","STOMACH","10","5","0","3320","stomach","10","2017-03-29 17:02:15","32164"
"A3GDTSFHVBUJHD","cs_wg_v3_poss_real1","3K9FOBBF2HKNFRQ6C97YS8EWA9KLNV","11","0","SUNLIGHT","10","5","0","1855","sunlight","10","2017-03-29 17:02:15","32165"
"AY6HFCSWZJ9WD","cs_wg_v3_poss_real1","3Q5C1WP23M26ZVGWFZTTEC5WLIG15G","17","0","MACHINE","0","5","0","1110","machine","0
","2017-03-29 17:02:15","32166"
"A32432Z96ADY84","cs_wg_v3_poss_real1","3JCG6DTRV3RJ9LJBK67BDO8VPQUQQC","25","0","STRUCTURE","10","5","0","2212","structure","10","2017-03-29 17:02:17","32167"
"A1FHH3XEFEQYV7","cs_wg_v3_poss_real1","33CID57104UGBNXWUQNJJUGQ5SU3LY","21","1","BASKET","5","5","1","3225","BASKET",,"2017-03-29 17:02:17","32168"
"A3F8G26PENQ6EO","cs_wg_v3_poss_real1","3VNL7UK1XFKZACLUNUQC6UF42VKTFZ","33","0","TRAFFIC","10","5","0","1464","traffic","10","2017-03-29 17:02:18","32169"
"A3TJ3ORKWH4IYW","cs_wg_v3_poss_real1","3I3WADAZ9Q5RVNNXL1R4Q8I4ETPO5P","13","0","STOMACH","0","5","1","2180","stomach","0","2017-03-29 17:02:18","32170"
"A3KECQ3YIW2I0F","cs_wg_v3_poss_real1","3RUIQRXJBBPXRRNL0WRJFGA75EKLLT","33","0","FOOTBALL","0","5","1","1715","FOOTBALL","0","2017-03-29 17:02:19","32171"
"A142ZRU284W9O","cs_wg_v3_poss_real1","3QBD8R3Z21K9Z4JX7W8ULGCQEXUO4K","48","0","BOOKSHELF","0","5","1","485","BOOKSHELF","0","2017-03-29 17:02:20","32172"
"AD1WGUMVD6KED","cs_wg_v3_poss_real1","36U2A8VAG1067KC2YB48UOZOPTJYKV","37","1","TRAFFIC","5","5","1","1093","traffic",,"2017-03-29 17:02:20","32173"
"A1Z7E1C3P16DEA","cs_wg_v3_poss_real1","3DUZQ9U6SMPNR9U5Y9QQEBM4O6UVS0","8","0","DOORWAY","10","5","0","2570","doorway","10","2017-03-29 17:02:21","32174"
" A1FYTTGF0QACU9","cs_wg_v3_poss_real1","3NLZY2D53PQ8IO3YS1ZFW291FK7QLN","14","0","TRAFFIC","0","5","1","2227","traffic","0","2017-03-29 17:02:21","32175"
"AS30B1NLM2G4V","cs_wg_v3_poss_real1","3P1L2B7AD1Q5XCQIDO7B7XE10JPLOA","16","0","BASKET","0","5","1","3294","basket","0","2017-03-29 17:02:21","32176"
"A3PG5AKYG7QW2","cs_wg_v3_poss_real1","3EICBYG644XYTX5FKYM7WI7S7G1JC9","23","1","HELICOPTER","5","5","1","1382","helicopter",,"2017-03-29 17:02:21","32177"
"A3TYA2ATHN50AW","cs_wg_v3_poss_real1","31LVTDXBL7B8UPIY5GOF1SJ6B69LRJ","32","0","FOOTBALL","10","5","0","1190","football","10","2017-03-29 17:02:21","32178"
"A1MV2B8I02QVOE","cs_wg_v3_poss_real1","39LOEL67OS6LWGDD01EFEPUKLSV38C","15","0","BASKET","0","5","0","2391","basket","0","2017-03-29 17:02:22","32179"
"A31PCN2LP7DP8I
","cs_wg_v3_poss_real1","3LWJHTCVCCNMIWT26QWH1P4HIOLQFI","19","1","HELICOPTER","5","5","1","2222","helicopter",,"2017-03-29 17:02:22","32180"
"A30V0XGG1XNYI7","cs_wg_v3_poss_real1","3TOK3KHVJTJ6IR1G9U61OSW05ZKO74","35","1","BASKET","5","5","1","1322","BASKET",,"2017-03-29 17:02:22","32181"
"A20NITCOBY4775","cs_wg_v3_poss_real1","30JNVC0OR9L6WSK81GKH4AGUY3YQHG","8","0","MACHINE","0","5","0","8573","MACHINE ","0","2017-03-29 17:02:23","32182"
"A1N4AZ1QXPOPXH","cs_wg_v3_poss_real1","3VSOLARPKBALALWN5TKTELPV5YD391","18","0","UMBRELLA","0","5","0","1217","umbrella","0","2017-03-29 17:02:23","32183"
"A3QJJR5Y3XE92N","cs_wg_v3_poss_real1","3SBEHTYCWN4F1PMEY8JWH8KBXPUYIK","24","0","WEDDING","10","5","0","2677","wedding","10","2017-03-29 17:02:24","32184"
"A3K4MDM191NKF6","cs_wg_v3_poss_real1","3ATPCQ38J8B0V73GMKRJ0AWSKHPYAG","16","0","HELICOPTER","0","5","0","1936","helicopter ","0","2017-03-29 17:02:25","32185"
"A2HHIHKXZPFEI6","cs_wg_v3_poss_real1","30LB5CDZNCB4ZKF3Q4W9PBTHHPI0ZJ","13","1","DOORWAY","5","5","1","2764","doorway","0","2017-03-29 17:02:25","32186"
"AY6HFCSWZJ9WD","cs_wg_v3_poss_real1","3Q5C1WP23M26ZVGWFZTTEC5WLIG15G","18","0","COMMUNITY","10","5","0","1915","community","10","2017-03-29 17:02:25","32187"
"A3GDTSFHVBUJHD","cs_wg_v3_poss_real1","3K9FOBBF2HKNFRQ6C97YS8EWA9KLNV","12","0","MACHINE","10","5","0","2951","machine","10","2017-03-29 17:02:27","32188"
"A39WGGJ22N4S4F","cs_wg_v3_poss_real1","3BDCF01OGXVHRQUKJBG99OC3ETOYLY","5","0","BASKET","10","5","0","1727","basket","10","2017-03-29 17:02:27","32189"
"A142ZRU284W9O","cs_wg_v3_poss_real1","3QBD8R3Z21K9Z4JX7W8ULGCQEXUO4K","49","1","HELICOPTER","5","5","1","475","HELICOPTER",,"2017-03-29 17:02:28","32190"
"A1FHH3XEFEQYV7","cs_wg_v3_poss_real1","33CID57104UGBNXWUQNJJUGQ5SU3LY","22","0","TRAFFIC","10","5","0","3688","TRAFFIC","10","2017-03-29 17:02:28","32191"
"A3KECQ3YIW2I0F","cs_wg_v3_poss_real1","3RUIQRXJBBPXRRNL0WRJFGA75EKLLT","34","0","SUNLIGHT","10","5","0","1572","SUNLIGHT","10","2017-03-29 17:02:28","32192"
"A3F8G26PENQ6EO","cs_wg_v3_poss_real1","3VNL7UK1XFKZACLUNUQC6UF42VKTFZ","34","0","BOOKSHELF","10","5","1","1848","bookshelf","10","2017-03-29 17:02:28","32193"
"A3TJ3ORKWH4IYW","cs_wg_v3_poss_real1","3I3WADAZ9Q5RVNNXL1R4Q8I4ETPO5P","14","0","SUNLIGHT","10","5","0","1403","sunlight","10","2017-03-29 17:02:29","32194"
"AD1WGUMVD6KED","cs_wg_v3_poss_real1","36U2A8VAG1067KC2YB48UOZOPTJYKV","38","0","STOMACH","10","5","0","3259","stomach","10","2017-03-29 17:02:31","32195"
"A3TYA2ATHN50AW","cs_wg_v3_poss_real1","31LVTDXBL7B8UPIY5GOF1SJ6B69LRJ","33","0","HELICOPTER","0","5","1","3071","HELICOPTER","0","2017-03-29 17:02:33","32196"
"A30V0XGG1XNYI7","cs_wg_v3_poss_real1","3TOK3KHVJTJ6IR1G9U61OSW05ZKO74","36","0","LADDER","10","5","0","1387","LADDER","10","2017-03-29 17:02:33","32197"
"AMY9FF4EMW50O","cs_wg_v3_poss_real1","3TR2532VIPV9DGWEA794AIFIBUQJ6H","3","1","WEDDING","5","5","1","7078","wedding","10","2017-03-29 17:02:33","32198"
"A3PIIKN7MTJ3O7","cs_wg_v3_poss_real1","3HHRAGRYX86AWAP9OR4L2ON60P8O9G","25","0","KEYBOARD","10","5","0","22388","keyboard","10","2017-03-29 17:02:33","32199"
"A1N4AZ1QXPOPXH","cs_wg_v3_poss_real1","3VSOLARPKBALALWN5TKTELPV5YD391","19","0","KEYBOARD","10","5","0","2036","keyboard","10","2017-03-29 17:02:33","32200"
"A1MV2B8I02QVOE","cs_wg_v3_poss_real1","39LOEL67OS6LWGDD01EFEPUKLSV38C","16","0","FOOTBALL","0","5","0","1761","football","0","2017-03-29 17:02:34","32201"
"A32432Z96ADY84","cs_wg_v3_poss_real1","3JCG6DTRV3RJ9LJBK67BDO8VPQUQQC","26","0","HELICOPTER","0","5","1","1559","helicopter","0","2017-03-29 17:02:34","32202"
"A142ZRU284W9O","cs_wg_v3_poss_real1","3QBD8R3Z21K9Z4JX7W8ULGCQEXUO4K","50","0","UMBRELLA","10","5","1","540","UMBRELLA","10","2017-03-29 17:02:35","32203"
"AS30B1NLM2G4V","cs_wg_v3_poss_real1","3P1L2B7AD1Q5XCQIDO7B7XE10JPLOA","17","0","STRUCTURE","0","5","0","4097","structure","0","2017-03-29 17:02:35","32204"
"A3QJJR5Y3XE92N","cs_wg_v3_poss_real1","3SBEHTYCWN4F1PMEY8JWH8KBXPUYIK","25","0","LADDER","10","5","1","2996","ladder","10","2017-03-29 17:02:36","32205"
" A1FYTTGF0QACU9","cs_wg_v3_poss_real1","3NLZY2D53PQ8IO3YS1ZFW291FK7QLN","15","0","WEDDING","10","5","1","1756","wedding","10","2017-03-29 17:02:36","32206"
"A3K4MDM191NKF6","cs_wg_v3_poss_real1","3ATPCQ38J8B0V73GMKRJ0AWSKHPYAG","17","0","COMMUNITY","0","5","0","2110","community","0","2017-03-29 17:02:36","32207"
"A2HHIHKXZPFEI6","cs_wg_v3_poss_real1","30LB5CDZNCB4ZKF3Q4W9PBTHHPI0ZJ","14","1","DOORWAY","5","5","1","2153","doorway","0","2017-03-29 17:02:37","32208"
"AY6HFCSWZJ9WD","cs_wg_v3_poss_real1","3Q5C1WP23M26ZVGWFZTTEC5WLIG15G","19","0","STRUCTURE","0","5","0","2067","structure","0","2017-03-29 17:02:37","32209"
"A3TJ3ORKWH4IYW","cs_wg_v3_poss_real1","3I3WADAZ9Q5RVNNXL1R4Q8I4ETPO5P","15","1","BASKET","5","5","1","1306","basket",,"2017-03-29 17:02:38","32210"
"A1FHH3XEFEQYV7","cs_wg_v3_poss_real1","33CID57104UGBNXWUQNJJUGQ5SU3LY","23","0","STOMACH","0","5","1","4990","STOMACH",,"2017-03-29 17:02:38","32211"
"A31PCN2LP7DP8I
","cs_wg_v3_poss_real1","3LWJHTCVCCNMIWT26QWH1P4HIOLQFI","20","0","SUNLIGHT","0","5","0","2449","sunlight","0","2017-03-29 17:02:39","32212"
"A3F8G26PENQ6EO","cs_wg_v3_poss_real1","3VNL7UK1XFKZACLUNUQC6UF42VKTFZ","35","1","FOOTBALL","5","5","1","1018","football",,"2017-03-29 17:02:39","32213"
"A3KECQ3YIW2I0F","cs_wg_v3_poss_real1","3RUIQRXJBBPXRRNL0WRJFGA75EKLLT","35","0","UMBRELLA","10","5","1","2893","UMBRELLA","10","2017-03-29 17:02:39","32214"
"A30V0XGG1XNYI7","cs_wg_v3_poss_real1","3TOK3KHVJTJ6IR1G9U61OSW05ZKO74","37","1","UMBRELLA","5","5","1","1235","UMBRELLA",,"2017-03-29 17:02:40","32215"
"AD1WGUMVD6KED","cs_wg_v3_poss_real1","36U2A8VAG1067KC2YB48UOZOPTJYKV","39","0","FOOTBALL","0","5","1","1201","football","0","2017-03-29 17:02:40","32216"
"A1MV2B8I02QVOE","cs_wg_v3_poss_real1","39LOEL67OS6LWGDD01EFEPUKLSV38C","17","1","SUNLIGHT","5","5","1","1391","sunlight",,"2017-03-29 17:02:41","32217"
"A1P8M5BKOTAA8I","cs_wg_v3_poss_real1","3FK0YFF9PZH3J1B9S4VVPY6BNAOVV5","1","0","DOORWAY","0","5","1","9308","DOORWAY","O","2017-03-29 17:02:41","32218"
"A3GDTSFHVBUJHD","cs_wg_v3_poss_real1","3K9FOBBF2HKNFRQ6C97YS8EWA9KLNV","13","0","BOOKSHELF","0","5","0","1791","bookshelf","0","2017-03-29 17:02:42","32219"
"A39WGGJ22N4S4F","cs_wg_v3_poss_real1","3BDCF01OGXVHRQUKJBG99OC3ETOYLY","6","1","COMMUNITY","5","5","1","1621","community",,"2017-03-29 17:02:43","32220"
"A3PIIKN7MTJ3O7","cs_wg_v3_poss_real1","3HHRAGRYX86AWAP9OR4L2ON60P8O9G","26","0","BOOKSHELF","0","5","1","1889","bookshelf",,"2017-03-29 17:02:43","32221"
"A142ZRU284W9O","cs_wg_v3_poss_real1","3QBD8R3Z21K9Z4JX7W8ULGCQEXUO4K","51","1","STOMACH","5","5","1","700","STOMACH",,"2017-03-29 17:02:43","32222"
"A3TYA2ATHN50AW","cs_wg_v3_poss_real1","31LVTDXBL7B8UPIY5GOF1SJ6B69LRJ","34","0","UMBRELLA","0","5","1","2787","UMBRELLA","0","2017-03-29 17:02:44","32223"
"A3PG5AKYG7QW2","cs_wg_v3_poss_real1","3EICBYG644XYTX5FKYM7WI7S7G1JC9","24","0","KEYBOARD","0","5","1","9731","keyboard","0","2017-03-29 17:02:45","32224"
"A1N4AZ1QXPOPXH","cs_wg_v3_poss_real1","3VSOLARPKBALALWN5TKTELPV5YD391","20","0","SUNLIGHT","10","5","0","1799","sunlight","10","2017-03-29 17:02:45","32225"
"A20NITCOBY4775","cs_wg_v3_poss_real1","30JNVC0OR9L6WSK81GKH4AGUY3YQHG","9","0","STOMACH","10","5","0","5833","STOMACH ","10","2017-03-29 17:02:45","32226"
"A3QJJR5Y3XE92N","cs_wg_v3_poss_real1","3SBEHTYCWN4F1PMEY8JWH8KBXPUYIK","26","0","HELICOPTER","0","5","1","1748","helicopter","0","2017-03-29 17:02:46","32227"
"AS30B1NLM2G4V","cs_wg_v3_poss_real1","3P1L2B7AD1Q5XCQIDO7B7XE10JPLOA","18","1","WEDDING","5","5","1","3100","wedding",,"2017-03-29 17:02:46","32228"
"A3K4MDM191NKF6","cs_wg_v3_poss_real1","3ATPCQ38J8B0V73GMKRJ0AWSKHPYAG","18","1","DOORWAY","5","5","1","1981","doorway",,"2017-03-29 17:02:47","32229"
"A3TJ3ORKWH4IYW","cs_wg_v3_poss_real1","3I3WADAZ9Q5RVNNXL1R4Q8I4ETPO5P","16","1","BASKET","5","5","1","1374","basket",,"2017-03-29 17:02:47","32230"
"A30V0XGG1XNYI7","cs_wg_v3_poss_real1","3TOK3KHVJTJ6IR1G9U61OSW05ZKO74","38","0","KEYBOARD","10","5","0","739","KEYBOARD","10","2017-03-29 17:02:48","32231"
"A3KECQ3YIW2I0F","cs_wg_v3_poss_real1","3RUIQRXJBBPXRRNL0WRJFGA75EKLLT","36","0","DOORWAY","10","5","0","1451","DOORWAY","10","2017-03-29 17:02:48","32232"
"A32432Z96ADY84","cs_wg_v3_poss_real1","3JCG6DTRV3RJ9LJBK67BDO8VPQUQQC","27","0","MACHINE","0","5","1","3694","machine","0","2017-03-29 17:02:48","32233"
"AD1WGUMVD6KED","cs_wg_v3_poss_real1","36U2A8VAG1067KC2YB48UOZOPTJYKV","40","0","FOOTBALL","0","5","1","1764","football","0","2017-03-29 17:02:48","32234"
"A1FHH3XEFEQYV7","cs_wg_v3_poss_real1","33CID57104UGBNXWUQNJJUGQ5SU3LY","24","0","WEDDING","0","5","1","4043","WEDDING",,"2017-03-29 17:02:48","32235"
"A142ZRU284W9O","cs_wg_v3_poss_real1","3QBD8R3Z21K9Z4JX7W8ULGCQEXUO4K","52","0","LADDER","10","5","1","575","LADDER","10","2017-03-29 17:02:50","32236"
"A3F8G26PENQ6EO","cs_wg_v3_poss_real1","3VNL7UK1XFKZACLUNUQC6UF42VKTFZ","36","0","STOMACH","0","5","1","1704","stomach",,"2017-03-29 17:02:52","32237"
"AY6HFCSWZJ9WD","cs_wg_v3_poss_real1","3Q5C1WP23M26ZVGWFZTTEC5WLIG15G","20","0","UMBRELLA","0","5","0","2601","umbrella","0","2017-03-29 17:02:52","32238"
"A1MV2B8I02QVOE","cs_wg_v3_poss_real1","39LOEL67OS6LWGDD01EFEPUKLSV38C","18","0","HELICOPTER","10","5","0","4343","helicopter","10","2017-03-29 17:02:53","32239"
"A31PCN2LP7DP8I
","cs_wg_v3_poss_real1","3LWJHTCVCCNMIWT26QWH1P4HIOLQFI","21","0","STOMACH","10","5","1","4378","stomach","10","2017-03-29 17:02:53","32240"
" A1FYTTGF0QACU9","cs_wg_v3_poss_real1","3NLZY2D53PQ8IO3YS1ZFW291FK7QLN","16","0","BASKET","0","5","1","3917","basket","0","2017-03-29 17:02:54","32241"
"A30V0XGG1XNYI7","cs_wg_v3_poss_real1","3TOK3KHVJTJ6IR1G9U61OSW05ZKO74","39","0","STRUCTURE","0","5","0","624","STRUCTURE ",,"2017-03-29 17:02:54","32242"
"A3TYA2ATHN50AW","cs_wg_v3_poss_real1","31LVTDXBL7B8UPIY5GOF1SJ6B69LRJ","35","1","TRAFFIC","5","5","1","3360","TRAFFIC",,"2017-03-29 17:02:54","32243"
"A39WGGJ22N4S4F","cs_wg_v3_poss_real1","3BDCF01OGXVHRQUKJBG99OC3ETOYLY","7","0","BASKET","10","5","0","2049","basket","10","2017-03-29 17:02:54","32244"
"A1N4AZ1QXPOPXH","cs_wg_v3_poss_real1","3VSOLARPKBALALWN5TKTELPV5YD391","21","1","COMMUNITY","5","5","1","1415","community",,"2017-03-29 17:02:54","32245"
"A3GDTSFHVBUJHD","cs_wg_v3_poss_real1","3K9FOBBF2HKNFRQ6C97YS8EWA9KLNV","14","0","UMBRELLA","0","5","1","3148","umbrella","0","2017-03-29 17:02:55","32246"
"A3PG5AKYG7QW2","cs_wg_v3_poss_real1","3EICBYG644XYTX5FKYM7WI7S7G1JC9","25","1","UMBRELLA","5","5","1","1931","umbrella",,"2017-03-29 17:02:55","32247"
"AD1WGUMVD6KED","cs_wg_v3_poss_real1","36U2A8VAG1067KC2YB48UOZOPTJYKV","41","1","STRUCTURE","5","5","1","1001","structure",,"2017-03-29 17:02:56","32248"
"A142ZRU284W9O","cs_wg_v3_poss_real1","3QBD8R3Z21K9Z4JX7W8ULGCQEXUO4K","53","0","BASKET","10","5","1","1361","BASKET","10","2017-03-29 17:02:57","32249"
"A3KECQ3YIW2I0F","cs_wg_v3_poss_real1","3RUIQRXJBBPXRRNL0WRJFGA75EKLLT","37","0","STRUCTURE","10","5","0","1828","STRUCTURE","10","2017-03-29 17:02:58","32250"
"A3PIIKN7MTJ3O7","cs_wg_v3_poss_real1","3HHRAGRYX86AWAP9OR4L2ON60P8O9G","27","1","SUNLIGHT","5","5","1","7421","sunlight",,"2017-03-29 17:02:59","32251"
"A32432Z96ADY84","cs_wg_v3_poss_real1","3JCG6DTRV3RJ9LJBK67BDO8VPQUQQC","28","0","COMMUNITY","10","5","1","1480","community","10","2017-03-29 17:02:59","32252"
"A3TJ3ORKWH4IYW","cs_wg_v3_poss_real1","3I3WADAZ9Q5RVNNXL1R4Q8I4ETPO5P","17","0","STOMACH","0","5","1","1152","stomach","0","2017-03-29 17:02:59","32253"
"A3K4MDM191NKF6","cs_wg_v3_poss_real1","3ATPCQ38J8B0V73GMKRJ0AWSKHPYAG","19","0","BASKET","0","5","0","1530","basket","0","2017-03-29 17:02:59","32254"
"A1FHH3XEFEQYV7","cs_wg_v3_poss_real1","33CID57104UGBNXWUQNJJUGQ5SU3LY","25","1","SUNLIGHT","5","5","1","3580","SUNLIGHT",,"2017-03-29 17:03:00","32255"
"A3F8G26PENQ6EO","cs_wg_v3_poss_real1","3VNL7UK1XFKZACLUNUQC6UF42VKTFZ","37","1","COMMUNITY","5","5","1","1107","community",,"2017-03-29 17:03:00","32256"
"A3QJJR5Y3XE92N","cs_wg_v3_poss_real1","3SBEHTYCWN4F1PMEY8JWH8KBXPUYIK","27","0","HELICOPTER","0","5","1","1653","helicopter","0","2017-03-29 17:03:01","32257"
"A30V0XGG1XNYI7","cs_wg_v3_poss_real1","3TOK3KHVJTJ6IR1G9U61OSW05ZKO74","40","1","BASKET","5","5","1","1218","BASKET",,"2017-03-29 17:03:01","32258"
"A28FW73RBVGYZ9","cs_wg_v3_poss_real1","3YDTZAI2WXHO3CCW1UAJ9KZILML14B","0","0","WEDDING","0","5","1","4710","wedding",,"2017-03-29 17:03:02","32259"
"A3TYA2ATHN50AW","cs_wg_v3_poss_real1","31LVTDXBL7B8UPIY5GOF1SJ6B69LRJ","36","0","UMBRELLA","0","5","1","2416","UMBRELLA","0","2017-03-29 17:03:04","32260"
"A142ZRU284W9O","cs_wg_v3_poss_real1","3QBD8R3Z21K9Z4JX7W8ULGCQEXUO4K","54","1","FOOTBALL","5","5","1","602","FOOTBALL",,"2017-03-29 17:03:05","32261"
"A1N4AZ1QXPOPXH","cs_wg_v3_poss_real1","3VSOLARPKBALALWN5TKTELPV5YD391","22","0","TRAFFIC","10","5","1","2076","traffic","10","2017-03-29 17:03:05","32262"
"AS30B1NLM2G4V","cs_wg_v3_poss_real1","3P1L2B7AD1Q5XCQIDO7B7XE10JPLOA","19","0","BOOKSHELF","10","5","0","5977","bookshelf","10","2017-03-29 17:03:06","32263"
"A3KECQ3YIW2I0F","cs_wg_v3_poss_real1","3RUIQRXJBBPXRRNL0WRJFGA75EKLLT","38","0","KEYBOARD","0","5","1","1756","KEYBOARD","0","2017-03-29 17:03:06","32264"
"AD1WGUMVD6KED","cs_wg_v3_poss_real1","36U2A8VAG1067KC2YB48UOZOPTJYKV","42","0","BOOKSHELF","10","5","0","2889","bookshelf","10","2017-03-29 17:03:07","32265"
"A2HHIHKXZPFEI6","cs_wg_v3_poss_real1","30LB5CDZNCB4ZKF3Q4W9PBTHHPI0ZJ","15","0","STOMACH","0","5","1","4029","stomach","
0","2017-03-29 17:03:07","32266"
"A3GDTSFHVBUJHD","cs_wg_v3_poss_real1","3K9FOBBF2HKNFRQ6C97YS8EWA9KLNV","15","0","UMBRELLA","0","5","1","2267","umbrella","0","2017-03-29 17:03:07","32267"
"A32432Z96ADY84","cs_wg_v3_poss_real1","3JCG6DTRV3RJ9LJBK67BDO8VPQUQQC","29","1","TRAFFIC","5","5","1","1314","traffic",,"2017-03-29 17:03:07","32268"
"A30V0XGG1XNYI7","cs_wg_v3_poss_real1","3TOK3KHVJTJ6IR1G9U61OSW05ZKO74","41","0","LADDER","10","5","0","503","LADDER ","10","2017-03-29 17:03:07","32269"
"A31PCN2LP7DP8I
","cs_wg_v3_poss_real1","3LWJHTCVCCNMIWT26QWH1P4HIOLQFI","22","0","STOMACH","10","5","0","2756","stomach","10","2017-03-29 17:03:08","32270"
"A39WGGJ22N4S4F","cs_wg_v3_poss_real1","3BDCF01OGXVHRQUKJBG99OC3ETOYLY","8","0","WEDDING","0","5","0","1492","wedding","0","2017-03-29 17:03:08","32271"
"A3K4MDM191NKF6","cs_wg_v3_poss_real1","3ATPCQ38J8B0V73GMKRJ0AWSKHPYAG","20","1","MACHINE","5","5","1","1580","machine",,"2017-03-29 17:03:08","32272"
"A3TJ3ORKWH4IYW","cs_wg_v3_poss_real1","3I3WADAZ9Q5RVNNXL1R4Q8I4ETPO5P","18","1","HELICOPTER","5","5","1","1912","helicopter",,"2017-03-29 17:03:09","32273"
"A3PIIKN7MTJ3O7","cs_wg_v3_poss_real1","3HHRAGRYX86AWAP9OR4L2ON60P8O9G","28","0","BASKET","10","5","0","3286","basket","10","2017-03-29 17:03:09","32274"
" A1FYTTGF0QACU9","cs_wg_v3_poss_real1","3NLZY2D53PQ8IO3YS1ZFW291FK7QLN","17","0","BASKET","0","5","1","1758","basket","0","2017-03-29 17:03:09","32275"
"A20NITCOBY4775","cs_wg_v3_poss_real1","30JNVC0OR9L6WSK81GKH4AGUY3YQHG","10","0","DOORWAY","10","5","1","5213","DOORWAY","10","2017-03-29 17:03:10","32276"
"A1FHH3XEFEQYV7","cs_wg_v3_poss_real1","33CID57104UGBNXWUQNJJUGQ5SU3LY","26","0","FOOTBALL","10","5","0","4467","FOOTBALL","10","2017-03-29 17:03:10","32277"
"A3F8G26PENQ6EO","cs_wg_v3_poss_real1","3VNL7UK1XFKZACLUNUQC6UF42VKTFZ","38","0","HELICOPTER","0","5","0","1410","helicopter","0","2017-03-29 17:03:11","32278"
"A3PG5AKYG7QW2","cs_wg_v3_poss_real1","3EICBYG644XYTX5FKYM7WI7S7G1JC9","26","0","COMMUNITY","0","5","1","6301","community","0","2017-03-29 17:03:12","32279"
"A142ZRU284W9O","cs_wg_v3_poss_real1","3QBD8R3Z21K9Z4JX7W8ULGCQEXUO4K","55","0","STRUCTURE","0","5","1","371","STRUCTURE","0","2017-03-29 17:03:12","32280"
"A3QJJR5Y3XE92N","cs_wg_v3_poss_real1","3SBEHTYCWN4F1PMEY8JWH8KBXPUYIK","28","0","COMMUNITY","0","5","1","2305","community","0","2017-03-29 17:03:13","32281"
"AY6HFCSWZJ9WD","cs_wg_v3_poss_real1","3Q5C1WP23M26ZVGWFZTTEC5WLIG15G","21","0","COMMUNITY","10","5","1","7911","community","10
","2017-03-29 17:03:13","32282"
"A3KECQ3YIW2I0F","cs_wg_v3_poss_real1","3RUIQRXJBBPXRRNL0WRJFGA75EKLLT","39","1","BASKET","5","5","1","1138","BASKET",,"2017-03-29 17:03:14","32283"
"A3TYA2ATHN50AW","cs_wg_v3_poss_real1","31LVTDXBL7B8UPIY5GOF1SJ6B69LRJ","37","0","UMBRELLA","0","5","1","2375","UMBRELLA","0","2017-03-29 17:03:14","32284"
"AD1WGUMVD6KED","cs_wg_v3_poss_real1","36U2A8VAG1067KC2YB48UOZOPTJYKV","43","1","UMBRELLA","5","5","1","1131","umbrella",,"2017-03-29 17:03:14","32285"
"A1N4AZ1QXPOPXH","cs_wg_v3_poss_real1","3VSOLARPKBALALWN5TKTELPV5YD391","23","0","WEDDING","0","5","0","477","wedding","0","2017-03-29 17:03:15","32286"
"A30V0XGG1XNYI7","cs_wg_v3_poss_real1","3TOK3KHVJTJ6IR1G9U61OSW05ZKO74","42","0","TRAFFIC","10","5","0","890","TRAFFIC ","10","2017-03-29 17:03:15","32287"
"A1P8M5BKOTAA8I","cs_wg_v3_poss_real1","3FK0YFF9PZH3J1B9S4VVPY6BNAOVV5","2","1","TRAFFIC","5","5","1","6065","TRAFFIC","5","2017-03-29 17:03:15","32288"
"A28FW73RBVGYZ9","cs_wg_v3_poss_real1","3YDTZAI2WXHO3CCW1UAJ9KZILML14B","1","0","BOOKSHELF","10","5","1","2935","bookshelf","10","2017-03-29 17:03:16","32289"
"A31PCN2LP7DP8I
","cs_wg_v3_poss_real1","3LWJHTCVCCNMIWT26QWH1P4HIOLQFI","23","1","LADDER","5","5","1","1555","ladder",,"2017-03-29 17:03:16","32290"
"AS30B1NLM2G4V","cs_wg_v3_poss_real1","3P1L2B7AD1Q5XCQIDO7B7XE10JPLOA","20","1","LADDER","5","5","1","1503","ladder",,"2017-03-29 17:03:17","32291"
