"subject","version","assignmentId","trial","trial_type","word","value","alt","choice","rt","resp","resp2","stamp","id"
"A2U7BMG19Q83GE","cs_wg_v6_real1","3NLZY2D53PQ8IO3YS1ZFW2928F0LQW","0","0","LADDER","1","MEAKEN","1","4757","Ladder",NULL,"2017-09-27 14:02:00","96253"
"A1YH4LT7EAYT47","cs_wg_v6_real1","3XCC1ODXDLCJLMYBXLWBIEI1E7PQRR","0","1","HELICOPTER","1","MUDLEY","1","8323","helicopter",NULL,"2017-09-27 14:02:10","96254"
"A1ZWJF3V4NXN6H","cs_wg_v6_real1","32XVDSJFPZYBWNJYQ2AT0XQOSECM2L","0","1","TRAFFIC","1","DROOFER","1","4503","Traffic",NULL,"2017-09-27 14:02:13","96255"
"A2U7BMG19Q83GE","cs_wg_v6_real1","3NLZY2D53PQ8IO3YS1ZFW2928F0LQW","1","1","BOOKSHELF","1","FROPED","1","2184","Bookshelf",NULL,"2017-09-27 14:02:13","96256"
"A293AP4EOI44BS","cs_wg_v6_real1","3HHRAGRYX86AWAP9OR4L2ON7TK1O9U","0","0","STOMACH","1","FROPED","1","4364","stomach",NULL,"2017-09-27 14:02:17","96257"
"A11GMTJSTNR0YA","cs_wg_v6_real1","3P59JYT76LLF9I9IZZB5MBLGMM8T2T","0","0","FOOTBALL","1","WUGGED","1","5514","football",NULL,"2017-09-27 14:02:17","96258"
"A2IGPW784OFV3D","cs_wg_v6_real1","3DUZQ9U6SMPNR9U5Y9QQEBM5H1NVSE","0","1","UMBRELLA","1","CLEEPERS","1","5599","umbrella",NULL,"2017-09-27 14:02:17","96259"
"A28WSBB0DSV47X","cs_wg_v6_real1","33IZTU6J812FVYZ0YOR82WJQXCVSXE","0","0","STOMACH","1","VATED","1","11745","Stomatch",NULL,"2017-09-27 14:02:18","96260"
"A1R6ZLM9V362F7","cs_wg_v6_real1","3A0EX8ZRN8P5EH88SYRFVLGZVU3YBP","0","0","FOOTBALL","1","BLICKET","1","6280","football",NULL,"2017-09-27 14:02:23","96261"
"A3NWXWSXFJG8BI","cs_wg_v6_real1","3PS7W85Z8Z3Q92UHK8QKWYTUSSIT9L","0","0","KEYBOARD","1","DUNCHED","1","5034","keyboard",NULL,"2017-09-27 14:02:23","96262"
"A2U7BMG19Q83GE","cs_wg_v6_real1","3NLZY2D53PQ8IO3YS1ZFW2928F0LQW","2","0","MACHINE","1","MEAKEN","1","2248","Machine",NULL,"2017-09-27 14:02:24","96263"
"A1YH4LT7EAYT47","cs_wg_v6_real1","3XCC1ODXDLCJLMYBXLWBIEI1E7PQRR","1","1","BOOKSHELF","1","PLIBBERED","1","4653","bookshelf",NULL,"2017-09-27 14:02:25","96264"
"A1ZWJF3V4NXN6H","cs_wg_v6_real1","32XVDSJFPZYBWNJYQ2AT0XQOSECM2L","1","1","DOORWAY","1","BLICKET","1","4319","Doorway",NULL,"2017-09-27 14:02:28","96265"
"A11GMTJSTNR0YA","cs_wg_v6_real1","3P59JYT76LLF9I9IZZB5MBLGMM8T2T","1","1","TRAFFIC","1","ROAKING","1","3545","traffic",NULL,"2017-09-27 14:02:28","96266"
"A293AP4EOI44BS","cs_wg_v6_real1","3HHRAGRYX86AWAP9OR4L2ON7TK1O9U","1","0","FOOTBALL","1","FIPPING","1","3570","football",NULL,"2017-09-27 14:02:30","96267"
"A2U7BMG19Q83GE","cs_wg_v6_real1","3NLZY2D53PQ8IO3YS1ZFW2928F0LQW","3","1","TRAFFIC","1","CLEEPERS","1","1447","traffic",NULL,"2017-09-27 14:02:33","96268"
"A28WSBB0DSV47X","cs_wg_v6_real1","33IZTU6J812FVYZ0YOR82WJQXCVSXE","1","0","BASKET","1","CHOOTH","1","4385","Basket",NULL,"2017-09-27 14:02:33","96269"
"A1YIMBPJ9MUKLJ","cs_wg_v6_real1","3BDCF01OGXVHRQUKJBG99OC47OHLYZ","0","0","FOOTBALL","1","WUGGED","1","4085","football",NULL,"2017-09-27 14:02:34","96270"
"A1R6ZLM9V362F7","cs_wg_v6_real1","3A0EX8ZRN8P5EH88SYRFVLGZVU3YBP","1","1","KEYBOARD","1","SNAVE","1","2799","keyboard",NULL,"2017-09-27 14:02:35","96271"
"A1YH4LT7EAYT47","cs_wg_v6_real1","3XCC1ODXDLCJLMYBXLWBIEI1E7PQRR","2","0","HELICOPTER","1","ZORING","1","2561","helicopter",NULL,"2017-09-27 14:02:35","96272"
"A3NWXWSXFJG8BI","cs_wg_v6_real1","3PS7W85Z8Z3Q92UHK8QKWYTUSSIT9L","1","1","STOMACH","1","WUGGED","1","2930","stomach",NULL,"2017-09-27 14:02:36","96273"
"A2IGPW784OFV3D","cs_wg_v6_real1","3DUZQ9U6SMPNR9U5Y9QQEBM5H1NVSE","1","0","DOORWAY","1","ZALEY","1","4622","DOORWAY",NULL,"2017-09-27 14:02:37","96274"
"AXKODH8S4ABAB","cs_wg_v6_real1","33C7UALJVLZPMDZYDX0WQWFOG3A18W","0","1","LADDER","1","SCREEP","1","3563","ladder",NULL,"2017-09-27 14:02:37","96275"
"A1ZWJF3V4NXN6H","cs_wg_v6_real1","32XVDSJFPZYBWNJYQ2AT0XQOSECM2L","2","1","STOMACH","1","STEAVES","1","2558","Stomach",NULL,"2017-09-27 14:02:40","96276"
"A11GMTJSTNR0YA","cs_wg_v6_real1","3P59JYT76LLF9I9IZZB5MBLGMM8T2T","2","0","FOOTBALL","1","FROPED","1","2955","football",NULL,"2017-09-27 14:02:42","96277"
"A2U7BMG19Q83GE","cs_wg_v6_real1","3NLZY2D53PQ8IO3YS1ZFW2928F0LQW","4","0","KEYBOARD","1","FROPED","1","1558","keyboard",NULL,"2017-09-27 14:02:43","96278"
"A3B9OZQTE4US3T","cs_wg_v6_real1","34Z02EIMISE8D864KC7R3NS1POP0TH","0","0","STOMACH","1","VATED","1","5944","stomach",NULL,"2017-09-27 14:02:43","96279"
"A1R6ZLM9V362F7","cs_wg_v6_real1","3A0EX8ZRN8P5EH88SYRFVLGZVU3YBP","2","0","WEDDING","1","CHAXED","1","2449","wedding",NULL,"2017-09-27 14:02:44","96280"
"A28WSBB0DSV47X","cs_wg_v6_real1","33IZTU6J812FVYZ0YOR82WJQXCVSXE","2","0","MACHINE","1","WOOKED","1","4568","MACHINE",NULL,"2017-09-27 14:02:44","96281"
"A2EJ06OGI9671Q","cs_wg_v6_real1","3B837J3LDOXVY2DOPPLGDEX2WVASRI","0","0","KEYBOARD","1","NARDLY","1","4476","keyboard",NULL,"2017-09-27 14:02:45","96282"
"A1YH4LT7EAYT47","cs_wg_v6_real1","3XCC1ODXDLCJLMYBXLWBIEI1E7PQRR","3","1","BASKET","1","ROAKING","1","4031","BASKET",NULL,"2017-09-27 14:02:45","96283"
"A17LIM50IMQN7Y","cs_wg_v6_real1","3UNH76FOCS61X8C5JNHO91RT7T7YME","0","1","UMBRELLA","1","POATS","1","5792","umbrella",NULL,"2017-09-27 14:02:46","96284"
"A3NWXWSXFJG8BI","cs_wg_v6_real1","3PS7W85Z8Z3Q92UHK8QKWYTUSSIT9L","2","0","UMBRELLA","1","FIPPING","1","2453","umbrella",NULL,"2017-09-27 14:02:46","96285"
"A1YIMBPJ9MUKLJ","cs_wg_v6_real1","3BDCF01OGXVHRQUKJBG99OC47OHLYZ","1","1","BOOKSHELF","1","SCRIGGED","1","2776","bookshelf",NULL,"2017-09-27 14:02:46","96286"
"A30MYN1DI6EJ8M","cs_wg_v6_real1","36AHBNMV1RDYTE6S6UILQB4ZYFFYDW","0","0","BOOKSHELF","1","MUDLEY","1","4253","BOOKSHELF",NULL,"2017-09-27 14:02:47","96287"
"AXKODH8S4ABAB","cs_wg_v6_real1","33C7UALJVLZPMDZYDX0WQWFOG3A18W","1","1","TRAFFIC","1","CHEEDLE","1","1915","traffic",NULL,"2017-09-27 14:02:47","96288"
"A33QI63NVR8CUO","cs_wg_v6_real1","39U1BHVTDLS4U0513ZPA5LQ8S08T34","0","1","STRUCTURE","1","MURRADS","1","7711","structure",NULL,"2017-09-27 14:02:48","96289"
"A3D7JEGMSYKCUJ","cs_wg_v6_real1","3J4Q2Z4UTY4OTIFXWF6H5DQI6M4QWU","0","1","WEDDING","1","SCREEP","1","6012","wedding",NULL,"2017-09-27 14:02:49","96290"
"A293AP4EOI44BS","cs_wg_v6_real1","3HHRAGRYX86AWAP9OR4L2ON7TK1O9U","2","0","MACHINE","1","CLEEPERS","1","10506","machine",NULL,"2017-09-27 14:02:50","96291"
"A1ZWJF3V4NXN6H","cs_wg_v6_real1","32XVDSJFPZYBWNJYQ2AT0XQOSECM2L","3","0","BASKET","1","MURRADS","1","3245","basket",NULL,"2017-09-27 14:02:51","96292"
"A2U7BMG19Q83GE","cs_wg_v6_real1","3NLZY2D53PQ8IO3YS1ZFW2928F0LQW","5","1","STRUCTURE","1","CLEEPERS","1","1407","structure",NULL,"2017-09-27 14:02:51","96293"
"A11GMTJSTNR0YA","cs_wg_v6_real1","3P59JYT76LLF9I9IZZB5MBLGMM8T2T","3","1","STRUCTURE","1","ROAKING","1","1987","structure",NULL,"2017-09-27 14:02:52","96294"
"A1YH4LT7EAYT47","cs_wg_v6_real1","3XCC1ODXDLCJLMYBXLWBIEI1E7PQRR","4","1","FOOTBALL","1","STEAVES","1","2858","FOOTBALL",NULL,"2017-09-27 14:02:53","96295"
"A3JDWMS5QJHREI","cs_wg_v6_real1","36NEMU28XFEX83H54MZ0O46DWL7WMD","0","0","STOMACH","1","FROPED","1","4540","stomach",NULL,"2017-09-27 14:02:54","96296"
"A29VPSFOR6OO5H","cs_wg_v6_real1","34S9DKFK73Q7FQX5VOWOMGGTCJHYNE","0","1","BASKET","1","SNAVE","1","6573","Basket",NULL,"2017-09-27 14:02:54","96297"
"A1G452MFAS690B","cs_wg_v6_real1","3VELCLL3GKKY1S9LLB620OWA37N1FD","0","0","MACHINE","1","STEAVES","1","5622","stove",NULL,"2017-09-27 14:02:55","96298"
"A28WSBB0DSV47X","cs_wg_v6_real1","33IZTU6J812FVYZ0YOR82WJQXCVSXE","3","0","WEDDING","1","SCREEP","1","4543","WEDDING",NULL,"2017-09-27 14:02:55","96299"
"A3NWXWSXFJG8BI","cs_wg_v6_real1","3PS7W85Z8Z3Q92UHK8QKWYTUSSIT9L","3","0","COMMUNITY","1","VATED","1","1698","community",NULL,"2017-09-27 14:02:55","96300"
"A3B9OZQTE4US3T","cs_wg_v6_real1","34Z02EIMISE8D864KC7R3NS1POP0TH","1","1","WEDDING","1","DROOFER","1","2540","wedding",NULL,"2017-09-27 14:02:55","96301"
"A8QJ1G6724G51
","cs_wg_v6_real1","3U8YCDAGXPHVLSEC38DWYIHE5HQ0Q3","0","0","BOOKSHELF","1","CHAXED","1","7711","bookshelf",NULL,"2017-09-27 14:02:55","96302"
"A1YIMBPJ9MUKLJ","cs_wg_v6_real1","3BDCF01OGXVHRQUKJBG99OC47OHLYZ","2","1","MACHINE","1","SNAVE","1","1183","machine",NULL,"2017-09-27 14:02:55","96303"
"A1R6ZLM9V362F7","cs_wg_v6_real1","3A0EX8ZRN8P5EH88SYRFVLGZVU3YBP","3","1","KEYBOARD","1","SNAVE","1","2811","keyboard",NULL,"2017-09-27 14:02:56","96304"
"A17F06M11XQX6S","cs_wg_v6_real1","3D3VGR7TA0GRELS9ZAKF56PQ4FBR3P","0","1","KEYBOARD","1","HOTCHACK","1","3851","keyboard",NULL,"2017-09-27 14:02:57","96305"
"A2IGPW784OFV3D","cs_wg_v6_real1","3DUZQ9U6SMPNR9U5Y9QQEBM5H1NVSE","2","0","BOOKSHELF","1","GLUNDLE","1","3619","Bookshelf",NULL,"2017-09-27 14:02:58","96306"
"A2GF7PYHT21U3X","cs_wg_v6_real1","3IXQG4FA2TZQDG00KMZZW4N8MLJ9BC","0","0","BOOKSHELF","1","POATS","1","3911","bookshelf",NULL,"2017-09-27 14:02:58","96307"
"A2EJ06OGI9671Q","cs_wg_v6_real1","3B837J3LDOXVY2DOPPLGDEX2WVASRI","1","1","STRUCTURE","1","VATED","1","3786","structure",NULL,"2017-09-27 14:02:59","96308"
"AXKODH8S4ABAB","cs_wg_v6_real1","33C7UALJVLZPMDZYDX0WQWFOG3A18W","2","0","HELICOPTER","1","SNAVE","1","2292","helicopter",NULL,"2017-09-27 14:03:00","96309"
"A30MYN1DI6EJ8M","cs_wg_v6_real1","36AHBNMV1RDYTE6S6UILQB4ZYFFYDW","1","1","UMBRELLA","1","CHOOTH","1","2828","UMBRELLA",NULL,"2017-09-27 14:03:00","96310"
"A2U7BMG19Q83GE","cs_wg_v6_real1","3NLZY2D53PQ8IO3YS1ZFW2928F0LQW","6","1","FOOTBALL","1","CHAXED","1","1488","football",NULL,"2017-09-27 14:03:01","96311"
"A1ZWJF3V4NXN6H","cs_wg_v6_real1","32XVDSJFPZYBWNJYQ2AT0XQOSECM2L","4","1","WEDDING","1","WUGGED","1","1587","wedding",NULL,"2017-09-27 14:03:01","96312"
"A293AP4EOI44BS","cs_wg_v6_real1","3HHRAGRYX86AWAP9OR4L2ON7TK1O9U","3","1","WEDDING","1","CHEEDLE","1","2191","wedding",NULL,"2017-09-27 14:03:01","96313"
"A1YH4LT7EAYT47","cs_wg_v6_real1","3XCC1ODXDLCJLMYBXLWBIEI1E7PQRR","5","1","STOMACH","1","DROOFER","1","2563","STOMACH",NULL,"2017-09-27 14:03:02","96314"
"A3D7JEGMSYKCUJ","cs_wg_v6_real1","3J4Q2Z4UTY4OTIFXWF6H5DQI6M4QWU","1","0","DOORWAY","1","DROOFER","1","4185","doorway",NULL,"2017-09-27 14:03:03","96315"
"A11GMTJSTNR0YA","cs_wg_v6_real1","3P59JYT76LLF9I9IZZB5MBLGMM8T2T","4","1","TRAFFIC","1","JADDEARED","1","1912","traffic",NULL,"2017-09-27 14:03:03","96316"
"A17LIM50IMQN7Y","cs_wg_v6_real1","3UNH76FOCS61X8C5JNHO91RT7T7YME","1","0","STRUCTURE","1","NARDLY","1","6388","structure",NULL,"2017-09-27 14:03:04","96317"
"A3NWXWSXFJG8BI","cs_wg_v6_real1","3PS7W85Z8Z3Q92UHK8QKWYTUSSIT9L","4","0","KEYBOARD","1","THOCKY","1","2194","keyboard",NULL,"2017-09-27 14:03:04","96318"
"A1G452MFAS690B","cs_wg_v6_real1","3VELCLL3GKKY1S9LLB620OWA37N1FD","1","1","FOOTBALL","1","DUNCHED","1","1783","football",NULL,"2017-09-27 14:03:05","96319"
"A3B9OZQTE4US3T","cs_wg_v6_real1","34Z02EIMISE8D864KC7R3NS1POP0TH","2","0","STOMACH","1","POATS","1","3109","stomach",NULL,"2017-09-27 14:03:05","96320"
"A29VPSFOR6OO5H","cs_wg_v6_real1","34S9DKFK73Q7FQX5VOWOMGGTCJHYNE","1","0","STRUCTURE","1","MEAKEN","1","2735","Structure",NULL,"2017-09-27 14:03:05","96321"
"A1R6ZLM9V362F7","cs_wg_v6_real1","3A0EX8ZRN8P5EH88SYRFVLGZVU3YBP","4","0","DOORWAY","1","MICKERED","1","2493","doorway",NULL,"2017-09-27 14:03:05","96322"
"A3JDWMS5QJHREI","cs_wg_v6_real1","36NEMU28XFEX83H54MZ0O46DWL7WMD","1","0","LADDER","1","POATS","1","3220","ladder",NULL,"2017-09-27 14:03:06","96323"
"A33QI63NVR8CUO","cs_wg_v6_real1","39U1BHVTDLS4U0513ZPA5LQ8S08T34","1","1","COMMUNITY","1","MURRADS","1","6047","community",NULL,"2017-09-27 14:03:06","96324"
"A1YIMBPJ9MUKLJ","cs_wg_v6_real1","3BDCF01OGXVHRQUKJBG99OC47OHLYZ","3","0","BASKET","1","ZORING","1","2989","basket",NULL,"2017-09-27 14:03:06","96325"
"A28WSBB0DSV47X","cs_wg_v6_real1","33IZTU6J812FVYZ0YOR82WJQXCVSXE","4","1","TRAFFIC","1","MURRADS","1","5494","TRAFFIC",NULL,"2017-09-27 14:03:06","96326"
"A2GF7PYHT21U3X","cs_wg_v6_real1","3IXQG4FA2TZQDG00KMZZW4N8MLJ9BC","1","1","STRUCTURE","1","MEAKEN","1","3260","structure",NULL,"2017-09-27 14:03:09","96327"
"A17F06M11XQX6S","cs_wg_v6_real1","3D3VGR7TA0GRELS9ZAKF56PQ4FBR3P","1","0","MACHINE","1","MURRADS","1","2920","machine",NULL,"2017-09-27 14:03:10","96328"
"AXKODH8S4ABAB","cs_wg_v6_real1","33C7UALJVLZPMDZYDX0WQWFOG3A18W","3","1","KEYBOARD","1","HOTCHACK","1","2179","keyboard",NULL,"2017-09-27 14:03:10","96329"
"A30MYN1DI6EJ8M","cs_wg_v6_real1","36AHBNMV1RDYTE6S6UILQB4ZYFFYDW","2","0","HELICOPTER","1","SCRIGGED","1","4313","HELICOPTER",NULL,"2017-09-27 14:03:10","96330"
"A1YH4LT7EAYT47","cs_wg_v6_real1","3XCC1ODXDLCJLMYBXLWBIEI1E7PQRR","6","0","LADDER","1","SURSED","1","2790","LADDER",NULL,"2017-09-27 14:03:10","96331"
"A2U7BMG19Q83GE","cs_wg_v6_real1","3NLZY2D53PQ8IO3YS1ZFW2928F0LQW","7","0","UMBRELLA","1","WOOKED","1","1624","umbrella",NULL,"2017-09-27 14:03:11","96332"
"A1ZWJF3V4NXN6H","cs_wg_v6_real1","32XVDSJFPZYBWNJYQ2AT0XQOSECM2L","5","0","KEYBOARD","1","GLUNDLE","1","1735","KEYBOARD",NULL,"2017-09-27 14:03:11","96333"
"A2EJ06OGI9671Q","cs_wg_v6_real1","3B837J3LDOXVY2DOPPLGDEX2WVASRI","2","0","KEYBOARD","1","SURSED","1","3061","keyboard",NULL,"2017-09-27 14:03:11","96334"
"A2L24GZ7YWKGDE","cs_wg_v6_real1","3EA3QWIZ4IWJK3NKO2WX9RSXBI5TI4","0","0","TRAFFIC","1","SNAVE","0","9311","TRAFFIC",NULL,"2017-09-27 14:03:12","96335"
"A293AP4EOI44BS","cs_wg_v6_real1","3HHRAGRYX86AWAP9OR4L2ON7TK1O9U","4","1","TRAFFIC","1","MURRADS","1","2673","traffic",NULL,"2017-09-27 14:03:12","96336"
"A3NWXWSXFJG8BI","cs_wg_v6_real1","3PS7W85Z8Z3Q92UHK8QKWYTUSSIT9L","5","1","COMMUNITY","1","CHAXED","1","1597","community",NULL,"2017-09-27 14:03:13","96337"
"A1G452MFAS690B","cs_wg_v6_real1","3VELCLL3GKKY1S9LLB620OWA37N1FD","2","1","DOORWAY","1","WUGGED","1","1583","doorway",NULL,"2017-09-27 14:03:13","96338"
"A8QJ1G6724G51
","cs_wg_v6_real1","3U8YCDAGXPHVLSEC38DWYIHE5HQ0Q3","1","1","BOOKSHELF","1","CLEEPERS","1","5925","bookshelf",NULL,"2017-09-27 14:03:14","96339"
"A36W1S4Z2LSNTC","cs_wg_v6_real1","37ZHEEHM6WNHW28UQWM90PYQ33I373","0","1","DOORWAY","1","ZORING","1","7747","DOORWAY",NULL,"2017-09-27 14:03:14","96340"
"A1R6ZLM9V362F7","cs_wg_v6_real1","3A0EX8ZRN8P5EH88SYRFVLGZVU3YBP","5","1","MACHINE","1","MUDLEY","1","2102","machine",NULL,"2017-09-27 14:03:14","96341"
"A29VPSFOR6OO5H","cs_wg_v6_real1","34S9DKFK73Q7FQX5VOWOMGGTCJHYNE","2","0","FOOTBALL","1","POATS","1","1871","Football",NULL,"2017-09-27 14:03:14","96342"
"A3B9OZQTE4US3T","cs_wg_v6_real1","34Z02EIMISE8D864KC7R3NS1POP0TH","3","0","BASKET","1","TINGER","1","2869","basket",NULL,"2017-09-27 14:03:15","96343"
"A3D7JEGMSYKCUJ","cs_wg_v6_real1","3J4Q2Z4UTY4OTIFXWF6H5DQI6M4QWU","2","0","TRAFFIC","1","MICKERED","1","3274","traffic",NULL,"2017-09-27 14:03:15","96344"
"A33YX15T1HYFMW","cs_wg_v6_real1","3G5W44VEU7J6LTR245I2NOSLDSMGKT","0","0","HELICOPTER","1","CHEEDLE","1","5788","helicoptor",NULL,"2017-09-27 14:03:15","96345"
"A1YIMBPJ9MUKLJ","cs_wg_v6_real1","3BDCF01OGXVHRQUKJBG99OC47OHLYZ","4","1","STOMACH","1","PLIBBERED","1","2893","stomach",NULL,"2017-09-27 14:03:15","96346"
"A28WSBB0DSV47X","cs_wg_v6_real1","33IZTU6J812FVYZ0YOR82WJQXCVSXE","5","1","HELICOPTER","1","ROAKING","1","3498","HELICOPTER",NULL,"2017-09-27 14:03:17","96347"
"A36CZ0F88ELFWF","cs_wg_v6_real1","3SB5N7Y3O35483KY0C8K44DCZUH0G8","0","1","BOOKSHELF","1","WOOKED","1","26355","Bookshelf",NULL,"2017-09-27 14:03:17","96348"
"A1YH4LT7EAYT47","cs_wg_v6_real1","3XCC1ODXDLCJLMYBXLWBIEI1E7PQRR","7","1","STOMACH","1","FIPPING","1","2693","STOMACH",NULL,"2017-09-27 14:03:18","96349"
"A30MYN1DI6EJ8M","cs_wg_v6_real1","36AHBNMV1RDYTE6S6UILQB4ZYFFYDW","3","1","KEYBOARD","1","SNAVE","1","3026","KEYBOARD",NULL,"2017-09-27 14:03:18","96350"
"A17LIM50IMQN7Y","cs_wg_v6_real1","3UNH76FOCS61X8C5JNHO91RT7T7YME","2","0","LADDER","1","FIPPING","1","4718","ladder",NULL,"2017-09-27 14:03:19","96351"
"A3J0ALXC5LRSSG","cs_wg_v6_real1","3B2X28YI3WG3VXY2MFWNCUW6WKB6BY","0","0","STRUCTURE","1","CHAXED","1","6969","STRUCTURE",NULL,"2017-09-27 14:03:19","96352"
"AXKODH8S4ABAB","cs_wg_v6_real1","33C7UALJVLZPMDZYDX0WQWFOG3A18W","4","1","BOOKSHELF","1","DUNCHED","1","1762","bookshelf",NULL,"2017-09-27 14:03:19","96353"
"A2IGPW784OFV3D","cs_wg_v6_real1","3DUZQ9U6SMPNR9U5Y9QQEBM5H1NVSE","3","1","UMBRELLA","1","CHEEDLE","1","3987","UMBRELLA",NULL,"2017-09-27 14:03:20","96354"
"A2MPCT1O95PVL9","cs_wg_v6_real1","30IQTZXKAK7FUPFOPM8OSQD72KD0X0","0","1","DOORWAY","1","FLEMMERING","1","4312","DOORWAY",NULL,"2017-09-27 14:03:20","96355"
"A2GF7PYHT21U3X","cs_wg_v6_real1","3IXQG4FA2TZQDG00KMZZW4N8MLJ9BC","2","0","DOORWAY","1","CLEEPERS","1","4589","doorway",NULL,"2017-09-27 14:03:20","96356"
"A3JDWMS5QJHREI","cs_wg_v6_real1","36NEMU28XFEX83H54MZ0O46DWL7WMD","2","0","DOORWAY","1","MUDLEY","1","3195","doorway",NULL,"2017-09-27 14:03:21","96357"
"A1G452MFAS690B","cs_wg_v6_real1","3VELCLL3GKKY1S9LLB620OWA37N1FD","3","0","BASKET","1","WUGGED","1","1260","basket",NULL,"2017-09-27 14:03:21","96358"
"A3NWXWSXFJG8BI","cs_wg_v6_real1","3PS7W85Z8Z3Q92UHK8QKWYTUSSIT9L","6","1","BASKET","1","PLIBBERED","1","1934","basket",NULL,"2017-09-27 14:03:21","96359"
"A293AP4EOI44BS","cs_wg_v6_real1","3HHRAGRYX86AWAP9OR4L2ON7TK1O9U","5","1","STRUCTURE","1","CHAXED","1","1708","structure",NULL,"2017-09-27 14:03:22","96360"
"A3095ABT1L25QK","cs_wg_v6_real1","3570Y55XZPK15YGJ8KJTWW7WB7VYG6","0","0","TRAFFIC","1","FROPED","1","9737","traffic",NULL,"2017-09-27 14:03:22","96361"
"AU34T9OMHN4Z4","cs_wg_v6_real1","3QILPRALQ5WS0K6NIKYUN3SRJ4F8NB","0","0","MACHINE","1","MICKERED","1","6705","machine",NULL,"2017-09-27 14:03:22","96362"
"A1ZWJF3V4NXN6H","cs_wg_v6_real1","32XVDSJFPZYBWNJYQ2AT0XQOSECM2L","6","0","COMMUNITY","1","BLICKET","1","2152","COMMUNITY",NULL,"2017-09-27 14:03:23","96363"
"A2U7BMG19Q83GE","cs_wg_v6_real1","3NLZY2D53PQ8IO3YS1ZFW2928F0LQW","8","1","DOORWAY","1","TINGER","1","4608","doorway",NULL,"2017-09-27 14:03:23","96364"
"A17F06M11XQX6S","cs_wg_v6_real1","3D3VGR7TA0GRELS9ZAKF56PQ4FBR3P","2","0","FOOTBALL","1","FLEMMERING","1","3030","football",NULL,"2017-09-27 14:03:23","96365"
"A2EJ06OGI9671Q","cs_wg_v6_real1","3B837J3LDOXVY2DOPPLGDEX2WVASRI","3","0","WEDDING","1","ZORING","1","2201","wedding",NULL,"2017-09-27 14:03:23","96366"
"A33QI63NVR8CUO","cs_wg_v6_real1","39U1BHVTDLS4U0513ZPA5LQ8S08T34","2","1","UMBRELLA","1","SCRIGGED","1","4017","umbrella",NULL,"2017-09-27 14:03:23","96367"
"A1R6ZLM9V362F7","cs_wg_v6_real1","3A0EX8ZRN8P5EH88SYRFVLGZVU3YBP","6","0","TRAFFIC","1","CHEEDLE","1","2355","traffic",NULL,"2017-09-27 14:03:24","96368"
"A2L24GZ7YWKGDE","cs_wg_v6_real1","3EA3QWIZ4IWJK3NKO2WX9RSXBI5TI4","1","1","LADDER","1","STEAVES","1","3303","LADDER",NULL,"2017-09-27 14:03:24","96369"
"A36W1S4Z2LSNTC","cs_wg_v6_real1","37ZHEEHM6WNHW28UQWM90PYQ33I373","1","1","KEYBOARD","1","POATS","1","2240","KEYBOARD",NULL,"2017-09-27 14:03:24","96370"
"A8QJ1G6724G51
","cs_wg_v6_real1","3U8YCDAGXPHVLSEC38DWYIHE5HQ0Q3","2","0","WEDDING","1","FROPED","1","3723","wedding",NULL,"2017-09-27 14:03:25","96371"
"A29VPSFOR6OO5H","cs_wg_v6_real1","34S9DKFK73Q7FQX5VOWOMGGTCJHYNE","3","1","KEYBOARD","1","NARDLY","1","2369","Keyboard",NULL,"2017-09-27 14:03:26","96372"
"A3B9OZQTE4US3T","cs_wg_v6_real1","34Z02EIMISE8D864KC7R3NS1POP0TH","4","0","LADDER","1","POATS","1","2779","LADDER",NULL,"2017-09-27 14:03:26","96373"
"A30MYN1DI6EJ8M","cs_wg_v6_real1","36AHBNMV1RDYTE6S6UILQB4ZYFFYDW","4","0","LADDER","1","WOOKED","1","2722","LADDER",NULL,"2017-09-27 14:03:26","96374"
"A28WSBB0DSV47X","cs_wg_v6_real1","33IZTU6J812FVYZ0YOR82WJQXCVSXE","6","0","STRUCTURE","1","ZALEY","1","4226","STRUCTURE",NULL,"2017-09-27 14:03:27","96375"
"A1YH4LT7EAYT47","cs_wg_v6_real1","3XCC1ODXDLCJLMYBXLWBIEI1E7PQRR","8","0","DOORWAY","1","FROPED","1","2156","DOORWAY",NULL,"2017-09-27 14:03:27","96376"
"A21KXWKFWGBCZ3","cs_wg_v6_real1","3NVC2EB65Q00BM4VD5C9D2IN72R3Y4","0","1","LADDER","1","ROAKING","1","7756","ladder",NULL,"2017-09-27 14:03:27","96377"
"A1CGGZRO2JUQUG","cs_wg_v6_real1","3YWRV122CS05VAQWFLAG1YKLR088U3","0","0","UMBRELLA","1","GLUNDLE","1","5517","Umbrella",NULL,"2017-09-27 14:03:27","96378"
"A3D7JEGMSYKCUJ","cs_wg_v6_real1","3J4Q2Z4UTY4OTIFXWF6H5DQI6M4QWU","3","1","STOMACH","1","WOOKED","1","2277","stomach",NULL,"2017-09-27 14:03:27","96379"
"A1YIMBPJ9MUKLJ","cs_wg_v6_real1","3BDCF01OGXVHRQUKJBG99OC47OHLYZ","5","0","STRUCTURE","1","SCREEP","1","4445","structure",NULL,"2017-09-27 14:03:28","96380"
"A3MKPYMUM6N5XQ","cs_wg_v6_real1","374TNBHA8BWSINAXBGO5QABYHU4YQ1","0","0","FOOTBALL","1","CLEEPERS","1","6710","football",NULL,"2017-09-27 14:03:29","96381"
"ALDQRWYZ8KQ9A","cs_wg_v6_real1","3S06PH7KSR5138VPU5BCCOTPRU71D2","0","0","FOOTBALL","1","GLUNDLE","1","7304","football",NULL,"2017-09-27 14:03:30","96382"
"A1G452MFAS690B","cs_wg_v6_real1","3VELCLL3GKKY1S9LLB620OWA37N1FD","4","0","DOORWAY","1","SCREEP","1","2074","doorway",NULL,"2017-09-27 14:03:30","96383"
"AXKODH8S4ABAB","cs_wg_v6_real1","33C7UALJVLZPMDZYDX0WQWFOG3A18W","5","0","UMBRELLA","1","ZORING","1","1888","umbrella",NULL,"2017-09-27 14:03:30","96384"
"A3NWXWSXFJG8BI","cs_wg_v6_real1","3PS7W85Z8Z3Q92UHK8QKWYTUSSIT9L","7","0","BOOKSHELF","1","FIPPING","1","1654","bookshelf",NULL,"2017-09-27 14:03:30","96385"
"A2MPCT1O95PVL9","cs_wg_v6_real1","30IQTZXKAK7FUPFOPM8OSQD72KD0X0","1","1","BASKET","1","ZALEY","1","2308","basket",NULL,"2017-09-27 14:03:30","96386"
"A2U7BMG19Q83GE","cs_wg_v6_real1","3NLZY2D53PQ8IO3YS1ZFW2928F0LQW","9","0","BOOKSHELF","1","STEAVES","1","1343","bookshelf",NULL,"2017-09-27 14:03:32","96387"
"A2RN74UCHE5CYI","cs_wg_v6_real1","3OUYGIZWR7ZALGDX3VY7YDR40L40PC","0","1","STOMACH","1","NARDLY","1","4960","stomach",NULL,"2017-09-27 14:03:32","96388"
"A17LIM50IMQN7Y","cs_wg_v6_real1","3UNH76FOCS61X8C5JNHO91RT7T7YME","3","1","STOMACH","1","MURRADS","0","2702","stomach",NULL,"2017-09-27 14:03:32","96389"
"A33YX15T1HYFMW","cs_wg_v6_real1","3G5W44VEU7J6LTR245I2NOSLDSMGKT","1","0","HELICOPTER","1","CHOOTH","1","4302","helicopter",NULL,"2017-09-27 14:03:33","96390"
"A293AP4EOI44BS","cs_wg_v6_real1","3HHRAGRYX86AWAP9OR4L2ON7TK1O9U","6","1","FOOTBALL","1","HOTCHACK","1","2472","football",NULL,"2017-09-27 14:03:33","96391"
"A36W1S4Z2LSNTC","cs_wg_v6_real1","37ZHEEHM6WNHW28UQWM90PYQ33I373","2","1","KEYBOARD","1","WUGGED","1","1633","KEYBOARD",NULL,"2017-09-27 14:03:33","96392"
"A2EJ06OGI9671Q","cs_wg_v6_real1","3B837J3LDOXVY2DOPPLGDEX2WVASRI","4","1","FOOTBALL","1","MICKERED","1","2169","football",NULL,"2017-09-27 14:03:33","96393"
"A3J0ALXC5LRSSG","cs_wg_v6_real1","3B2X28YI3WG3VXY2MFWNCUW6WKB6BY","1","1","COMMUNITY","1","MURRADS","1","2223","Community
",NULL,"2017-09-27 14:03:33","96394"
"A29VPSFOR6OO5H","cs_wg_v6_real1","34S9DKFK73Q7FQX5VOWOMGGTCJHYNE","4","1","MACHINE","1","BLICKET","1","1517","Machine",NULL,"2017-09-27 14:03:34","96395"
"A1YH4LT7EAYT47","cs_wg_v6_real1","3XCC1ODXDLCJLMYBXLWBIEI1E7PQRR","9","0","MACHINE","1","FROPED","1","1838","MACHINE",NULL,"2017-09-27 14:03:34","96396"
"A30MYN1DI6EJ8M","cs_wg_v6_real1","36AHBNMV1RDYTE6S6UILQB4ZYFFYDW","5","0","BOOKSHELF","1","VATED","1","2347","BOOKSHELF",NULL,"2017-09-27 14:03:34","96397"
"A1ZWJF3V4NXN6H","cs_wg_v6_real1","32XVDSJFPZYBWNJYQ2AT0XQOSECM2L","7","1","STOMACH","1","STEAVES","1","2384","STOMACH",NULL,"2017-09-27 14:03:35","96398"
"A2IGPW784OFV3D","cs_wg_v6_real1","3DUZQ9U6SMPNR9U5Y9QQEBM5H1NVSE","4","0","DOORWAY","1","MEAKEN","1","2791","DOORWAY",NULL,"2017-09-27 14:03:36","96399"
"A17F06M11XQX6S","cs_wg_v6_real1","3D3VGR7TA0GRELS9ZAKF56PQ4FBR3P","3","1","STRUCTURE","1","MUDLEY","1","4541","structure",NULL,"2017-09-27 14:03:37","96400"
"A2L24GZ7YWKGDE","cs_wg_v6_real1","3EA3QWIZ4IWJK3NKO2WX9RSXBI5TI4","2","0","HELICOPTER","1","CHOOTH","1","5883","HELICOPTER",NULL,"2017-09-27 14:03:37","96401"
"A33QI63NVR8CUO","cs_wg_v6_real1","39U1BHVTDLS4U0513ZPA5LQ8S08T34","3","0","MACHINE","1","CHAXED","1","2231","machine",NULL,"2017-09-27 14:03:37","96402"
"A1G452MFAS690B","cs_wg_v6_real1","3VELCLL3GKKY1S9LLB620OWA37N1FD","5","0","LADDER","1","ZORING","1","1306","ladder",NULL,"2017-09-27 14:03:37","96403"
"A28WSBB0DSV47X","cs_wg_v6_real1","33IZTU6J812FVYZ0YOR82WJQXCVSXE","7","1","UMBRELLA","1","SURSED","1","3353","UMBRELLA",NULL,"2017-09-27 14:03:38","96404"
"A3JDWMS5QJHREI","cs_wg_v6_real1","36NEMU28XFEX83H54MZ0O46DWL7WMD","3","0","COMMUNITY","1","CHAXED","1","2584","Community",NULL,"2017-09-27 14:03:38","96405"
"A21KXWKFWGBCZ3","cs_wg_v6_real1","3NVC2EB65Q00BM4VD5C9D2IN72R3Y4","1","0","STOMACH","1","SNAVE","1","2561","stomach",NULL,"2017-09-27 14:03:38","96406"
"A3095ABT1L25QK","cs_wg_v6_real1","3570Y55XZPK15YGJ8KJTWW7WB7VYG6","1","0","LADDER","1","MUDLEY","1","4762","ladder",NULL,"2017-09-27 14:03:38","96407"
"A1G17IJC53N6K3","cs_wg_v6_real1","3X0H8UUIT1P06YUAOJVM0D5JOAPSWL","0","1","STOMACH","1","WOOKED","1","9885","STOMACH",NULL,"2017-09-27 14:03:38","96408"
"A1CGGZRO2JUQUG","cs_wg_v6_real1","3YWRV122CS05VAQWFLAG1YKLR088U3","1","0","DOORWAY","1","NARDLY","1","3172","DOORWAY",NULL,"2017-09-27 14:03:38","96409"
"A1YIMBPJ9MUKLJ","cs_wg_v6_real1","3BDCF01OGXVHRQUKJBG99OC47OHLYZ","6","0","TRAFFIC","1","TINGER","1","2199","traffic",NULL,"2017-09-27 14:03:38","96410"
"A1R6ZLM9V362F7","cs_wg_v6_real1","3A0EX8ZRN8P5EH88SYRFVLGZVU3YBP","7","0","BASKET","1","SCREEP","1","6440","basket",NULL,"2017-09-27 14:03:38","96411"
"A1ST4RTOTHAKMY","cs_wg_v6_real1","3OONKJ5DKCKTK346MBIHTUIXHK5BOS","0","1","BASKET","1","CHAXED","1","4313","Basket",NULL,"2017-09-27 14:03:39","96412"
"A2GF7PYHT21U3X","cs_wg_v6_real1","3IXQG4FA2TZQDG00KMZZW4N8MLJ9BC","3","0","MACHINE","1","NARDLY","1","3660","machine",NULL,"2017-09-27 14:03:39","96413"
"A3B9OZQTE4US3T","cs_wg_v6_real1","34Z02EIMISE8D864KC7R3NS1POP0TH","5","1","TRAFFIC","1","WOOKED","1","7138","TRAFFIC",NULL,"2017-09-27 14:03:39","96414"
"A3NWXWSXFJG8BI","cs_wg_v6_real1","3PS7W85Z8Z3Q92UHK8QKWYTUSSIT9L","8","1","MACHINE","1","NARDLY","1","1069","machine",NULL,"2017-09-27 14:03:39","96415"
"A3D7JEGMSYKCUJ","cs_wg_v6_real1","3J4Q2Z4UTY4OTIFXWF6H5DQI6M4QWU","4","0","STOMACH","1","POATS","1","2535","stomach",NULL,"2017-09-27 14:03:39","96416"
"A33XV57T69HVA","cs_wg_v6_real1","30LB5CDZNCB4ZKF3Q4W9PBTIAKAZ0V","0","1","BOOKSHELF","1","TINGER","1","4490","Bookshelf",NULL,"2017-09-27 14:03:40","96417"
"AXKODH8S4ABAB","cs_wg_v6_real1","33C7UALJVLZPMDZYDX0WQWFOG3A18W","6","1","TRAFFIC","1","MURRADS","1","2426","traffic",NULL,"2017-09-27 14:03:40","96418"
"A36CZ0F88ELFWF","cs_wg_v6_real1","3SB5N7Y3O35483KY0C8K44DCZUH0G8","1","0","FOOTBALL","1","TINGER","1","4332","football",NULL,"2017-09-27 14:03:40","96419"
"A2U7BMG19Q83GE","cs_wg_v6_real1","3NLZY2D53PQ8IO3YS1ZFW2928F0LQW","10","1","COMMUNITY","1","NARDLY","1","824","community",NULL,"2017-09-27 14:03:40","96420"
"A36W1S4Z2LSNTC","cs_wg_v6_real1","37ZHEEHM6WNHW28UQWM90PYQ33I373","3","1","FOOTBALL","1","FLEMMERING","1","1186","FOOTBALL",NULL,"2017-09-27 14:03:41","96421"
"A1YH4LT7EAYT47","cs_wg_v6_real1","3XCC1ODXDLCJLMYBXLWBIEI1E7PQRR","10","1","HELICOPTER","1","DUNCHED","1","1852","HELICOPTER",NULL,"2017-09-27 14:03:42","96422"
"A8QJ1G6724G51
","cs_wg_v6_real1","3U8YCDAGXPHVLSEC38DWYIHE5HQ0Q3","3","1","MACHINE","1","NARDLY","1","5490","machine",NULL,"2017-09-27 14:03:42","96423"
"A3MKPYMUM6N5XQ","cs_wg_v6_real1","374TNBHA8BWSINAXBGO5QABYHU4YQ1","1","1","UMBRELLA","1","MUDLEY","1","2374","umbrella",NULL,"2017-09-27 14:03:42","96424"
"A30MYN1DI6EJ8M","cs_wg_v6_real1","36AHBNMV1RDYTE6S6UILQB4ZYFFYDW","6","1","STOMACH","1","CHAXED","1","2973","STOMACH",NULL,"2017-09-27 14:03:42","96425"
"A29VPSFOR6OO5H","cs_wg_v6_real1","34S9DKFK73Q7FQX5VOWOMGGTCJHYNE","5","0","BASKET","1","DUNCHED","1","1364","Basket",NULL,"2017-09-27 14:03:43","96426"
"ALDQRWYZ8KQ9A","cs_wg_v6_real1","3S06PH7KSR5138VPU5BCCOTPRU71D2","1","1","HELICOPTER","1","ZALEY","1","2434","helicopter",NULL,"2017-09-27 14:03:43","96427"
"A2EJ06OGI9671Q","cs_wg_v6_real1","3B837J3LDOXVY2DOPPLGDEX2WVASRI","5","0","TRAFFIC","1","CHAXED","1","2255","traffic",NULL,"2017-09-27 14:03:43","96428"
"A293AP4EOI44BS","cs_wg_v6_real1","3HHRAGRYX86AWAP9OR4L2ON7TK1O9U","7","1","DOORWAY","1","SURSED","1","2537","doorway",NULL,"2017-09-27 14:03:44","96429"
"A3J0ALXC5LRSSG","cs_wg_v6_real1","3B2X28YI3WG3VXY2MFWNCUW6WKB6BY","2","0","UMBRELLA","1","DUNCHED","1","2208","umbrella",NULL,"2017-09-27 14:03:44","96430"
"A1ZWJF3V4NXN6H","cs_wg_v6_real1","32XVDSJFPZYBWNJYQ2AT0XQOSECM2L","8","0","LADDER","1","MEAKEN","1","2250","LADDER",NULL,"2017-09-27 14:03:44","96431"
"A1G452MFAS690B","cs_wg_v6_real1","3VELCLL3GKKY1S9LLB620OWA37N1FD","6","0","MACHINE","1","MEAKEN","1","1710","machine",NULL,"2017-09-27 14:03:45","96432"
"A33YX15T1HYFMW","cs_wg_v6_real1","3G5W44VEU7J6LTR245I2NOSLDSMGKT","2","1","LADDER","1","STEAVES","1","3060","ladder",NULL,"2017-09-27 14:03:45","96433"
"A17LIM50IMQN7Y","cs_wg_v6_real1","3UNH76FOCS61X8C5JNHO91RT7T7YME","4","0","BOOKSHELF","1","GLUNDLE","1","3749","bookshelf",NULL,"2017-09-27 14:03:46","96434"
"A2RN74UCHE5CYI","cs_wg_v6_real1","3OUYGIZWR7ZALGDX3VY7YDR40L40PC","1","0","STRUCTURE","1","SURSED","1","3747","structure",NULL,"2017-09-27 14:03:47","96435"
"A10LGIY5HFYMZM","cs_wg_v6_real1","3IUZPWIU1O82IFH2JAMK9RE97GCWK8","0","0","LADDER","1","THOCKY","1","7422","LADDER",NULL,"2017-09-27 14:03:47","96436"
"A1YIMBPJ9MUKLJ","cs_wg_v6_real1","3BDCF01OGXVHRQUKJBG99OC47OHLYZ","7","0","FOOTBALL","1","MICKERED","1","2158","football",NULL,"2017-09-27 14:03:47","96437"
"A28WSBB0DSV47X","cs_wg_v6_real1","33IZTU6J812FVYZ0YOR82WJQXCVSXE","8","1","KEYBOARD","1","PLIBBERED","1","3545","KEYBOARD",NULL,"2017-09-27 14:03:48","96438"
"A17F06M11XQX6S","cs_wg_v6_real1","3D3VGR7TA0GRELS9ZAKF56PQ4FBR3P","4","0","STRUCTURE","1","SCREEP","1","2695","structure",NULL,"2017-09-27 14:03:48","96439"
"A3NWXWSXFJG8BI","cs_wg_v6_real1","3PS7W85Z8Z3Q92UHK8QKWYTUSSIT9L","9","1","BOOKSHELF","1","MURRADS","1","1343","bookshelf",NULL,"2017-09-27 14:03:48","96440"
"A2NTS2HNDOLRCR","cs_wg_v6_real1","3MD9PLUKKIF7KG7ARAY70NPVIDLZN6","0","0","STOMACH","1","FIPPING","1","3834","stomach",NULL,"2017-09-27 14:03:48","96441"
"A1G17IJC53N6K3","cs_wg_v6_real1","3X0H8UUIT1P06YUAOJVM0D5JOAPSWL","1","1","WEDDING","1","WUGGED","1","1632","WEDDING",NULL,"2017-09-27 14:03:48","96442"
"A2GF7PYHT21U3X","cs_wg_v6_real1","3IXQG4FA2TZQDG00KMZZW4N8MLJ9BC","4","0","COMMUNITY","1","MURRADS","1","2449","community",NULL,"2017-09-27 14:03:49","96443"
"A2U7BMG19Q83GE","cs_wg_v6_real1","3NLZY2D53PQ8IO3YS1ZFW2928F0LQW","11","0","WEDDING","1","VATED","1","1471","wedding",NULL,"2017-09-27 14:03:49","96444"
"A3B9OZQTE4US3T","cs_wg_v6_real1","34Z02EIMISE8D864KC7R3NS1POP0TH","6","0","LADDER","1","FIPPING","1","4014","LADDER",NULL,"2017-09-27 14:03:49","96445"
"A1ST4RTOTHAKMY","cs_wg_v6_real1","3OONKJ5DKCKTK346MBIHTUIXHK5BOS","1","0","FOOTBALL","1","GLUNDLE","1","2995","football",NULL,"2017-09-27 14:03:49","96446"
"A2L24GZ7YWKGDE","cs_wg_v6_real1","3EA3QWIZ4IWJK3NKO2WX9RSXBI5TI4","3","1","COMMUNITY","1","SNAVE","1","5884","COMMUNITY",NULL,"2017-09-27 14:03:49","96447"
"A36W1S4Z2LSNTC","cs_wg_v6_real1","37ZHEEHM6WNHW28UQWM90PYQ33I373","4","1","FOOTBALL","1","GLUNDLE","1","1850","FOOTBALL",NULL,"2017-09-27 14:03:50","96448"
"A8QJ1G6724G51
","cs_wg_v6_real1","3U8YCDAGXPHVLSEC38DWYIHE5HQ0Q3","4","0","WEDDING","1","FROPED","1","1434","wedding",NULL,"2017-09-27 14:03:50","96449"
"A1YH4LT7EAYT47","cs_wg_v6_real1","3XCC1ODXDLCJLMYBXLWBIEI1E7PQRR","11","0","DOORWAY","1","TINGER","1","2398","DOORWAY",NULL,"2017-09-27 14:03:51","96450"
"A3D7JEGMSYKCUJ","cs_wg_v6_real1","3J4Q2Z4UTY4OTIFXWF6H5DQI6M4QWU","5","1","WEDDING","1","ROAKING","1","2629","wedding",NULL,"2017-09-27 14:03:51","96451"
"A11GMTJSTNR0YA","cs_wg_v6_real1","3P59JYT76LLF9I9IZZB5MBLGMM8T2T","5","1","WEDDING","1","CHAXED","1","1734","wedding",NULL,"2017-09-27 14:03:51","96452"
"A30MYN1DI6EJ8M","cs_wg_v6_real1","36AHBNMV1RDYTE6S6UILQB4ZYFFYDW","7","1","UMBRELLA","1","VATED","1","3408","UMBRELLA",NULL,"2017-09-27 14:03:51","96453"
"A2IGPW784OFV3D","cs_wg_v6_real1","3DUZQ9U6SMPNR9U5Y9QQEBM5H1NVSE","5","0","WEDDING","1","SURSED","1","2808","WEDDING",NULL,"2017-09-27 14:03:52","96454"
"ABHKTBF20ZL6G","cs_wg_v6_real1","37QW5D2ZRGNPGXYSQGFGMX2X63N8SN","0","1","STOMACH","1","CHAXED","1","8614","stomach",NULL,"2017-09-27 14:03:52","96455"
"A33QI63NVR8CUO","cs_wg_v6_real1","39U1BHVTDLS4U0513ZPA5LQ8S08T34","4","1","BASKET","1","SURSED","1","3021","basket",NULL,"2017-09-27 14:03:52","96456"
"A1CGGZRO2JUQUG","cs_wg_v6_real1","3YWRV122CS05VAQWFLAG1YKLR088U3","2","0","MACHINE","1","SNAVE","1","4977","MACHINE",NULL,"2017-09-27 14:03:52","96457"
"A33XV57T69HVA","cs_wg_v6_real1","30LB5CDZNCB4ZKF3Q4W9PBTIAKAZ0V","1","0","TRAFFIC","1","THOCKY","1","3034","traffic",NULL,"2017-09-27 14:03:52","96458"
"A293AP4EOI44BS","cs_wg_v6_real1","3HHRAGRYX86AWAP9OR4L2ON7TK1O9U","8","1","WEDDING","1","SNAVE","1","1024","wedding",NULL,"2017-09-27 14:03:52","96459"
"A3JDWMS5QJHREI","cs_wg_v6_real1","36NEMU28XFEX83H54MZ0O46DWL7WMD","4","1","UMBRELLA","1","ZORING","1","2593","umbrella",NULL,"2017-09-27 14:03:52","96460"
"AXKODH8S4ABAB","cs_wg_v6_real1","33C7UALJVLZPMDZYDX0WQWFOG3A18W","7","1","STRUCTURE","1","ROAKING","1","1566","structure",NULL,"2017-09-27 14:03:52","96461"
"A29VPSFOR6OO5H","cs_wg_v6_real1","34S9DKFK73Q7FQX5VOWOMGGTCJHYNE","6","0","COMMUNITY","1","BLICKET","1","1594","Community",NULL,"2017-09-27 14:03:52","96462"
"A1G452MFAS690B","cs_wg_v6_real1","3VELCLL3GKKY1S9LLB620OWA37N1FD","7","1","BOOKSHELF","1","ZORING","1","1363","bookshelf",NULL,"2017-09-27 14:03:53","96463"
"A2EJ06OGI9671Q","cs_wg_v6_real1","3B837J3LDOXVY2DOPPLGDEX2WVASRI","6","1","BASKET","1","BLICKET","1","1523","basket",NULL,"2017-09-27 14:03:53","96464"
"A3J0ALXC5LRSSG","cs_wg_v6_real1","3B2X28YI3WG3VXY2MFWNCUW6WKB6BY","3","1","STRUCTURE","1","ROAKING","1","2179","structure",NULL,"2017-09-27 14:03:53","96465"
"A3MKPYMUM6N5XQ","cs_wg_v6_real1","374TNBHA8BWSINAXBGO5QABYHU4YQ1","2","0","WEDDING","1","BLICKET","1","2262","wedding",NULL,"2017-09-27 14:03:53","96466"
"A2AEY7AGQYBN6X","cs_wg_v6_real1","32UTUBMZ7GXOAND3NN4VOMC5DD2BVU","0","0","BOOKSHELF","1","DUNCHED","1","4221","bookshelf",NULL,"2017-09-27 14:03:55","96467"
"A1ZWJF3V4NXN6H","cs_wg_v6_real1","32XVDSJFPZYBWNJYQ2AT0XQOSECM2L","9","1","UMBRELLA","1","MEAKEN","1","2008","UMBRELLA",NULL,"2017-09-27 14:03:55","96468"
"ALDQRWYZ8KQ9A","cs_wg_v6_real1","3S06PH7KSR5138VPU5BCCOTPRU71D2","2","1","BOOKSHELF","1","JADDEARED","1","2549","bookshelf",NULL,"2017-09-27 14:03:55","96469"
"A1YIMBPJ9MUKLJ","cs_wg_v6_real1","3BDCF01OGXVHRQUKJBG99OC47OHLYZ","8","0","COMMUNITY","1","MURRADS","1","1847","community",NULL,"2017-09-27 14:03:56","96470"
"A3NWXWSXFJG8BI","cs_wg_v6_real1","3PS7W85Z8Z3Q92UHK8QKWYTUSSIT9L","10","1","MACHINE","1","HOTCHACK","1","1067","machine",NULL,"2017-09-27 14:03:56","96471"
"A36CZ0F88ELFWF","cs_wg_v6_real1","3SB5N7Y3O35483KY0C8K44DCZUH0G8","2","0","COMMUNITY","1","DUNCHED","1","6654","community",NULL,"2017-09-27 14:03:56","96472"
"A0657006AJFWB5ZA91B2","cs_wg_v6_real1","3ZV9H2YQQD8WMH9VY4ULS5X7WUQW3X","0","0","STRUCTURE","1","CHAXED","1","4794","STRUCTURE",NULL,"2017-09-27 14:03:56","96473"
"A3095ABT1L25QK","cs_wg_v6_real1","3570Y55XZPK15YGJ8KJTWW7WB7VYG6","2","0","STRUCTURE","1","NARDLY","1","6577","structure",NULL,"2017-09-27 14:03:56","96474"
"A21KXWKFWGBCZ3","cs_wg_v6_real1","3NVC2EB65Q00BM4VD5C9D2IN72R3Y4","2","1","DOORWAY","1","SNAVE","1","3107","doorway",NULL,"2017-09-27 14:03:56","96475"
"A17LIM50IMQN7Y","cs_wg_v6_real1","3UNH76FOCS61X8C5JNHO91RT7T7YME","5","1","WEDDING","1","WOOKED","1","3006","wedding",NULL,"2017-09-27 14:03:57","96476"
"A2GF7PYHT21U3X","cs_wg_v6_real1","3IXQG4FA2TZQDG00KMZZW4N8MLJ9BC","5","0","STOMACH","1","MUDLEY","1","1673","stomach",NULL,"2017-09-27 14:03:57","96477"
"A2NTS2HNDOLRCR","cs_wg_v6_real1","3MD9PLUKKIF7KG7ARAY70NPVIDLZN6","1","1","DOORWAY","1","PLIBBERED","1","2379","doorway",NULL,"2017-09-27 14:03:58","96478"
"A17F06M11XQX6S","cs_wg_v6_real1","3D3VGR7TA0GRELS9ZAKF56PQ4FBR3P","5","0","WEDDING","1","PLIBBERED","1","2392","wedding",NULL,"2017-09-27 14:03:58","96479"
"A1ST4RTOTHAKMY","cs_wg_v6_real1","3OONKJ5DKCKTK346MBIHTUIXHK5BOS","2","1","UMBRELLA","1","CHAXED","1","1993","umbrella",NULL,"2017-09-27 14:03:58","96480"
"A3B9OZQTE4US3T","cs_wg_v6_real1","34Z02EIMISE8D864KC7R3NS1POP0TH","7","1","BASKET","1","CHAXED","1","3902","BASKET",NULL,"2017-09-27 14:03:58","96481"
"A8QJ1G6724G51
","cs_wg_v6_real1","3U8YCDAGXPHVLSEC38DWYIHE5HQ0Q3","5","1","DOORWAY","1","SURSED","1","1653","doorway",NULL,"2017-09-27 14:03:58","96482"
"A2U7BMG19Q83GE","cs_wg_v6_real1","3NLZY2D53PQ8IO3YS1ZFW2928F0LQW","12","0","UMBRELLA","1","FIPPING","1","1768","umbrella",NULL,"2017-09-27 14:03:59","96483"
"A30MYN1DI6EJ8M","cs_wg_v6_real1","36AHBNMV1RDYTE6S6UILQB4ZYFFYDW","8","0","KEYBOARD","1","GLUNDLE","1","2275","KEYBOARD",NULL,"2017-09-27 14:03:59","96484"
"A2L24GZ7YWKGDE","cs_wg_v6_real1","3EA3QWIZ4IWJK3NKO2WX9RSXBI5TI4","4","1","WEDDING","1","WOOKED","1","3209","WEDDING",NULL,"2017-09-27 14:03:59","96485"
"A1YH4LT7EAYT47","cs_wg_v6_real1","3XCC1ODXDLCJLMYBXLWBIEI1E7PQRR","12","0","STRUCTURE","1","SCRIGGED","1","1598","STRUCTURE",NULL,"2017-09-27 14:03:59","96486"
"A305KD2HBUUCMQ","cs_wg_v6_real1","340UGXU9DY236MM9NELQTC4T2Y8VUU","0","1","KEYBOARD","1","ZORING","1","9665","w",NULL,"2017-09-27 14:03:59","96487"
"A36W1S4Z2LSNTC","cs_wg_v6_real1","37ZHEEHM6WNHW28UQWM90PYQ33I373","5","0","COMMUNITY","1","POATS","1","1980","COMMUNITY",NULL,"2017-09-27 14:03:59","96488"
"A33YX15T1HYFMW","cs_wg_v6_real1","3G5W44VEU7J6LTR245I2NOSLDSMGKT","3","0","HELICOPTER","1","DROOFER","1","3919","helicopter",NULL,"2017-09-27 14:04:00","96489"
"A2RN74UCHE5CYI","cs_wg_v6_real1","3OUYGIZWR7ZALGDX3VY7YDR40L40PC","2","1","UMBRELLA","1","SCREEP","1","2724","umbrella",NULL,"2017-09-27 14:04:00","96490"
"A1G452MFAS690B","cs_wg_v6_real1","3VELCLL3GKKY1S9LLB620OWA37N1FD","8","0","FOOTBALL","1","CLEEPERS","1","1222","football",NULL,"2017-09-27 14:04:01","96491"
"A29VPSFOR6OO5H","cs_wg_v6_real1","34S9DKFK73Q7FQX5VOWOMGGTCJHYNE","7","0","BOOKSHELF","1","DUNCHED","1","1289","Bookshelf",NULL,"2017-09-27 14:04:01","96492"
"A1G17IJC53N6K3","cs_wg_v6_real1","3X0H8UUIT1P06YUAOJVM0D5JOAPSWL","2","0","MACHINE","1","THOCKY","1","3608","MACHINE",NULL,"2017-09-27 14:04:01","96493"
"AXKODH8S4ABAB","cs_wg_v6_real1","33C7UALJVLZPMDZYDX0WQWFOG3A18W","8","0","DOORWAY","1","SURSED","1","1782","doorway",NULL,"2017-09-27 14:04:01","96494"
"A28WSBB0DSV47X","cs_wg_v6_real1","33IZTU6J812FVYZ0YOR82WJQXCVSXE","9","0","TRAFFIC","1","ZALEY","1","4628","TRAFFIC",NULL,"2017-09-27 14:04:02","96495"
"AU7A3QNJF3O00","cs_wg_v6_real1","3RANCT1ZVFIOX8O3IXUQS0AMZ6SUBN","0","0","MACHINE","1","THOCKY","1","5868","Machine",NULL,"2017-09-27 14:04:02","96496"
"A11GMTJSTNR0YA","cs_wg_v6_real1","3P59JYT76LLF9I9IZZB5MBLGMM8T2T","6","0","HELICOPTER","1","STEAVES","1","2482","helicopter",NULL,"2017-09-27 14:04:02","96497"
"A293AP4EOI44BS","cs_wg_v6_real1","3HHRAGRYX86AWAP9OR4L2ON7TK1O9U","9","1","STOMACH","1","ZORING","1","1532","stomach",NULL,"2017-09-27 14:04:02","96498"
"A1CGGZRO2JUQUG","cs_wg_v6_real1","3YWRV122CS05VAQWFLAG1YKLR088U3","3","0","TRAFFIC","1","PLIBBERED","1","1791","TRAFFIC",NULL,"2017-09-27 14:04:02","96499"
"A10LGIY5HFYMZM","cs_wg_v6_real1","3IUZPWIU1O82IFH2JAMK9RE97GCWK8","1","0","STOMACH","1","MEAKEN","1","3496","STOMACH",NULL,"2017-09-27 14:04:03","96500"
"A3JDWMS5QJHREI","cs_wg_v6_real1","36NEMU28XFEX83H54MZ0O46DWL7WMD","5","1","WEDDING","1","DUNCHED","1","2634","wedding",NULL,"2017-09-27 14:04:03","96501"
"A3D7JEGMSYKCUJ","cs_wg_v6_real1","3J4Q2Z4UTY4OTIFXWF6H5DQI6M4QWU","6","0","STOMACH","1","THOCKY","1","2357","stomach",NULL,"2017-09-27 14:04:03","96502"
"AU34T9OMHN4Z4","cs_wg_v6_real1","3QILPRALQ5WS0K6NIKYUN3SRJ4F8NB","1","1","BASKET","1","WOOKED","1","31646","basket",NULL,"2017-09-27 14:04:03","96503"
"A3J0ALXC5LRSSG","cs_wg_v6_real1","3B2X28YI3WG3VXY2MFWNCUW6WKB6BY","4","0","FOOTBALL","1","CHEEDLE","1","1916","football",NULL,"2017-09-27 14:04:03","96504"
"A33XV57T69HVA","cs_wg_v6_real1","30LB5CDZNCB4ZKF3Q4W9PBTIAKAZ0V","2","1","HELICOPTER","1","GLUNDLE","1","2169","helicopter",NULL,"2017-09-27 14:04:03","96505"
"A3M4TO1SU4BLN4
","cs_wg_v6_real1","3JNQLM5FT4NRQ51DQQ9E0KBZS9N2L0","0","1","UMBRELLA","1","SURSED","1","3315","Umbrella",NULL,"2017-09-27 14:04:04","96506"
"A2EJ06OGI9671Q","cs_wg_v6_real1","3B837J3LDOXVY2DOPPLGDEX2WVASRI","7","1","TRAFFIC","1","HOTCHACK","1","1896","traffic",NULL,"2017-09-27 14:04:04","96507"
"A3NWXWSXFJG8BI","cs_wg_v6_real1","3PS7W85Z8Z3Q92UHK8QKWYTUSSIT9L","11","0","MACHINE","1","VATED","1","1878","machine",NULL,"2017-09-27 14:04:04","96508"
"A1ZWJF3V4NXN6H","cs_wg_v6_real1","32XVDSJFPZYBWNJYQ2AT0XQOSECM2L","10","0","TRAFFIC","1","MEAKEN","1","1695","TRAFFIC",NULL,"2017-09-27 14:04:05","96509"
"A2295H0UW8SPNU","cs_wg_v6_real1","3AQF3RZ558JT8EAIRHIJVKNRBI36FG","0","0","COMMUNITY","1","SURSED","1","5438","community",NULL,"2017-09-27 14:04:05","96510"
"A33QI63NVR8CUO","cs_wg_v6_real1","39U1BHVTDLS4U0513ZPA5LQ8S08T34","5","0","TRAFFIC","1","CLEEPERS","1","2468","traffic",NULL,"2017-09-27 14:04:05","96511"
"A2GF7PYHT21U3X","cs_wg_v6_real1","3IXQG4FA2TZQDG00KMZZW4N8MLJ9BC","6","1","BOOKSHELF","1","WUGGED","1","1775","bookshelf",NULL,"2017-09-27 14:04:06","96512"
"A3MKPYMUM6N5XQ","cs_wg_v6_real1","374TNBHA8BWSINAXBGO5QABYHU4YQ1","3","1","FOOTBALL","1","BLICKET","1","1932","football",NULL,"2017-09-27 14:04:06","96513"
"A1R6ZLM9V362F7","cs_wg_v6_real1","3A0EX8ZRN8P5EH88SYRFVLGZVU3YBP","8","1","DOORWAY","1","THOCKY","1","19866","doorway",NULL,"2017-09-27 14:04:06","96514"
"A1YIMBPJ9MUKLJ","cs_wg_v6_real1","3BDCF01OGXVHRQUKJBG99OC47OHLYZ","9","1","LADDER","1","WUGGED","1","3103","ladder",NULL,"2017-09-27 14:04:06","96515"
"A1YH4LT7EAYT47","cs_wg_v6_real1","3XCC1ODXDLCJLMYBXLWBIEI1E7PQRR","13","0","DOORWAY","1","DUNCHED","1","1390","DOORWAY",NULL,"2017-09-27 14:04:06","96516"
"A21KXWKFWGBCZ3","cs_wg_v6_real1","3NVC2EB65Q00BM4VD5C9D2IN72R3Y4","3","1","COMMUNITY","1","SURSED","1","2678","community",NULL,"2017-09-27 14:04:06","96517"
"A1ST4RTOTHAKMY","cs_wg_v6_real1","3OONKJ5DKCKTK346MBIHTUIXHK5BOS","3","1","STOMACH","1","MICKERED","1","1095","stomach",NULL,"2017-09-27 14:04:06","96518"
"A8QJ1G6724G51
","cs_wg_v6_real1","3U8YCDAGXPHVLSEC38DWYIHE5HQ0Q3","6","1","FOOTBALL","1","NARDLY","1","1096","football",NULL,"2017-09-27 14:04:07","96519"
"A2IGPW784OFV3D","cs_wg_v6_real1","3DUZQ9U6SMPNR9U5Y9QQEBM5H1NVSE","6","1","MACHINE","1","HOTCHACK","1","2638","MACHINE",NULL,"2017-09-27 14:04:07","96520"
"A2QT68NJYAJV9P","cs_wg_v6_real1","3ITXP059PWKE0EUBHKC7BNBBMEHJSI","0","0","KEYBOARD","1","WUGGED","1","5665","keyboard",NULL,"2017-09-27 14:04:07","96521"
"A30MYN1DI6EJ8M","cs_wg_v6_real1","36AHBNMV1RDYTE6S6UILQB4ZYFFYDW","9","0","FOOTBALL","1","ROAKING","1","1283","FOOTBALL",NULL,"2017-09-27 14:04:07","96522"
"a2zx7580nvwa61","cs_wg_v6_real1","39O5D9O87TTN8J3QHDUKGBQ44E93CW","0","1","WEDDING","1","TINGER","1","5801","wedding",NULL,"2017-09-27 14:04:07","96523"
"A2NTS2HNDOLRCR","cs_wg_v6_real1","3MD9PLUKKIF7KG7ARAY70NPVIDLZN6","2","0","WEDDING","1","WOOKED","1","3020","wedding",NULL,"2017-09-27 14:04:07","96524"
"A3B9OZQTE4US3T","cs_wg_v6_real1","34Z02EIMISE8D864KC7R3NS1POP0TH","8","1","STRUCTURE","1","CLEEPERS","1","3440","STRUCTURE",NULL,"2017-09-27 14:04:08","96525"
"A0657006AJFWB5ZA91B2","cs_wg_v6_real1","3ZV9H2YQQD8WMH9VY4ULS5X7WUQW3X","1","0","UMBRELLA","1","JADDEARED","1","3406","UMBRELLA",NULL,"2017-09-27 14:04:08","96526"
"ALDQRWYZ8KQ9A","cs_wg_v6_real1","3S06PH7KSR5138VPU5BCCOTPRU71D2","3","1","BOOKSHELF","1","TINGER","1","3150","bookshelf",NULL,"2017-09-27 14:04:08","96527"
"ABHKTBF20ZL6G","cs_wg_v6_real1","37QW5D2ZRGNPGXYSQGFGMX2X63N8SN","1","1","TRAFFIC","1","ZALEY","1","4232","traffic",NULL,"2017-09-27 14:04:08","96528"
"A1G452MFAS690B","cs_wg_v6_real1","3VELCLL3GKKY1S9LLB620OWA37N1FD","9","1","KEYBOARD","1","MEAKEN","1","1338","keyboard",NULL,"2017-09-27 14:04:08","96529"
"A17LIM50IMQN7Y","cs_wg_v6_real1","3UNH76FOCS61X8C5JNHO91RT7T7YME","6","0","UMBRELLA","1","SCRIGGED","1","2909","umbrella",NULL,"2017-09-27 14:04:08","96530"
"A2U7BMG19Q83GE","cs_wg_v6_real1","3NLZY2D53PQ8IO3YS1ZFW2928F0LQW","13","0","UMBRELLA","1","DUNCHED","1","2087","umbrella",NULL,"2017-09-27 14:04:09","96531"
"A36W1S4Z2LSNTC","cs_wg_v6_real1","37ZHEEHM6WNHW28UQWM90PYQ33I373","6","1","UMBRELLA","1","CHEEDLE","1","1620","UMBRELLA",NULL,"2017-09-27 14:04:09","96532"
"A17F06M11XQX6S","cs_wg_v6_real1","3D3VGR7TA0GRELS9ZAKF56PQ4FBR3P","6","0","COMMUNITY","1","SURSED","1","2587","community",NULL,"2017-09-27 14:04:09","96533"
"A29VPSFOR6OO5H","cs_wg_v6_real1","34S9DKFK73Q7FQX5VOWOMGGTCJHYNE","8","1","BOOKSHELF","1","SURSED","1","2114","Bookshelf",NULL,"2017-09-27 14:04:10","96534"
"A3095ABT1L25QK","cs_wg_v6_real1","3570Y55XZPK15YGJ8KJTWW7WB7VYG6","3","1","LADDER","1","THOCKY","1","5000","ladder",NULL,"2017-09-27 14:04:11","96535"
"A11GMTJSTNR0YA","cs_wg_v6_real1","3P59JYT76LLF9I9IZZB5MBLGMM8T2T","7","1","MACHINE","1","FLEMMERING","1","1345","machine",NULL,"2017-09-27 14:04:11","96536"
"A36CZ0F88ELFWF","cs_wg_v6_real1","3SB5N7Y3O35483KY0C8K44DCZUH0G8","3","1","COMMUNITY","1","TINGER","1","3449","community",NULL,"2017-09-27 14:04:11","96537"
"A305KD2HBUUCMQ","cs_wg_v6_real1","340UGXU9DY236MM9NELQTC4T2Y8VUU","1","1","WEDDING","1","GLUNDLE","0","3994",,NULL,"2017-09-27 14:04:11","96538"
"A293AP4EOI44BS","cs_wg_v6_real1","3HHRAGRYX86AWAP9OR4L2ON7TK1O9U","10","1","STRUCTURE","1","MEAKEN","1","1120","structure",NULL,"2017-09-27 14:04:12","96539"
"A1CGGZRO2JUQUG","cs_wg_v6_real1","3YWRV122CS05VAQWFLAG1YKLR088U3","4","0","TRAFFIC","1","MUDLEY","1","1449","TRAFFIC",NULL,"2017-09-27 14:04:12","96540"
"AXKODH8S4ABAB","cs_wg_v6_real1","33C7UALJVLZPMDZYDX0WQWFOG3A18W","9","1","WEDDING","1","FIPPING","1","1590","wedding",NULL,"2017-09-27 14:04:12","96541"
"A2RN74UCHE5CYI","cs_wg_v6_real1","3OUYGIZWR7ZALGDX3VY7YDR40L40PC","3","1","MACHINE","1","ZORING","1","3615","machine",NULL,"2017-09-27 14:04:12","96542"
"AU7A3QNJF3O00","cs_wg_v6_real1","3RANCT1ZVFIOX8O3IXUQS0AMZ6SUBN","1","0","BASKET","1","FROPED","1","2010","BASKET",NULL,"2017-09-27 14:04:12","96543"
"A2EJ06OGI9671Q","cs_wg_v6_real1","3B837J3LDOXVY2DOPPLGDEX2WVASRI","8","1","LADDER","1","FLEMMERING","1","1549","ladder",NULL,"2017-09-27 14:04:13","96544"
"A33YX15T1HYFMW","cs_wg_v6_real1","3G5W44VEU7J6LTR245I2NOSLDSMGKT","4","0","KEYBOARD","1","WUGGED","1","2795","keyboard",NULL,"2017-09-27 14:04:13","96545"
"A3JDWMS5QJHREI","cs_wg_v6_real1","36NEMU28XFEX83H54MZ0O46DWL7WMD","6","1","BASKET","1","GLUNDLE","1","1782","basket",NULL,"2017-09-27 14:04:13","96546"
"A28WSBB0DSV47X","cs_wg_v6_real1","33IZTU6J812FVYZ0YOR82WJQXCVSXE","10","0","HELICOPTER","1","FIPPING","1","5331","HELICOPTER",NULL,"2017-09-27 14:04:13","96547"
"A3J0ALXC5LRSSG","cs_wg_v6_real1","3B2X28YI3WG3VXY2MFWNCUW6WKB6BY","5","0","BOOKSHELF","1","ZORING","1","2567","bookshelf",NULL,"2017-09-27 14:04:14","96548"
"A1YH4LT7EAYT47","cs_wg_v6_real1","3XCC1ODXDLCJLMYBXLWBIEI1E7PQRR","14","1","KEYBOARD","1","ROAKING","1","1359","KEYBOARD",NULL,"2017-09-27 14:04:14","96549"
"A3NWXWSXFJG8BI","cs_wg_v6_real1","3PS7W85Z8Z3Q92UHK8QKWYTUSSIT9L","12","1","FOOTBALL","1","FROPED","1","1455","football",NULL,"2017-09-27 14:04:14","96550"
"A2L24GZ7YWKGDE","cs_wg_v6_real1","3EA3QWIZ4IWJK3NKO2WX9RSXBI5TI4","5","0","UMBRELLA","1","CHEEDLE","1","8909","UMBRELLA",NULL,"2017-09-27 14:04:14","96551"
"A3M4TO1SU4BLN4
","cs_wg_v6_real1","3JNQLM5FT4NRQ51DQQ9E0KBZS9N2L0","1","0","KEYBOARD","1","SCRIGGED","1","2482","keyboard",NULL,"2017-09-27 14:04:15","96552"
"A3D7JEGMSYKCUJ","cs_wg_v6_real1","3J4Q2Z4UTY4OTIFXWF6H5DQI6M4QWU","7","0","FOOTBALL","1","SURSED","1","2590","football",NULL,"2017-09-27 14:04:15","96553"
"A1ZWJF3V4NXN6H","cs_wg_v6_real1","32XVDSJFPZYBWNJYQ2AT0XQOSECM2L","11","0","DOORWAY","1","MUDLEY","1","1545","DOORWAY",NULL,"2017-09-27 14:04:15","96554"
"A30MYN1DI6EJ8M","cs_wg_v6_real1","36AHBNMV1RDYTE6S6UILQB4ZYFFYDW","10","0","STRUCTURE","1","ROAKING","1","1978","STRUCTURE",NULL,"2017-09-27 14:04:15","96555"
"A8QJ1G6724G51
","cs_wg_v6_real1","3U8YCDAGXPHVLSEC38DWYIHE5HQ0Q3","7","0","WEDDING","1","CHEEDLE","1","1497","wedding",NULL,"2017-09-27 14:04:15","96556"
"A1G17IJC53N6K3","cs_wg_v6_real1","3X0H8UUIT1P06YUAOJVM0D5JOAPSWL","3","0","COMMUNITY","1","CHOOTH","1","3637","COMMUNITY",NULL,"2017-09-27 14:04:15","96557"
"A33XV57T69HVA","cs_wg_v6_real1","30LB5CDZNCB4ZKF3Q4W9PBTIAKAZ0V","3","1","COMMUNITY","1","SCRIGGED","1","2452","community",NULL,"2017-09-27 14:04:15","96558"
"A3NK3VPYRHZBW8","cs_wg_v6_real1","3VSOLARPKBALALWN5TKTELPWYT639F","0","1","BOOKSHELF","1","MEAKEN","1","8314","bookshelf",NULL,"2017-09-27 14:04:16","96559"
"A1YIMBPJ9MUKLJ","cs_wg_v6_real1","3BDCF01OGXVHRQUKJBG99OC47OHLYZ","10","0","STOMACH","1","POATS","1","2124","stomach",NULL,"2017-09-27 14:04:16","96560"
"A2NTS2HNDOLRCR","cs_wg_v6_real1","3MD9PLUKKIF7KG7ARAY70NPVIDLZN6","3","1","STOMACH","1","CHOOTH","1","2085","stomach",NULL,"2017-09-27 14:04:16","96561"
"AIVV4VUFFYHHN","cs_wg_v6_real1","3X1FV8S5JXSK14LE39W9PX32TQUGVG","0","1","KEYBOARD","1","CHOOTH","0","4857","keyboard",NULL,"2017-09-27 14:04:16","96562"
"A1ST4RTOTHAKMY","cs_wg_v6_real1","3OONKJ5DKCKTK346MBIHTUIXHK5BOS","4","0","HELICOPTER","1","WOOKED","1","2358","helicopter",NULL,"2017-09-27 14:04:16","96563"
"A2295H0UW8SPNU","cs_wg_v6_real1","3AQF3RZ558JT8EAIRHIJVKNRBI36FG","1","1","DOORWAY","1","MICKERED","1","2680","doorway",NULL,"2017-09-27 14:04:16","96564"
"A21KXWKFWGBCZ3","cs_wg_v6_real1","3NVC2EB65Q00BM4VD5C9D2IN72R3Y4","4","0","UMBRELLA","1","SURSED","1","3000","umbrella",NULL,"2017-09-27 14:04:16","96565"
"A10LGIY5HFYMZM","cs_wg_v6_real1","3IUZPWIU1O82IFH2JAMK9RE97GCWK8","2","0","DOORWAY","1","TINGER","1","3108","DOORWAY",NULL,"2017-09-27 14:04:17","96566"
"A1G452MFAS690B","cs_wg_v6_real1","3VELCLL3GKKY1S9LLB620OWA37N1FD","10","0","STRUCTURE","1","JADDEARED","1","1805","structure",NULL,"2017-09-27 14:04:17","96567"
"A19R7FSNDW6WRK","cs_wg_v6_real1","3B4YI393V9X7ZHD14ELL3O2YIXTSS6","0","1","FOOTBALL","1","STEAVES","1","3495","Football",NULL,"2017-09-27 14:04:17","96568"
"A29VPSFOR6OO5H","cs_wg_v6_real1","34S9DKFK73Q7FQX5VOWOMGGTCJHYNE","9","0","TRAFFIC","1","CHAXED","1","1019","Traffic",NULL,"2017-09-27 14:04:17","96569"
"A2HM0OP9UNOR1E","cs_wg_v6_real1","3ZOTGHDK5ICS1PL8XX4CJJSXL8QSO9","0","0","COMMUNITY","1","CHOOTH","1","7593","community",NULL,"2017-09-27 14:04:17","96570"
"A3B9OZQTE4US3T","cs_wg_v6_real1","34Z02EIMISE8D864KC7R3NS1POP0TH","9","1","HELICOPTER","1","CHOOTH","1","3105","HELICOPTER",NULL,"2017-09-27 14:04:17","96571"
"A3MKPYMUM6N5XQ","cs_wg_v6_real1","374TNBHA8BWSINAXBGO5QABYHU4YQ1","4","1","TRAFFIC","1","CHAXED","1","1990","traffic",NULL,"2017-09-27 14:04:17","96572"
"A1R6ZLM9V362F7","cs_wg_v6_real1","3A0EX8ZRN8P5EH88SYRFVLGZVU3YBP","9","1","DOORWAY","1","NARDLY","1","4482","doorway",NULL,"2017-09-27 14:04:17","96573"
"A305KD2HBUUCMQ","cs_wg_v6_real1","340UGXU9DY236MM9NELQTC4T2Y8VUU","2","1","TRAFFIC","1","ROAKING","1","1197",,NULL,"2017-09-27 14:04:18","96574"
"A2QT68NJYAJV9P","cs_wg_v6_real1","3ITXP059PWKE0EUBHKC7BNBBMEHJSI","1","0","DOORWAY","1","DUNCHED","1","2842","doorway",NULL,"2017-09-27 14:04:18","96575"
"A2U7BMG19Q83GE","cs_wg_v6_real1","3NLZY2D53PQ8IO3YS1ZFW2928F0LQW","14","1","STRUCTURE","1","WUGGED","1","1072","structure",NULL,"2017-09-27 14:04:18","96576"
"A33QI63NVR8CUO","cs_wg_v6_real1","39U1BHVTDLS4U0513ZPA5LQ8S08T34","6","0","STRUCTURE","1","CHEEDLE","1","1757","structure",NULL,"2017-09-27 14:04:18","96577"
"A33FSJRW7E1XVV","cs_wg_v6_real1","36TFCYNS44BQ5PLKNUF9YICOO1FHXJ","0","0","MACHINE","1","THOCKY","1","6561","Machine",NULL,"2017-09-27 14:04:18","96578"
"A36W1S4Z2LSNTC","cs_wg_v6_real1","37ZHEEHM6WNHW28UQWM90PYQ33I373","7","0","HELICOPTER","1","THOCKY","1","1571","HELICOPTER",NULL,"2017-09-27 14:04:19","96579"
"A11GMTJSTNR0YA","cs_wg_v6_real1","3P59JYT76LLF9I9IZZB5MBLGMM8T2T","8","1","BASKET","1","CHAXED","1","953","basket",NULL,"2017-09-27 14:04:19","96580"
"A0657006AJFWB5ZA91B2","cs_wg_v6_real1","3ZV9H2YQQD8WMH9VY4ULS5X7WUQW3X","2","1","MACHINE","1","WOOKED","1","3671","MACHINE",NULL,"2017-09-27 14:04:20","96581"
"ALDQRWYZ8KQ9A","cs_wg_v6_real1","3S06PH7KSR5138VPU5BCCOTPRU71D2","4","1","HELICOPTER","1","SNAVE","1","3451","helicopter",NULL,"2017-09-27 14:04:20","96582"
"A28WSBB0DSV47X","cs_wg_v6_real1","33IZTU6J812FVYZ0YOR82WJQXCVSXE","11","0","MACHINE","1","SCREEP","1","2618","MACHINE",NULL,"2017-09-27 14:04:21","96583"
"ap4fddwbjw470","cs_wg_v6_real1","3907X2AHF06HHQGBII2LH1KJXJO2PY","0","0","COMMUNITY","1","SCRIGGED","0","9259","community",NULL,"2017-09-27 14:04:21","96584"
"A17F06M11XQX6S","cs_wg_v6_real1","3D3VGR7TA0GRELS9ZAKF56PQ4FBR3P","7","1","COMMUNITY","1","NARDLY","1","4044","community",NULL,"2017-09-27 14:04:22","96585"
"AXKODH8S4ABAB","cs_wg_v6_real1","33C7UALJVLZPMDZYDX0WQWFOG3A18W","10","1","BOOKSHELF","1","TINGER","1","1870","bookshelf",NULL,"2017-09-27 14:04:22","96586"
"a2zx7580nvwa61","cs_wg_v6_real1","39O5D9O87TTN8J3QHDUKGBQ44E93CW","1","1","BASKET","1","DUNCHED","1","3091","basket",NULL,"2017-09-27 14:04:22","96587"
"A1YH4LT7EAYT47","cs_wg_v6_real1","3XCC1ODXDLCJLMYBXLWBIEI1E7PQRR","15","1","TRAFFIC","1","ROAKING","1","2223","TRAFFIC",NULL,"2017-09-27 14:04:22","96588"
"A293AP4EOI44BS","cs_wg_v6_real1","3HHRAGRYX86AWAP9OR4L2ON7TK1O9U","11","1","KEYBOARD","1","ZORING","1","1380","keyboard",NULL,"2017-09-27 14:04:22","96589"
"A2IGPW784OFV3D","cs_wg_v6_real1","3DUZQ9U6SMPNR9U5Y9QQEBM5H1NVSE","7","1","FOOTBALL","1","CHAXED","1","3724","FOOTBALL",NULL,"2017-09-27 14:04:22","96590"
"A1CGGZRO2JUQUG","cs_wg_v6_real1","3YWRV122CS05VAQWFLAG1YKLR088U3","5","0","LADDER","1","WOOKED","1","2096","LADDER",NULL,"2017-09-27 14:04:22","96591"
"A3NWXWSXFJG8BI","cs_wg_v6_real1","3PS7W85Z8Z3Q92UHK8QKWYTUSSIT9L","13","0","KEYBOARD","1","MEAKEN","1","1488","keyboard",NULL,"2017-09-27 14:04:22","96592"
"AU34T9OMHN4Z4","cs_wg_v6_real1","3QILPRALQ5WS0K6NIKYUN3SRJ4F8NB","2","0","HELICOPTER","1","MICKERED","1","3845","helicoptor",NULL,"2017-09-27 14:04:22","96593"
"A17LIM50IMQN7Y","cs_wg_v6_real1","3UNH76FOCS61X8C5JNHO91RT7T7YME","7","1","UMBRELLA","1","CHAXED","1","3477","umbrella",NULL,"2017-09-27 14:04:23","96594"
"A2EJ06OGI9671Q","cs_wg_v6_real1","3B837J3LDOXVY2DOPPLGDEX2WVASRI","9","1","MACHINE","1","PLIBBERED","1","1228","machine",NULL,"2017-09-27 14:04:23","96595"
"A30MYN1DI6EJ8M","cs_wg_v6_real1","36AHBNMV1RDYTE6S6UILQB4ZYFFYDW","11","0","UMBRELLA","1","POATS","1","2341","UMBRELLA",NULL,"2017-09-27 14:04:23","96596"
"A2MPCT1O95PVL9","cs_wg_v6_real1","30IQTZXKAK7FUPFOPM8OSQD72KD0X0","2","1","BASKET","1","BLICKET","1","2261","basket",NULL,"2017-09-27 14:04:23","96597"
"A1VEARF80HWOBQ","cs_wg_v6_real1","3BQU611VFPL7PNL3M2L35YSIYLG992","0","0","BOOKSHELF","1","SNAVE","1","10033","bookshelf",NULL,"2017-09-27 14:04:23","96598"
"A3K8J4N2M38P0S","cs_wg_v6_real1","3B1NLC6UGZX7WKOIHXNAJ5EK72TGPV","0","0","UMBRELLA","1","SNAVE","0","7089","Umbrella",NULL,"2017-09-27 14:04:23","96599"
"AKU3ZW3LVDUR9
","cs_wg_v6_real1","3X31TUMD7XNK1KJH7M90V11U0391LI","0","1","KEYBOARD","1","CHEEDLE","1","7535","keyboard",NULL,"2017-09-27 14:04:24","96600"
"AV15YFBYL71S6","cs_wg_v6_real1","3URFVVM165JKF6RJOBATEIHPQ9EZUY","0","0","TRAFFIC","1","MICKERED","1","3330","traffic",NULL,"2017-09-27 14:04:24","96601"
"ABHKTBF20ZL6G","cs_wg_v6_real1","37QW5D2ZRGNPGXYSQGFGMX2X63N8SN","2","1","UMBRELLA","1","WOOKED","1","2686","umbrella",NULL,"2017-09-27 14:04:24","96602"
"A1ZWJF3V4NXN6H","cs_wg_v6_real1","32XVDSJFPZYBWNJYQ2AT0XQOSECM2L","12","1","WEDDING","1","TINGER","1","1670","WEDDING",NULL,"2017-09-27 14:04:24","96603"
"A3095ABT1L25QK","cs_wg_v6_real1","3570Y55XZPK15YGJ8KJTWW7WB7VYG6","4","1","HELICOPTER","1","TINGER","1","2701","helicopter ",NULL,"2017-09-27 14:04:24","96604"
"A1YIMBPJ9MUKLJ","cs_wg_v6_real1","3BDCF01OGXVHRQUKJBG99OC47OHLYZ","11","1","BASKET","1","FLEMMERING","1","1953","basket",NULL,"2017-09-27 14:04:24","96605"
"A1PY5N25LLLULV","cs_wg_v6_real1","3WS1NTTKEYDYU3O3PS22MJD0YFHF0O","0","0","UMBRELLA","1","MICKERED","1","4556","umbrella",NULL,"2017-09-27 14:04:24","96606"
"A3M4TO1SU4BLN4
","cs_wg_v6_real1","3JNQLM5FT4NRQ51DQQ9E0KBZS9N2L0","2","1","TRAFFIC","1","TINGER","1","2372","traffic",NULL,"2017-09-27 14:04:24","96607"
"A1G452MFAS690B","cs_wg_v6_real1","3VELCLL3GKKY1S9LLB620OWA37N1FD","11","0","KEYBOARD","1","PLIBBERED","1","2791","KEYBOARD",NULL,"2017-09-27 14:04:25","96608"
"A1ST4RTOTHAKMY","cs_wg_v6_real1","3OONKJ5DKCKTK346MBIHTUIXHK5BOS","5","0","WEDDING","1","NARDLY","1","2129","wedding",NULL,"2017-09-27 14:04:25","96609"
"A2RN74UCHE5CYI","cs_wg_v6_real1","3OUYGIZWR7ZALGDX3VY7YDR40L40PC","4","0","TRAFFIC","1","NARDLY","1","3728","traffic",NULL,"2017-09-27 14:04:25","96610"
"A34RGSBBFQ6HI1
","cs_wg_v6_real1","3NQL1CS15R9KNV6EXFIFWXA6YMJYVV","0","0","COMMUNITY","1","JADDEARED","1","4656","Community",NULL,"2017-09-27 14:04:25","96611"
"A3J0ALXC5LRSSG","cs_wg_v6_real1","3B2X28YI3WG3VXY2MFWNCUW6WKB6BY","6","0","BOOKSHELF","1","FIPPING","1","3263","bookshelf",NULL,"2017-09-27 14:04:25","96612"
"A21KXWKFWGBCZ3","cs_wg_v6_real1","3NVC2EB65Q00BM4VD5C9D2IN72R3Y4","5","1","COMMUNITY","1","MICKERED","1","1952","community",NULL,"2017-09-27 14:04:25","96613"
"A2295H0UW8SPNU","cs_wg_v6_real1","3AQF3RZ558JT8EAIRHIJVKNRBI36FG","2","1","BASKET","1","ZORING","1","1462","basket",NULL,"2017-09-27 14:04:26","96614"
"A33XV57T69HVA","cs_wg_v6_real1","30LB5CDZNCB4ZKF3Q4W9PBTIAKAZ0V","4","0","MACHINE","1","CHAXED","1","2270","machine",NULL,"2017-09-27 14:04:26","96615"
"A3JDWMS5QJHREI","cs_wg_v6_real1","36NEMU28XFEX83H54MZ0O46DWL7WMD","7","1","STRUCTURE","1","CHOOTH","1","1783","structure",NULL,"2017-09-27 14:04:26","96616"
"A1R6ZLM9V362F7","cs_wg_v6_real1","3A0EX8ZRN8P5EH88SYRFVLGZVU3YBP","10","1","STOMACH","1","MEAKEN","1","1864","stomach",NULL,"2017-09-27 14:04:26","96617"
"A2U7BMG19Q83GE","cs_wg_v6_real1","3NLZY2D53PQ8IO3YS1ZFW2928F0LQW","15","0","STOMACH","1","CLEEPERS","1","1584","stomach",NULL,"2017-09-27 14:04:27","96618"
"A3D7JEGMSYKCUJ","cs_wg_v6_real1","3J4Q2Z4UTY4OTIFXWF6H5DQI6M4QWU","8","1","COMMUNITY","1","CLEEPERS","1","2589","community",NULL,"2017-09-27 14:04:27","96619"
"A11GMTJSTNR0YA","cs_wg_v6_real1","3P59JYT76LLF9I9IZZB5MBLGMM8T2T","9","1","WEDDING","1","WOOKED","1","875","wedding",NULL,"2017-09-27 14:04:27","96620"
"A8QJ1G6724G51
","cs_wg_v6_real1","3U8YCDAGXPHVLSEC38DWYIHE5HQ0Q3","8","1","BOOKSHELF","1","THOCKY","1","4342","bookshelf",NULL,"2017-09-27 14:04:27","96621"
"A305KD2HBUUCMQ","cs_wg_v6_real1","340UGXU9DY236MM9NELQTC4T2Y8VUU","3","1","STOMACH","1","MEAKEN","0","2156",,NULL,"2017-09-27 14:04:27","96622"
"A2L24GZ7YWKGDE","cs_wg_v6_real1","3EA3QWIZ4IWJK3NKO2WX9RSXBI5TI4","6","0","BOOKSHELF","1","ZORING","1","5851","BOOKSHELF",NULL,"2017-09-27 14:04:27","96623"
"A36W1S4Z2LSNTC","cs_wg_v6_real1","37ZHEEHM6WNHW28UQWM90PYQ33I373","8","1","STRUCTURE","1","STEAVES","1","1218","STRUCTURE",NULL,"2017-09-27 14:04:27","96624"
"A29VPSFOR6OO5H","cs_wg_v6_real1","34S9DKFK73Q7FQX5VOWOMGGTCJHYNE","10","0","HELICOPTER","1","THOCKY","1","1570","Helicopter",NULL,"2017-09-27 14:04:27","96625"
"A3B9OZQTE4US3T","cs_wg_v6_real1","34Z02EIMISE8D864KC7R3NS1POP0TH","10","1","DOORWAY","1","MURRADS","1","3712","DOORWAY",NULL,"2017-09-27 14:04:27","96626"
"A33YX15T1HYFMW","cs_wg_v6_real1","3G5W44VEU7J6LTR245I2NOSLDSMGKT","5","1","TRAFFIC","1","THOCKY","1","2257","traffic",NULL,"2017-09-27 14:04:27","96627"
"A2NTS2HNDOLRCR","cs_wg_v6_real1","3MD9PLUKKIF7KG7ARAY70NPVIDLZN6","4","1","BOOKSHELF","1","THOCKY","1","1638","bookshelf",NULL,"2017-09-27 14:04:28","96628"
"A2QT68NJYAJV9P","cs_wg_v6_real1","3ITXP059PWKE0EUBHKC7BNBBMEHJSI","2","1","FOOTBALL","1","MUDLEY","1","2351","football",NULL,"2017-09-27 14:04:29","96629"
"A14EWMT2R4UEU6
","cs_wg_v6_real1","3GFK2QRXX9IZ0WWZCNIE72VRAQHW5N","0","1","KEYBOARD","1","WUGGED","0","10417","keyboard",NULL,"2017-09-27 14:04:29","96630"
"A28WSBB0DSV47X","cs_wg_v6_real1","33IZTU6J812FVYZ0YOR82WJQXCVSXE","12","1","FOOTBALL","1","WOOKED","1","3054","FOOTBALL",NULL,"2017-09-27 14:04:29","96631"
"AU7A3QNJF3O00","cs_wg_v6_real1","3RANCT1ZVFIOX8O3IXUQS0AMZ6SUBN","2","0","HELICOPTER","1","CHOOTH","1","3471","HELICOPTER",NULL,"2017-09-27 14:04:30","96632"
"A1YH4LT7EAYT47","cs_wg_v6_real1","3XCC1ODXDLCJLMYBXLWBIEI1E7PQRR","16","0","UMBRELLA","1","HOTCHACK","1","2346","UMBRELLA",NULL,"2017-09-27 14:04:30","96633"
"A0657006AJFWB5ZA91B2","cs_wg_v6_real1","3ZV9H2YQQD8WMH9VY4ULS5X7WUQW3X","3","0","WEDDING","1","CHEEDLE","1","2361","WEDDING",NULL,"2017-09-27 14:04:30","96634"
"A33FSJRW7E1XVV","cs_wg_v6_real1","36TFCYNS44BQ5PLKNUF9YICOO1FHXJ","1","0","TRAFFIC","1","FROPED","1","2425","Traffic",NULL,"2017-09-27 14:04:30","96635"
"AIVV4VUFFYHHN","cs_wg_v6_real1","3X1FV8S5JXSK14LE39W9PX32TQUGVG","1","1","KEYBOARD","1","CLEEPERS","1","3782","keyboard",NULL,"2017-09-27 14:04:30","96636"
"A3NWXWSXFJG8BI","cs_wg_v6_real1","3PS7W85Z8Z3Q92UHK8QKWYTUSSIT9L","14","1","KEYBOARD","1","THOCKY","1","853","keyboard",NULL,"2017-09-27 14:04:30","96637"
"A1IMU6GWPN1Y9D","cs_wg_v6_real1","3DIP6YHAPCTO6ETAPLVBXGYI5CE8EM","0","1","FOOTBALL","1","FIPPING","1","4597","football",NULL,"2017-09-27 14:04:31","96638"
"A2UOSEPGNUITM8","cs_wg_v6_real1","336YQZE83VF3VK2L8LCRY4T0CO45M6","0","0","FOOTBALL","1","VATED","1","6754","FOOTBALL",NULL,"2017-09-27 14:04:31","96640"
"A19R7FSNDW6WRK","cs_wg_v6_real1","3B4YI393V9X7ZHD14ELL3O2YIXTSS6","1","1","STOMACH","1","PLIBBERED","1","3446","Stomach",NULL,"2017-09-27 14:04:31","96639"
"A3MKPYMUM6N5XQ","cs_wg_v6_real1","374TNBHA8BWSINAXBGO5QABYHU4YQ1","5","1","STRUCTURE","1","WOOKED","1","3048","structure",NULL,"2017-09-27 14:04:31","96641"
"A293AP4EOI44BS","cs_wg_v6_real1","3HHRAGRYX86AWAP9OR4L2ON7TK1O9U","12","1","HELICOPTER","1","CLEEPERS","1","1161","helicopter",NULL,"2017-09-27 14:04:32","96642"
"A2EJ06OGI9671Q","cs_wg_v6_real1","3B837J3LDOXVY2DOPPLGDEX2WVASRI","10","1","LADDER","1","WUGGED","1","1646","ladder",NULL,"2017-09-27 14:04:32","96643"
"AXKODH8S4ABAB","cs_wg_v6_real1","33C7UALJVLZPMDZYDX0WQWFOG3A18W","11","1","BOOKSHELF","1","MICKERED","1","1584","bookshelf",NULL,"2017-09-27 14:04:32","96644"
"A2AEY7AGQYBN6X","cs_wg_v6_real1","32UTUBMZ7GXOAND3NN4VOMC5DD2BVU","1","0","TRAFFIC","1","FLEMMERING","1","1238","traffic",NULL,"2017-09-27 14:04:32","96645"
"A1YIMBPJ9MUKLJ","cs_wg_v6_real1","3BDCF01OGXVHRQUKJBG99OC47OHLYZ","12","0","BASKET","1","DROOFER","1","1920","basket",NULL,"2017-09-27 14:04:32","96646"
"A1CGGZRO2JUQUG","cs_wg_v6_real1","3YWRV122CS05VAQWFLAG1YKLR088U3","6","1","COMMUNITY","1","SURSED","1","2320","COMMUNITY",NULL,"2017-09-27 14:04:32","96647"
"A33QI63NVR8CUO","cs_wg_v6_real1","39U1BHVTDLS4U0513ZPA5LQ8S08T34","7","1","COMMUNITY","1","NARDLY","1","2167","community",NULL,"2017-09-27 14:04:32","96648"
"A17F06M11XQX6S","cs_wg_v6_real1","3D3VGR7TA0GRELS9ZAKF56PQ4FBR3P","8","1","STOMACH","1","MICKERED","1","1832","stomach",NULL,"2017-09-27 14:04:32","96649"
"A1G452MFAS690B","cs_wg_v6_real1","3VELCLL3GKKY1S9LLB620OWA37N1FD","12","0","STRUCTURE","1","POATS","1","1861","STRUCTURE",NULL,"2017-09-27 14:04:32","96650"
"A3NK3VPYRHZBW8","cs_wg_v6_real1","3VSOLARPKBALALWN5TKTELPWYT639F","1","1","BASKET","1","SCRIGGED","1","5749","basket",NULL,"2017-09-27 14:04:32","96651"
"A1G17IJC53N6K3","cs_wg_v6_real1","3X0H8UUIT1P06YUAOJVM0D5JOAPSWL","4","0","BOOKSHELF","1","NARDLY","1","2948","BOOKSHELF",NULL,"2017-09-27 14:04:33","96652"
"A10LGIY5HFYMZM","cs_wg_v6_real1","3IUZPWIU1O82IFH2JAMK9RE97GCWK8","3","0","UMBRELLA","1","FROPED","1","3372","UMBRELLA",NULL,"2017-09-27 14:04:33","96653"
"ALDQRWYZ8KQ9A","cs_wg_v6_real1","3S06PH7KSR5138VPU5BCCOTPRU71D2","5","0","STRUCTURE","1","HOTCHACK","1","4612","structure",NULL,"2017-09-27 14:04:33","96654"
"A36CZ0F88ELFWF","cs_wg_v6_real1","3SB5N7Y3O35483KY0C8K44DCZUH0G8","4","1","MACHINE","1","MICKERED","1","5636","machine",NULL,"2017-09-27 14:04:33","96655"
"a2zx7580nvwa61","cs_wg_v6_real1","39O5D9O87TTN8J3QHDUKGBQ44E93CW","2","0","STOMACH","1","FROPED","1","2798","stomach",NULL,"2017-09-27 14:04:33","96656"
"A2WRKUN3RCJYW8","cs_wg_v6_real1","35GMH2SV3EIRR6GQW2K7U2OIKHHOE4","0","0","KEYBOARD","1","VATED","1","7663","keyboard",NULL,"2017-09-27 14:04:33","96657"
"A3M4TO1SU4BLN4
","cs_wg_v6_real1","3JNQLM5FT4NRQ51DQQ9E0KBZS9N2L0","3","0","BASKET","1","CHAXED","1","2515","basket",NULL,"2017-09-27 14:04:34","96658"
"A21KXWKFWGBCZ3","cs_wg_v6_real1","3NVC2EB65Q00BM4VD5C9D2IN72R3Y4","6","0","MACHINE","1","FIPPING","1","2169","machine",NULL,"2017-09-27 14:04:34","96659"
"A2MPCT1O95PVL9","cs_wg_v6_real1","30IQTZXKAK7FUPFOPM8OSQD72KD0X0","3","1","BOOKSHELF","1","JADDEARED","1","2262","BOOKSHELF",NULL,"2017-09-27 14:04:34","96660"
"A1BHR5XQ16T7LA","cs_wg_v6_real1","3KV0LJBBH2MS070J5SPU15YW46SRM5","0","1","BASKET","1","BLICKET","1","7130","basket",NULL,"2017-09-27 14:04:34","96661"
"A1ST4RTOTHAKMY","cs_wg_v6_real1","3OONKJ5DKCKTK346MBIHTUIXHK5BOS","6","0","BOOKSHELF","1","POATS","1","1806","bookshelf",NULL,"2017-09-27 14:04:34","96662"
"A2HM0OP9UNOR1E","cs_wg_v6_real1","3ZOTGHDK5ICS1PL8XX4CJJSXL8QSO9","1","0","UMBRELLA","1","SURSED","1","3728","umbrella",NULL,"2017-09-27 14:04:34","96663"
"A2295H0UW8SPNU","cs_wg_v6_real1","3AQF3RZ558JT8EAIRHIJVKNRBI36FG","3","1","STOMACH","1","WUGGED","1","1590","stomach",NULL,"2017-09-27 14:04:35","96664"
"A17LIM50IMQN7Y","cs_wg_v6_real1","3UNH76FOCS61X8C5JNHO91RT7T7YME","8","1","COMMUNITY","1","ZALEY","1","3582","community",NULL,"2017-09-27 14:04:35","96665"
"A2GF7PYHT21U3X","cs_wg_v6_real1","3IXQG4FA2TZQDG00KMZZW4N8MLJ9BC","7","1","DOORWAY","1","DROOFER","1","21871","doorway",NULL,"2017-09-27 14:04:35","96666"
"A36W1S4Z2LSNTC","cs_wg_v6_real1","37ZHEEHM6WNHW28UQWM90PYQ33I373","9","0","UMBRELLA","1","CHEEDLE","1","1572","UMBRELLA",NULL,"2017-09-27 14:04:36","96667"
"A34RGSBBFQ6HI1
","cs_wg_v6_real1","3NQL1CS15R9KNV6EXFIFWXA6YMJYVV","1","1","STOMACH","1","FLEMMERING","1","2251","Stomach",NULL,"2017-09-27 14:04:36","96668"
"A2U7BMG19Q83GE","cs_wg_v6_real1","3NLZY2D53PQ8IO3YS1ZFW2928F0LQW","16","0","COMMUNITY","1","WOOKED","1","1424","community",NULL,"2017-09-27 14:04:36","96669"
"A30MYN1DI6EJ8M","cs_wg_v6_real1","36AHBNMV1RDYTE6S6UILQB4ZYFFYDW","12","0","TRAFFIC","1","SCREEP","1","1897","TRAFFIC",NULL,"2017-09-27 14:04:36","96670"
"A1R6ZLM9V362F7","cs_wg_v6_real1","3A0EX8ZRN8P5EH88SYRFVLGZVU3YBP","11","0","STOMACH","1","FROPED","1","2549","stomach",NULL,"2017-09-27 14:04:36","96671"
"A2RN74UCHE5CYI","cs_wg_v6_real1","3OUYGIZWR7ZALGDX3VY7YDR40L40PC","5","1","LADDER","1","JADDEARED","1","2598","ladder",NULL,"2017-09-27 14:04:36","96672"
"AU34T9OMHN4Z4","cs_wg_v6_real1","3QILPRALQ5WS0K6NIKYUN3SRJ4F8NB","3","0","KEYBOARD","1","CHAXED","1","3259","keyboard",NULL,"2017-09-27 14:04:36","96673"
"A3JDWMS5QJHREI","cs_wg_v6_real1","36NEMU28XFEX83H54MZ0O46DWL7WMD","8","0","WEDDING","1","SCREEP","1","2708","wedding",NULL,"2017-09-27 14:04:37","96674"
"A29VPSFOR6OO5H","cs_wg_v6_real1","34S9DKFK73Q7FQX5VOWOMGGTCJHYNE","11","1","FOOTBALL","1","SURSED","0","1115","Football",NULL,"2017-09-27 14:04:37","96675"
"A1PY5N25LLLULV","cs_wg_v6_real1","3WS1NTTKEYDYU3O3PS22MJD0YFHF0O","1","1","TRAFFIC","1","ROAKING","1","3058","traffic",NULL,"2017-09-27 14:04:37","96676"
"A2L24GZ7YWKGDE","cs_wg_v6_real1","3EA3QWIZ4IWJK3NKO2WX9RSXBI5TI4","7","0","HELICOPTER","1","GLUNDLE","1","3472","HELICOPTER",NULL,"2017-09-27 14:04:37","96677"
"A1ZWJF3V4NXN6H","cs_wg_v6_real1","32XVDSJFPZYBWNJYQ2AT0XQOSECM2L","13","1","WEDDING","1","DUNCHED","1","2507","WEDDING",NULL,"2017-09-27 14:04:37","96678"
"ap4fddwbjw470","cs_wg_v6_real1","3907X2AHF06HHQGBII2LH1KJXJO2PY","1","0","LADDER","1","CHEEDLE","1","5147","ladder",NULL,"2017-09-27 14:04:37","96679"
" AFH0174LHAHMQ","cs_wg_v6_real1","3KB8R4ZV1E85SQN8YS59OL9VQYEBG5","0","0","TRAFFIC","1","CHEEDLE","1","11699","traffic ",NULL,"2017-09-27 14:04:37","96680"
"A3B9OZQTE4US3T","cs_wg_v6_real1","34Z02EIMISE8D864KC7R3NS1POP0TH","11","0","BOOKSHELF","1","FIPPING","1","4480","BOOKSHELF",NULL,"2017-09-27 14:04:37","96681"
"A305KD2HBUUCMQ","cs_wg_v6_real1","340UGXU9DY236MM9NELQTC4T2Y8VUU","4","0","STRUCTURE","1","DROOFER","0","1343",,NULL,"2017-09-27 14:04:38","96682"
"A1YH4LT7EAYT47","cs_wg_v6_real1","3XCC1ODXDLCJLMYBXLWBIEI1E7PQRR","17","1","UMBRELLA","1","WOOKED","1","2635","UMBRELLA",NULL,"2017-09-27 14:04:38","96683"
"A33YX15T1HYFMW","cs_wg_v6_real1","3G5W44VEU7J6LTR245I2NOSLDSMGKT","6","1","TRAFFIC","1","CHEEDLE","1","2262","traffic",NULL,"2017-09-27 14:04:38","96684"
"A33XV57T69HVA","cs_wg_v6_real1","30LB5CDZNCB4ZKF3Q4W9PBTIAKAZ0V","5","0","TRAFFIC","1","DUNCHED","1","2768","traffic",NULL,"2017-09-27 14:04:38","96685"
"A3J0ALXC5LRSSG","cs_wg_v6_real1","3B2X28YI3WG3VXY2MFWNCUW6WKB6BY","7","0","TRAFFIC","1","PLIBBERED","0","1512","traffic",NULL,"2017-09-27 14:04:39","96686"
"ABHKTBF20ZL6G","cs_wg_v6_real1","37QW5D2ZRGNPGXYSQGFGMX2X63N8SN","3","1","DOORWAY","1","ZORING","1","2555","doorway",NULL,"2017-09-27 14:04:39","96687"
"A3K8J4N2M38P0S","cs_wg_v6_real1","3B1NLC6UGZX7WKOIHXNAJ5EK72TGPV","1","0","STRUCTURE","1","CHEEDLE","1","6766","STRUCTURE",NULL,"2017-09-27 14:04:39","96688"
"A3095ABT1L25QK","cs_wg_v6_real1","3570Y55XZPK15YGJ8KJTWW7WB7VYG6","5","1","BOOKSHELF","1","JADDEARED","1","4819","bookshelf",NULL,"2017-09-27 14:04:39","96689"
"A28WSBB0DSV47X","cs_wg_v6_real1","33IZTU6J812FVYZ0YOR82WJQXCVSXE","13","0","BASKET","1","DROOFER","1","3881","BASKET",NULL,"2017-09-27 14:04:39","96690"
"A1G452MFAS690B","cs_wg_v6_real1","3VELCLL3GKKY1S9LLB620OWA37N1FD","13","0","FOOTBALL","1","THOCKY","1","1497","FOOTBALL",NULL,"2017-09-27 14:04:39","96691"
"A3NWXWSXFJG8BI","cs_wg_v6_real1","3PS7W85Z8Z3Q92UHK8QKWYTUSSIT9L","15","0","BOOKSHELF","1","SNAVE","1","1416","bookshelf",NULL,"2017-09-27 14:04:40","96692"
"A3D7JEGMSYKCUJ","cs_wg_v6_real1","3J4Q2Z4UTY4OTIFXWF6H5DQI6M4QWU","9","1","HELICOPTER","1","SNAVE","1","2445","helicopter",NULL,"2017-09-27 14:04:40","96693"
"AKU3ZW3LVDUR9
","cs_wg_v6_real1","3X31TUMD7XNK1KJH7M90V11U0391LI","1","1","HELICOPTER","1","STEAVES","1","3647","HELICOPTER",NULL,"2017-09-27 14:04:40","96694"
"A0657006AJFWB5ZA91B2","cs_wg_v6_real1","3ZV9H2YQQD8WMH9VY4ULS5X7WUQW3X","4","0","WEDDING","1","THOCKY","1","2263","WEDDING",NULL,"2017-09-27 14:04:40","96695"
"A2NTS2HNDOLRCR","cs_wg_v6_real1","3MD9PLUKKIF7KG7ARAY70NPVIDLZN6","5","0","COMMUNITY","1","CLEEPERS","1","4386","COMMUNITY

COMMUNITY

COMMUNITY

COMMUNITY

commun",NULL,"2017-09-27 14:04:40","96696"
"AV15YFBYL71S6","cs_wg_v6_real1","3URFVVM165JKF6RJOBATEIHPQ9EZUY","1","0","HELICOPTER","1","HOTCHACK","1","2161","helicopter",NULL,"2017-09-27 14:04:40","96697"
"A1YIMBPJ9MUKLJ","cs_wg_v6_real1","3BDCF01OGXVHRQUKJBG99OC47OHLYZ","13","1","FOOTBALL","1","ZALEY","1","1560","football",NULL,"2017-09-27 14:04:41","96698"
"AXKODH8S4ABAB","cs_wg_v6_real1","33C7UALJVLZPMDZYDX0WQWFOG3A18W","12","0","KEYBOARD","1","DROOFER","1","2102","keyboard",NULL,"2017-09-27 14:04:41","96699"
"A21KXWKFWGBCZ3","cs_wg_v6_real1","3NVC2EB65Q00BM4VD5C9D2IN72R3Y4","7","1","LADDER","1","SCREEP","1","1753","ladder",NULL,"2017-09-27 14:04:42","96700"
"A33FSJRW7E1XVV","cs_wg_v6_real1","36TFCYNS44BQ5PLKNUF9YICOO1FHXJ","2","0","MACHINE","1","WUGGED","1","2563","Machine",NULL,"2017-09-27 14:04:42","96701"
"AIVV4VUFFYHHN","cs_wg_v6_real1","3X1FV8S5JXSK14LE39W9PX32TQUGVG","2","0","TRAFFIC","1","WOOKED","1","2955","traffic",NULL,"2017-09-27 14:04:42","96702"
" A3D16MEQ737XK0","cs_wg_v6_real1","3NLZY2D53PQ8IO3YS1ZFW2928F0QL1","0","1","UMBRELLA","1","DROOFER","1","8146","Umbrella",NULL,"2017-09-27 14:04:42","96703"
"A1CGGZRO2JUQUG","cs_wg_v6_real1","3YWRV122CS05VAQWFLAG1YKLR088U3","7","0","COMMUNITY","1","MICKERED","1","1768","COMMUNITY",NULL,"2017-09-27 14:04:42","96704"
"A1ST4RTOTHAKMY","cs_wg_v6_real1","3OONKJ5DKCKTK346MBIHTUIXHK5BOS","7","1","STOMACH","1","TINGER","1","2060","stomach",NULL,"2017-09-27 14:04:42","96705"
"A293AP4EOI44BS","cs_wg_v6_real1","3HHRAGRYX86AWAP9OR4L2ON7TK1O9U","13","1","LADDER","1","PLIBBERED","1","1900","ladder",NULL,"2017-09-27 14:04:43","96706"
"A1G17IJC53N6K3","cs_wg_v6_real1","3X0H8UUIT1P06YUAOJVM0D5JOAPSWL","5","1","DOORWAY","1","MUDLEY","1","2178","DOORWAY",NULL,"2017-09-27 14:04:43","96707"
"A19R7FSNDW6WRK","cs_wg_v6_real1","3B4YI393V9X7ZHD14ELL3O2YIXTSS6","2","0","HELICOPTER","1","ZALEY","1","2787","Helicopter",NULL,"2017-09-27 14:04:43","96708"
"A8QJ1G6724G51
","cs_wg_v6_real1","3U8YCDAGXPHVLSEC38DWYIHE5HQ0Q3","9","0","TRAFFIC","1","BLICKET","1","9090","traffic",NULL,"2017-09-27 14:04:43","96709"
"A1ZWJF3V4NXN6H","cs_wg_v6_real1","32XVDSJFPZYBWNJYQ2AT0XQOSECM2L","14","0","LADDER","1","CHAXED","1","1649","LADDER",NULL,"2017-09-27 14:04:43","96710"
"A3MKPYMUM6N5XQ","cs_wg_v6_real1","374TNBHA8BWSINAXBGO5QABYHU4YQ1","6","1","STOMACH","1","FIPPING","1","3062","stomach",NULL,"2017-09-27 14:04:44","96711"
"ALDQRWYZ8KQ9A","cs_wg_v6_real1","3S06PH7KSR5138VPU5BCCOTPRU71D2","6","1","WEDDING","1","TINGER","1","3157","wedding",NULL,"2017-09-27 14:04:44","96712"
"A3M4TO1SU4BLN4
","cs_wg_v6_real1","3JNQLM5FT4NRQ51DQQ9E0KBZS9N2L0","4","0","FOOTBALL","1","PLIBBERED","1","2391","football",NULL,"2017-09-27 14:04:44","96713"
"A2EJ06OGI9671Q","cs_wg_v6_real1","3B837J3LDOXVY2DOPPLGDEX2WVASRI","11","0","STRUCTURE","1","TINGER","1","3184","structure",NULL,"2017-09-27 14:04:44","96714"
"A2U7BMG19Q83GE","cs_wg_v6_real1","3NLZY2D53PQ8IO3YS1ZFW2928F0LQW","17","1","WEDDING","1","TINGER","1","1200","wedding",NULL,"2017-09-27 14:04:44","96715"
"A29VPSFOR6OO5H","cs_wg_v6_real1","34S9DKFK73Q7FQX5VOWOMGGTCJHYNE","12","1","DOORWAY","1","FROPED","1","1163","doorway",NULL,"2017-09-27 14:04:45","96716"
"AU7A3QNJF3O00","cs_wg_v6_real1","3RANCT1ZVFIOX8O3IXUQS0AMZ6SUBN","3","0","BOOKSHELF","1","ROAKING","1","2623","BOOKSHELF",NULL,"2017-09-27 14:04:45","96717"
"A33QI63NVR8CUO","cs_wg_v6_real1","39U1BHVTDLS4U0513ZPA5LQ8S08T34","8","0","BASKET","1","WUGGED","1","1865","basket",NULL,"2017-09-27 14:04:45","96718"
"A1YH4LT7EAYT47","cs_wg_v6_real1","3XCC1ODXDLCJLMYBXLWBIEI1E7PQRR","18","0","UMBRELLA","1","POATS","1","1805","UMBRELLA",NULL,"2017-09-27 14:04:45","96719"
"A30MYN1DI6EJ8M","cs_wg_v6_real1","36AHBNMV1RDYTE6S6UILQB4ZYFFYDW","13","1","DOORWAY","1","MICKERED","1","2574","DOORWAY",NULL,"2017-09-27 14:04:45","96720"
"a2zx7580nvwa61","cs_wg_v6_real1","39O5D9O87TTN8J3QHDUKGBQ44E93CW","3","0","FOOTBALL","1","FROPED","1","2398","football",NULL,"2017-09-27 14:04:45","96721"
"A2295H0UW8SPNU","cs_wg_v6_real1","3AQF3RZ558JT8EAIRHIJVKNRBI36FG","4","0","UMBRELLA","1","CHAXED","0","1850","umbrella",NULL,"2017-09-27 14:04:45","96722"
"A2MPCT1O95PVL9","cs_wg_v6_real1","30IQTZXKAK7FUPFOPM8OSQD72KD0X0","4","0","STOMACH","1","DUNCHED","1","2685","STOMACH",NULL,"2017-09-27 14:04:45","96723"
"A36W1S4Z2LSNTC","cs_wg_v6_real1","37ZHEEHM6WNHW28UQWM90PYQ33I373","10","1","HELICOPTER","1","PLIBBERED","1","1394","HELICOPTER",NULL,"2017-09-27 14:04:45","96724"
"A1PY5N25LLLULV","cs_wg_v6_real1","3WS1NTTKEYDYU3O3PS22MJD0YFHF0O","2","1","DOORWAY","1","FROPED","1","2082","doorway",NULL,"2017-09-27 14:04:45","96725"
"A1R6ZLM9V362F7","cs_wg_v6_real1","3A0EX8ZRN8P5EH88SYRFVLGZVU3YBP","12","1","FOOTBALL","1","SCRIGGED","1","2144","football",NULL,"2017-09-27 14:04:46","96726"
"A2AEY7AGQYBN6X","cs_wg_v6_real1","32UTUBMZ7GXOAND3NN4VOMC5DD2BVU","2","0","COMMUNITY","1","FLEMMERING","1","5343","community",NULL,"2017-09-27 14:04:46","96727"
"A1IMU6GWPN1Y9D","cs_wg_v6_real1","3DIP6YHAPCTO6ETAPLVBXGYI5CE8EM","1","0","HELICOPTER","1","ZALEY","1","7452","heicopter",NULL,"2017-09-27 14:04:46","96728"
"A17LIM50IMQN7Y","cs_wg_v6_real1","3UNH76FOCS61X8C5JNHO91RT7T7YME","9","0","TRAFFIC","1","CHOOTH","1","2806","traffic",NULL,"2017-09-27 14:04:46","96729"
"A2L24GZ7YWKGDE","cs_wg_v6_real1","3EA3QWIZ4IWJK3NKO2WX9RSXBI5TI4","8","0","MACHINE","1","NARDLY","1","3449","MACHINE",NULL,"2017-09-27 14:04:46","96730"
"A3B9OZQTE4US3T","cs_wg_v6_real1","34Z02EIMISE8D864KC7R3NS1POP0TH","12","1","TRAFFIC","1","CHAXED","1","3448","TRAFFIC",NULL,"2017-09-27 14:04:47","96731"
"A3J0ALXC5LRSSG","cs_wg_v6_real1","3B2X28YI3WG3VXY2MFWNCUW6WKB6BY","8","1","WEDDING","1","TINGER","1","1271","wedding",NULL,"2017-09-27 14:04:47","96732"
"A3NK3VPYRHZBW8","cs_wg_v6_real1","3VSOLARPKBALALWN5TKTELPWYT639F","2","0","WEDDING","1","ZORING","1","4298","wedding",NULL,"2017-09-27 14:04:47","96733"
"A3JDWMS5QJHREI","cs_wg_v6_real1","36NEMU28XFEX83H54MZ0O46DWL7WMD","9","1","STOMACH","1","CHOOTH","1","1866","stomach",NULL,"2017-09-27 14:04:47","96734"
"A17F06M11XQX6S","cs_wg_v6_real1","3D3VGR7TA0GRELS9ZAKF56PQ4FBR3P","9","0","HELICOPTER","1","ZALEY","1","2210","helicopter",NULL,"2017-09-27 14:04:47","96735"
"A1G452MFAS690B","cs_wg_v6_real1","3VELCLL3GKKY1S9LLB620OWA37N1FD","14","0","WEDDING","1","FROPED","1","2043","WEDDING",NULL,"2017-09-27 14:04:47","96736"
"A34RGSBBFQ6HI1
","cs_wg_v6_real1","3NQL1CS15R9KNV6EXFIFWXA6YMJYVV","2","1","LADDER","1","FROPED","1","2364","ladder",NULL,"2017-09-27 14:04:47","96737"
"A10LGIY5HFYMZM","cs_wg_v6_real1","3IUZPWIU1O82IFH2JAMK9RE97GCWK8","4","1","KEYBOARD","1","SURSED","1","3641","KEYBOARD",NULL,"2017-09-27 14:04:47","96738"
"A3NWXWSXFJG8BI","cs_wg_v6_real1","3PS7W85Z8Z3Q92UHK8QKWYTUSSIT9L","16","0","BOOKSHELF","1","JADDEARED","1","1187","bookshelf",NULL,"2017-09-27 14:04:48","96739"
"A36CZ0F88ELFWF","cs_wg_v6_real1","3SB5N7Y3O35483KY0C8K44DCZUH0G8","5","1","TRAFFIC","1","THOCKY","1","4205","traffic",NULL,"2017-09-27 14:04:48","96740"
"A2QT68NJYAJV9P","cs_wg_v6_real1","3ITXP059PWKE0EUBHKC7BNBBMEHJSI","3","0","KEYBOARD","1","SCREEP","1","3927","keyboard",NULL,"2017-09-27 14:04:48","96741"
"A1BHR5XQ16T7LA","cs_wg_v6_real1","3KV0LJBBH2MS070J5SPU15YW46SRM5","1","1","COMMUNITY","1","MICKERED","1","3485","community",NULL,"2017-09-27 14:04:48","96742"
"A2HM0OP9UNOR1E","cs_wg_v6_real1","3ZOTGHDK5ICS1PL8XX4CJJSXL8QSO9","2","1","UMBRELLA","1","PLIBBERED","1","3132","umbrella",NULL,"2017-09-27 14:04:48","96743"
"A2GF7PYHT21U3X","cs_wg_v6_real1","3IXQG4FA2TZQDG00KMZZW4N8MLJ9BC","8","0","KEYBOARD","1","WUGGED","1","2008","keyboard",NULL,"2017-09-27 14:04:48","96744"
"A305KD2HBUUCMQ","cs_wg_v6_real1","340UGXU9DY236MM9NELQTC4T2Y8VUU","5","1","STRUCTURE","1","WUGGED","0","1672",,NULL,"2017-09-27 14:04:48","96745"
"A28WSBB0DSV47X","cs_wg_v6_real1","33IZTU6J812FVYZ0YOR82WJQXCVSXE","14","0","HELICOPTER","1","CHEEDLE","1","2732","HELICOPTERp",NULL,"2017-09-27 14:04:49","96746"
"A2RN74UCHE5CYI","cs_wg_v6_real1","3OUYGIZWR7ZALGDX3VY7YDR40L40PC","6","0","DOORWAY","1","CHAXED","1","3501","doorway",NULL,"2017-09-27 14:04:49","96747"
"A33XV57T69HVA","cs_wg_v6_real1","30LB5CDZNCB4ZKF3Q4W9PBTIAKAZ0V","6","1","COMMUNITY","1","ZALEY","1","1827","community",NULL,"2017-09-27 14:04:49","96748"
"A14EWMT2R4UEU6
","cs_wg_v6_real1","3GFK2QRXX9IZ0WWZCNIE72VRAQHW5N","1","0","COMMUNITY","1","HOTCHACK","1","4324","community",NULL,"2017-09-27 14:04:49","96749"
"A2WRKUN3RCJYW8","cs_wg_v6_real1","35GMH2SV3EIRR6GQW2K7U2OIKHHOE4","1","0","TRAFFIC","1","CHAXED","1","2425","traffic",NULL,"2017-09-27 14:04:49","96750"
"A1YIMBPJ9MUKLJ","cs_wg_v6_real1","3BDCF01OGXVHRQUKJBG99OC47OHLYZ","14","0","DOORWAY","1","DROOFER","1","1945","doorway",NULL,"2017-09-27 14:04:50","96751"
"A21KXWKFWGBCZ3","cs_wg_v6_real1","3NVC2EB65Q00BM4VD5C9D2IN72R3Y4","8","1","LADDER","1","NARDLY","1","1421","ladder",NULL,"2017-09-27 14:04:50","96752"
"A3K8J4N2M38P0S","cs_wg_v6_real1","3B1NLC6UGZX7WKOIHXNAJ5EK72TGPV","2","1","UMBRELLA","1","NARDLY","1","5184","UMBRELLA",NULL,"2017-09-27 14:04:50","96753"
"AV15YFBYL71S6","cs_wg_v6_real1","3URFVVM165JKF6RJOBATEIHPQ9EZUY","2","1","BASKET","1","SURSED","1","3531","BASKET",NULL,"2017-09-27 14:04:51","96754"
"A134Z0KUOMR8CW","cs_wg_v6_real1","3Q8GYXHFEP3QMYQUVWIDV8OOIA0C5V","0","1","STRUCTURE","1","ZALEY","1","4150","structure",NULL,"2017-09-27 14:04:51","96755"
"AU34T9OMHN4Z4","cs_wg_v6_real1","3QILPRALQ5WS0K6NIKYUN3SRJ4F8NB","4","1","TRAFFIC","1","ZORING","1","4134","traffic",NULL,"2017-09-27 14:04:51","96756"
"A3D7JEGMSYKCUJ","cs_wg_v6_real1","3J4Q2Z4UTY4OTIFXWF6H5DQI6M4QWU","10","0","FOOTBALL","1","FROPED","1","2501","football",NULL,"2017-09-27 14:04:51","96757"
"AXKODH8S4ABAB","cs_wg_v6_real1","33C7UALJVLZPMDZYDX0WQWFOG3A18W","13","0","STOMACH","1","SURSED","1","2142","stomach",NULL,"2017-09-27 14:04:51","96758"
"A1CGGZRO2JUQUG","cs_wg_v6_real1","3YWRV122CS05VAQWFLAG1YKLR088U3","8","1","BASKET","1","HOTCHACK","1","2576","BASKET",NULL,"2017-09-27 14:04:51","96759"
"A33YX15T1HYFMW","cs_wg_v6_real1","3G5W44VEU7J6LTR245I2NOSLDSMGKT","7","0","COMMUNITY","1","MURRADS","1","2416","community",NULL,"2017-09-27 14:04:51","96760"
"A1ST4RTOTHAKMY","cs_wg_v6_real1","3OONKJ5DKCKTK346MBIHTUIXHK5BOS","8","1","LADDER","1","VATED","1","938","ladder",NULL,"2017-09-27 14:04:52","96761"
"ABHKTBF20ZL6G","cs_wg_v6_real1","37QW5D2ZRGNPGXYSQGFGMX2X63N8SN","4","1","BASKET","1","NARDLY","1","2397","basket",NULL,"2017-09-27 14:04:52","96762"
"A30MYN1DI6EJ8M","cs_wg_v6_real1","36AHBNMV1RDYTE6S6UILQB4ZYFFYDW","14","0","BASKET","1","VATED","1","1827","BASKET",NULL,"2017-09-27 14:04:52","96763"
"A3095ABT1L25QK","cs_wg_v6_real1","3570Y55XZPK15YGJ8KJTWW7WB7VYG6","6","1","KEYBOARD","1","POATS","1","2559","keyboard",NULL,"2017-09-27 14:04:52","96764"
"A2NTS2HNDOLRCR","cs_wg_v6_real1","3MD9PLUKKIF7KG7ARAY70NPVIDLZN6","6","1","BASKET","1","SCRIGGED","1","5908","BASKET",NULL,"2017-09-27 14:04:52","96765"
"ap4fddwbjw470","cs_wg_v6_real1","3907X2AHF06HHQGBII2LH1KJXJO2PY","2","1","UMBRELLA","1","CHOOTH","1","5983","umbrella",NULL,"2017-09-27 14:04:53","96766"
"A293AP4EOI44BS","cs_wg_v6_real1","3HHRAGRYX86AWAP9OR4L2ON7TK1O9U","14","0","MACHINE","1","SURSED","1","2693","machine",NULL,"2017-09-27 14:04:53","96767"
"A2EJ06OGI9671Q","cs_wg_v6_real1","3B837J3LDOXVY2DOPPLGDEX2WVASRI","12","1","TRAFFIC","1","ROAKING","1","1220","traffic",NULL,"2017-09-27 14:04:53","96768"
"A29VPSFOR6OO5H","cs_wg_v6_real1","34S9DKFK73Q7FQX5VOWOMGGTCJHYNE","13","1","COMMUNITY","1","SURSED","1","1123","community",NULL,"2017-09-27 14:04:53","96769"
"A1YH4LT7EAYT47","cs_wg_v6_real1","3XCC1ODXDLCJLMYBXLWBIEI1E7PQRR","19","1","HELICOPTER","1","PLIBBERED","1","2779","HELICOPTER",NULL,"2017-09-27 14:04:53","96770"
"A1G17IJC53N6K3","cs_wg_v6_real1","3X0H8UUIT1P06YUAOJVM0D5JOAPSWL","6","1","UMBRELLA","1","PLIBBERED","1","2609","UMBRELLA",NULL,"2017-09-27 14:04:53","96771"
"A1ZWJF3V4NXN6H","cs_wg_v6_real1","32XVDSJFPZYBWNJYQ2AT0XQOSECM2L","15","1","DOORWAY","1","VATED","1","1901","DOORWAY",NULL,"2017-09-27 14:04:53","96772"
"AIVV4VUFFYHHN","cs_wg_v6_real1","3X1FV8S5JXSK14LE39W9PX32TQUGVG","3","0","BASKET","1","FIPPING","1","3367","basket",NULL,"2017-09-27 14:04:53","96773"
"A36W1S4Z2LSNTC","cs_wg_v6_real1","37ZHEEHM6WNHW28UQWM90PYQ33I373","11","1","DOORWAY","1","SCRIGGED","1","1250","DOORWAY",NULL,"2017-09-27 14:04:53","96774"
"A33FSJRW7E1XVV","cs_wg_v6_real1","36TFCYNS44BQ5PLKNUF9YICOO1FHXJ","3","1","BOOKSHELF","1","THOCKY","1","2298","Bookshelf",NULL,"2017-09-27 14:04:53","96775"
"A2U7BMG19Q83GE","cs_wg_v6_real1","3NLZY2D53PQ8IO3YS1ZFW2928F0LQW","18","1","UMBRELLA","1","SURSED","1","1152","umbrella",NULL,"2017-09-27 14:04:54","96776"
"A0657006AJFWB5ZA91B2","cs_wg_v6_real1","3ZV9H2YQQD8WMH9VY4ULS5X7WUQW3X","5","1","FOOTBALL","1","THOCKY","1","4504","FOOTBALL",NULL,"2017-09-27 14:04:54","96777"
"A19R7FSNDW6WRK","cs_wg_v6_real1","3B4YI393V9X7ZHD14ELL3O2YIXTSS6","3","0","BOOKSHELF","1","DROOFER","1","2652","Bookshelf",NULL,"2017-09-27 14:04:54","96778"
"A1R6ZLM9V362F7","cs_wg_v6_real1","3A0EX8ZRN8P5EH88SYRFVLGZVU3YBP","13","1","TRAFFIC","1","ZORING","1","1639","traffic",NULL,"2017-09-27 14:04:54","96779"
"A2AEY7AGQYBN6X","cs_wg_v6_real1","32UTUBMZ7GXOAND3NN4VOMC5DD2BVU","3","0","WEDDING","1","DUNCHED","1","1164","wedding",NULL,"2017-09-27 14:04:54","96780"
"AKU3ZW3LVDUR9
","cs_wg_v6_real1","3X31TUMD7XNK1KJH7M90V11U0391LI","2","0","TRAFFIC","1","GLUNDLE","1","5207","Traffic",NULL,"2017-09-27 14:04:54","96781"
"A1G452MFAS690B","cs_wg_v6_real1","3VELCLL3GKKY1S9LLB620OWA37N1FD","15","0","COMMUNITY","1","HOTCHACK","1","1557","COMMUNITY",NULL,"2017-09-27 14:04:55","96782"
"A3M4TO1SU4BLN4
","cs_wg_v6_real1","3JNQLM5FT4NRQ51DQQ9E0KBZS9N2L0","5","0","HELICOPTER","1","CHEEDLE","1","2763","helicopter",NULL,"2017-09-27 14:04:55","96783"
"A305KD2HBUUCMQ","cs_wg_v6_real1","340UGXU9DY236MM9NELQTC4T2Y8VUU","6","0","STRUCTURE","1","STEAVES","0","1467",,NULL,"2017-09-27 14:04:55","96784"
"A3MKPYMUM6N5XQ","cs_wg_v6_real1","374TNBHA8BWSINAXBGO5QABYHU4YQ1","7","1","LADDER","1","VATED","1","2446","ladder",NULL,"2017-09-27 14:04:55","96785"
"A2IGPW784OFV3D","cs_wg_v6_real1","3DUZQ9U6SMPNR9U5Y9QQEBM5H1NVSE","8","0","TRAFFIC","1","MICKERED","1","23215","TRAFFIC",NULL,"2017-09-27 14:04:56","96786"
"A3NWXWSXFJG8BI","cs_wg_v6_real1","3PS7W85Z8Z3Q92UHK8QKWYTUSSIT9L","17","0","BASKET","1","MUDLEY","1","1596","basket",NULL,"2017-09-27 14:04:56","96787"
"A1PY5N25LLLULV","cs_wg_v6_real1","3WS1NTTKEYDYU3O3PS22MJD0YFHF0O","3","0","FOOTBALL","1","PLIBBERED","0","1583","football",NULL,"2017-09-27 14:04:56","96788"
"ABQ1B3GQ8AOTH","cs_wg_v6_real1","33LKR6A5KEL8KXRMGVBRHSBBUGV1TL","0","0","FOOTBALL","1","HOTCHACK","0","14924","Football",NULL,"2017-09-27 14:04:56","96789"
"ALDQRWYZ8KQ9A","cs_wg_v6_real1","3S06PH7KSR5138VPU5BCCOTPRU71D2","7","0","UMBRELLA","1","MICKERED","1","4300","umbrella",NULL,"2017-09-27 14:04:56","96790"
"A2L24GZ7YWKGDE","cs_wg_v6_real1","3EA3QWIZ4IWJK3NKO2WX9RSXBI5TI4","9","1","STRUCTURE","1","SURSED","1","3721","STRUCTURE",NULL,"2017-09-27 14:04:56","96791"
"A33QI63NVR8CUO","cs_wg_v6_real1","39U1BHVTDLS4U0513ZPA5LQ8S08T34","9","1","TRAFFIC","1","VATED","1","1808","traffic",NULL,"2017-09-27 14:04:57","96792"
"A1VEARF80HWOBQ","cs_wg_v6_real1","3BQU611VFPL7PNL3M2L35YSIYLG992","1","1","KEYBOARD","1","JADDEARED","1","8697","keyboard",NULL,"2017-09-27 14:04:57","96793"
"A3J0ALXC5LRSSG","cs_wg_v6_real1","3B2X28YI3WG3VXY2MFWNCUW6WKB6BY","9","1","TRAFFIC","1","THOCKY","1","2011","traffic",NULL,"2017-09-27 14:04:57","96794"
"A21KXWKFWGBCZ3","cs_wg_v6_real1","3NVC2EB65Q00BM4VD5C9D2IN72R3Y4","9","1","BASKET","1","CLEEPERS","1","1391","basket",NULL,"2017-09-27 14:04:57","96795"
"A34RGSBBFQ6HI1
","cs_wg_v6_real1","3NQL1CS15R9KNV6EXFIFWXA6YMJYVV","3","0","LADDER","1","DROOFER","1","2961","ladder",NULL,"2017-09-27 14:04:57","96796"
"A3B9OZQTE4US3T","cs_wg_v6_real1","34Z02EIMISE8D864KC7R3NS1POP0TH","13","1","MACHINE","1","ROAKING","1","3721","MACHINE",NULL,"2017-09-27 14:04:57","96797"
"A17LIM50IMQN7Y","cs_wg_v6_real1","3UNH76FOCS61X8C5JNHO91RT7T7YME","10","0","FOOTBALL","1","PLIBBERED","1","3278","football",NULL,"2017-09-27 14:04:57","96798"
"A2295H0UW8SPNU","cs_wg_v6_real1","3AQF3RZ558JT8EAIRHIJVKNRBI36FG","5","0","BOOKSHELF","1","MURRADS","0","2317","bookshelf",NULL,"2017-09-27 14:04:58","96799"
"A2UOSEPGNUITM8","cs_wg_v6_real1","336YQZE83VF3VK2L8LCRY4T0CO45M6","1","1","STRUCTURE","1","JADDEARED","1","4964","STRUCTURE",NULL,"2017-09-27 14:04:58","96800"
"A2GF7PYHT21U3X","cs_wg_v6_real1","3IXQG4FA2TZQDG00KMZZW4N8MLJ9BC","9","0","BOOKSHELF","1","MURRADS","1","2848","bookshelf",NULL,"2017-09-27 14:04:58","96801"
"AU7A3QNJF3O00","cs_wg_v6_real1","3RANCT1ZVFIOX8O3IXUQS0AMZ6SUBN","4","1","UMBRELLA","1","HOTCHACK","1","2395","UMBRELLA",NULL,"2017-09-27 14:04:59","96802"
"A30MYN1DI6EJ8M","cs_wg_v6_real1","36AHBNMV1RDYTE6S6UILQB4ZYFFYDW","15","0","WEDDING","1","CHEEDLE","1","1866","WEDDING",NULL,"2017-09-27 14:04:59","96803"
"A2QT68NJYAJV9P","cs_wg_v6_real1","3ITXP059PWKE0EUBHKC7BNBBMEHJSI","4","1","STOMACH","1","VATED","1","2886","stomach",NULL,"2017-09-27 14:04:59","96804"
"A1BHR5XQ16T7LA","cs_wg_v6_real1","3KV0LJBBH2MS070J5SPU15YW46SRM5","2","1","STOMACH","1","GLUNDLE","1","3336","stomach",NULL,"2017-09-27 14:05:00","96805"
"a2zx7580nvwa61","cs_wg_v6_real1","39O5D9O87TTN8J3QHDUKGBQ44E93CW","4","0","UMBRELLA","1","DUNCHED","1","4312","umbrella",NULL,"2017-09-27 14:05:00","96806"
"A3K8J4N2M38P0S","cs_wg_v6_real1","3B1NLC6UGZX7WKOIHXNAJ5EK72TGPV","3","1","LADDER","1","HOTCHACK","1","3405","LADDER",NULL,"2017-09-27 14:05:00","96807"
"A11GMTJSTNR0YA","cs_wg_v6_real1","3P59JYT76LLF9I9IZZB5MBLGMM8T2T","10","1","BASKET","1","VATED","1","1028","basket",NULL,"2017-09-27 14:05:00","96808"
"A3JDWMS5QJHREI","cs_wg_v6_real1","36NEMU28XFEX83H54MZ0O46DWL7WMD","10","0","COMMUNITY","1","STEAVES","1","2751","community",NULL,"2017-09-27 14:05:00","96809"
"A17F06M11XQX6S","cs_wg_v6_real1","3D3VGR7TA0GRELS9ZAKF56PQ4FBR3P","10","0","HELICOPTER","1","FIPPING","1","1780","helicopter",NULL,"2017-09-27 14:05:00","96810"
"A33XV57T69HVA","cs_wg_v6_real1","30LB5CDZNCB4ZKF3Q4W9PBTIAKAZ0V","7","1","LADDER","1","MUDLEY","1","2461","ladder",NULL,"2017-09-27 14:05:00","96811"
"A8QJ1G6724G51
","cs_wg_v6_real1","3U8YCDAGXPHVLSEC38DWYIHE5HQ0Q3","10","0","STOMACH","1","WUGGED","1","10535","stomach",NULL,"2017-09-27 14:05:00","96812"
"A28WSBB0DSV47X","cs_wg_v6_real1","33IZTU6J812FVYZ0YOR82WJQXCVSXE","15","1","FOOTBALL","1","SURSED","1","4164","FOOTBALL",NULL,"2017-09-27 14:05:01","96813"
"A36CZ0F88ELFWF","cs_wg_v6_real1","3SB5N7Y3O35483KY0C8K44DCZUH0G8","6","0","KEYBOARD","1","BLICKET","1","4375","keyboard",NULL,"2017-09-27 14:05:01","96814"
"A3NK3VPYRHZBW8","cs_wg_v6_real1","3VSOLARPKBALALWN5TKTELPWYT639F","3","0","COMMUNITY","1","MUDLEY","1","3619","community",NULL,"2017-09-27 14:05:01","96815"
"A1CGGZRO2JUQUG","cs_wg_v6_real1","3YWRV122CS05VAQWFLAG1YKLR088U3","9","1","LADDER","1","FROPED","1","2130","LADDER",NULL,"2017-09-27 14:05:01","96816"
"AXKODH8S4ABAB","cs_wg_v6_real1","33C7UALJVLZPMDZYDX0WQWFOG3A18W","14","1","LADDER","1","CHOOTH","1","2110","ladder",NULL,"2017-09-27 14:05:01","96817"
"A29VPSFOR6OO5H","cs_wg_v6_real1","34S9DKFK73Q7FQX5VOWOMGGTCJHYNE","14","0","FOOTBALL","1","ROAKING","1","993","football",NULL,"2017-09-27 14:05:01","96818"
"A1YH4LT7EAYT47","cs_wg_v6_real1","3XCC1ODXDLCJLMYBXLWBIEI1E7PQRR","20","1","UMBRELLA","1","STEAVES","1","2598","UMBRELLA",NULL,"2017-09-27 14:05:01","96819"
"A36W1S4Z2LSNTC","cs_wg_v6_real1","37ZHEEHM6WNHW28UQWM90PYQ33I373","12","1","STOMACH","1","POATS","1","1242","STOMACH",NULL,"2017-09-27 14:05:01","96820"
"A2RN74UCHE5CYI","cs_wg_v6_real1","3OUYGIZWR7ZALGDX3VY7YDR40L40PC","7","0","STRUCTURE","1","FROPED","1","3148","structure",NULL,"2017-09-27 14:05:01","96821"
"A1YIMBPJ9MUKLJ","cs_wg_v6_real1","3BDCF01OGXVHRQUKJBG99OC47OHLYZ","15","1","HELICOPTER","1","BLICKET","1","3883","Helicopter",NULL,"2017-09-27 14:05:02","96822"
"A2NTS2HNDOLRCR","cs_wg_v6_real1","3MD9PLUKKIF7KG7ARAY70NPVIDLZN6","7","1","COMMUNITY","1","SCRIGGED","1","3497","COMMUNITY",NULL,"2017-09-27 14:05:02","96823"
"A1ST4RTOTHAKMY","cs_wg_v6_real1","3OONKJ5DKCKTK346MBIHTUIXHK5BOS","9","1","TRAFFIC","1","STEAVES","1","2339","traffic",NULL,"2017-09-27 14:05:02","96824"
"A1G452MFAS690B","cs_wg_v6_real1","3VELCLL3GKKY1S9LLB620OWA37N1FD","16","1","BOOKSHELF","1","GLUNDLE","1","2156","BOOKSHELF",NULL,"2017-09-27 14:05:02","96825"
"A293AP4EOI44BS","cs_wg_v6_real1","3HHRAGRYX86AWAP9OR4L2ON7TK1O9U","15","1","HELICOPTER","1","WUGGED","1","1288","helicopter",NULL,"2017-09-27 14:05:02","96826"
"A10LGIY5HFYMZM","cs_wg_v6_real1","3IUZPWIU1O82IFH2JAMK9RE97GCWK8","5","0","KEYBOARD","1","ROAKING","1","3369","KEYBOARD",NULL,"2017-09-27 14:05:02","96827"
"A134Z0KUOMR8CW","cs_wg_v6_real1","3Q8GYXHFEP3QMYQUVWIDV8OOIA0C5V","1","1","LADDER","1","BLICKET","1","2284","ladder",NULL,"2017-09-27 14:05:02","96828"
"A305KD2HBUUCMQ","cs_wg_v6_real1","340UGXU9DY236MM9NELQTC4T2Y8VUU","7","1","TRAFFIC","1","JADDEARED","0","1627",,NULL,"2017-09-27 14:05:03","96829"
"A1ZWJF3V4NXN6H","cs_wg_v6_real1","32XVDSJFPZYBWNJYQ2AT0XQOSECM2L","16","1","COMMUNITY","1","NARDLY","1","1604","COMMUNITY",NULL,"2017-09-27 14:05:03","96830"
"AU34T9OMHN4Z4","cs_wg_v6_real1","3QILPRALQ5WS0K6NIKYUN3SRJ4F8NB","5","1","WEDDING","1","TINGER","1","3099","wedding",NULL,"2017-09-27 14:05:03","96831"
"A2HM0OP9UNOR1E","cs_wg_v6_real1","3ZOTGHDK5ICS1PL8XX4CJJSXL8QSO9","3","1","KEYBOARD","1","MEAKEN","1","3490","keyboard",NULL,"2017-09-27 14:05:03","96832"
"A33YX15T1HYFMW","cs_wg_v6_real1","3G5W44VEU7J6LTR245I2NOSLDSMGKT","8","1","STRUCTURE","1","POATS","1","2153","structure",NULL,"2017-09-27 14:05:03","96833"
"A2U7BMG19Q83GE","cs_wg_v6_real1","3NLZY2D53PQ8IO3YS1ZFW2928F0LQW","19","1","KEYBOARD","1","VATED","1","799","keyboard",NULL,"2017-09-27 14:05:03","96834"
"A2MPCT1O95PVL9","cs_wg_v6_real1","30IQTZXKAK7FUPFOPM8OSQD72KD0X0","5","1","WEDDING","1","MURRADS","1","10494","WEDDING",NULL,"2017-09-27 14:05:03","96835"
"A33FSJRW7E1XVV","cs_wg_v6_real1","36TFCYNS44BQ5PLKNUF9YICOO1FHXJ","4","0","HELICOPTER","1","THOCKY","1","1745","Helicopter",NULL,"2017-09-27 14:05:04","96836"
"A1R6ZLM9V362F7","cs_wg_v6_real1","3A0EX8ZRN8P5EH88SYRFVLGZVU3YBP","14","0","FOOTBALL","1","DUNCHED","1","2349","football",NULL,"2017-09-27 14:05:04","96837"
"A19R7FSNDW6WRK","cs_wg_v6_real1","3B4YI393V9X7ZHD14ELL3O2YIXTSS6","4","1","LADDER","1","SCRIGGED","1","2298","Ladder",NULL,"2017-09-27 14:05:04","96838"
"A3D7JEGMSYKCUJ","cs_wg_v6_real1","3J4Q2Z4UTY4OTIFXWF6H5DQI6M4QWU","11","1","TRAFFIC","1","BLICKET","1","1997","traffic",NULL,"2017-09-27 14:05:04","96839"
"A1G17IJC53N6K3","cs_wg_v6_real1","3X0H8UUIT1P06YUAOJVM0D5JOAPSWL","7","0","LADDER","1","CHOOTH","1","1899","LADDER",NULL,"2017-09-27 14:05:04","96840"
"A0657006AJFWB5ZA91B2","cs_wg_v6_real1","3ZV9H2YQQD8WMH9VY4ULS5X7WUQW3X","6","0","TRAFFIC","1","PLIBBERED","1","1508","TRAFFIC",NULL,"2017-09-27 14:05:04","96841"
"ABHKTBF20ZL6G","cs_wg_v6_real1","37QW5D2ZRGNPGXYSQGFGMX2X63N8SN","5","1","FOOTBALL","1","CHAXED","1","1876","football",NULL,"2017-09-27 14:05:04","96842"
"A3NWXWSXFJG8BI","cs_wg_v6_real1","3PS7W85Z8Z3Q92UHK8QKWYTUSSIT9L","18","0","FOOTBALL","1","GLUNDLE","1","1325","football",NULL,"2017-09-27 14:05:04","96843"
"ap4fddwbjw470","cs_wg_v6_real1","3907X2AHF06HHQGBII2LH1KJXJO2PY","3","1","LADDER","1","CHOOTH","1","3354","ladder",NULL,"2017-09-27 14:05:05","96844"
"AIVV4VUFFYHHN","cs_wg_v6_real1","3X1FV8S5JXSK14LE39W9PX32TQUGVG","4","0","UMBRELLA","1","STEAVES","1","2884","umbrella",NULL,"2017-09-27 14:05:05","96845"
"A3M4TO1SU4BLN4
","cs_wg_v6_real1","3JNQLM5FT4NRQ51DQQ9E0KBZS9N2L0","6","0","LADDER","1","ZALEY","1","2196","ladder",NULL,"2017-09-27 14:05:05","96846"
"A2WRKUN3RCJYW8","cs_wg_v6_real1","35GMH2SV3EIRR6GQW2K7U2OIKHHOE4","2","1","COMMUNITY","1","DROOFER","1","3523","community",NULL,"2017-09-27 14:05:05","96847"
"A1PY5N25LLLULV","cs_wg_v6_real1","3WS1NTTKEYDYU3O3PS22MJD0YFHF0O","4","0","COMMUNITY","1","GLUNDLE","1","1283","community",NULL,"2017-09-27 14:05:05","96848"
"A1U4BGCXUPH8Z2","cs_wg_v6_real1","382M9COHEHGM4B0NSOWGT8G7236EU8","0","0","UMBRELLA","1","DROOFER","0","3661","elephant",NULL,"2017-09-27 14:05:05","96849"
"A3095ABT1L25QK","cs_wg_v6_real1","3570Y55XZPK15YGJ8KJTWW7WB7VYG6","7","0","COMMUNITY","1","SURSED","1","3537","community",NULL,"2017-09-27 14:05:05","96850"
"A3B9OZQTE4US3T","cs_wg_v6_real1","34Z02EIMISE8D864KC7R3NS1POP0TH","14","0","MACHINE","1","VATED","1","2566","MACHINE",NULL,"2017-09-27 14:05:05","96851"
"A21KXWKFWGBCZ3","cs_wg_v6_real1","3NVC2EB65Q00BM4VD5C9D2IN72R3Y4","10","0","WEDDING","1","BLICKET","1","1647","wedding",NULL,"2017-09-27 14:05:05","96852"
"A1IMU6GWPN1Y9D","cs_wg_v6_real1","3DIP6YHAPCTO6ETAPLVBXGYI5CE8EM","2","0","HELICOPTER","1","CHEEDLE","1","9287","helicopter",NULL,"2017-09-27 14:05:06","96854"
"A14ZZHR5MXBT3C","cs_wg_v6_real1","3Y9N9SS8LYCXDB94H9PV0H8MPEL3DW","0","1","WEDDING","1","DROOFER","1","7940","wedding",NULL,"2017-09-27 14:05:06","96853"
"AARYGXZXH8WMH
","cs_wg_v6_real1","3LKC68YZ3A4L862HH2EDG8VIRLMWOS","0","1","UMBRELLA","1","FIPPING","1","7261","umbrella ",NULL,"2017-09-27 14:05:06","96855"
"A14EWMT2R4UEU6
","cs_wg_v6_real1","3GFK2QRXX9IZ0WWZCNIE72VRAQHW5N","2","1","COMMUNITY","1","PLIBBERED","1","3220","community",NULL,"2017-09-27 14:05:06","96856"
"A34RGSBBFQ6HI1
","cs_wg_v6_real1","3NQL1CS15R9KNV6EXFIFWXA6YMJYVV","4","1","STRUCTURE","1","MUDLEY","1","2115","structure",NULL,"2017-09-27 14:05:07","96857"
"A3J0ALXC5LRSSG","cs_wg_v6_real1","3B2X28YI3WG3VXY2MFWNCUW6WKB6BY","10","1","HELICOPTER","1","FIPPING","1","1743","helicopter",NULL,"2017-09-27 14:05:07","96858"
"A2L24GZ7YWKGDE","cs_wg_v6_real1","3EA3QWIZ4IWJK3NKO2WX9RSXBI5TI4","10","1","STRUCTURE","1","CHOOTH","1","4164","STRUCTURE",NULL,"2017-09-27 14:05:07","96859"
"A2295H0UW8SPNU","cs_wg_v6_real1","3AQF3RZ558JT8EAIRHIJVKNRBI36FG","6","1","FOOTBALL","1","CHEEDLE","1","2070","football",NULL,"2017-09-27 14:05:07","96860"
"ALDQRWYZ8KQ9A","cs_wg_v6_real1","3S06PH7KSR5138VPU5BCCOTPRU71D2","8","1","STRUCTURE","1","MUDLEY","1","3260","structure",NULL,"2017-09-27 14:05:07","96861"
"A3K8J4N2M38P0S","cs_wg_v6_real1","3B1NLC6UGZX7WKOIHXNAJ5EK72TGPV","4","1","HELICOPTER","1","WUGGED","1","2995","HELICOPTER",NULL,"2017-09-27 14:05:08","96862"
" AFH0174LHAHMQ","cs_wg_v6_real1","3KB8R4ZV1E85SQN8YS59OL9VQYEBG5","1","1","UMBRELLA","1","STEAVES","1","8015","umbrella ",NULL,"2017-09-27 14:05:08","96863"
"A17LIM50IMQN7Y","cs_wg_v6_real1","3UNH76FOCS61X8C5JNHO91RT7T7YME","11","1","HELICOPTER","1","SCREEP","1","2246","helicopter",NULL,"2017-09-27 14:05:08","96864"
"A2EJ06OGI9671Q","cs_wg_v6_real1","3B837J3LDOXVY2DOPPLGDEX2WVASRI","13","0","HELICOPTER","1","ROAKING","1","2668","helicopter",NULL,"2017-09-27 14:05:08","96865"
"A3MKPYMUM6N5XQ","cs_wg_v6_real1","374TNBHA8BWSINAXBGO5QABYHU4YQ1","8","0","STOMACH","1","CHOOTH","1","2875","stomach",NULL,"2017-09-27 14:05:09","96866"
"A29VPSFOR6OO5H","cs_wg_v6_real1","34S9DKFK73Q7FQX5VOWOMGGTCJHYNE","15","1","WEDDING","1","SCRIGGED","1","1157","wedding",NULL,"2017-09-27 14:05:09","96867"
"A33QI63NVR8CUO","cs_wg_v6_real1","39U1BHVTDLS4U0513ZPA5LQ8S08T34","10","0","DOORWAY","1","NARDLY","1","1714","doorway",NULL,"2017-09-27 14:05:09","96868"
"A1G452MFAS690B","cs_wg_v6_real1","3VELCLL3GKKY1S9LLB620OWA37N1FD","17","1","TRAFFIC","1","WUGGED","1","1790","TRAFFIC",NULL,"2017-09-27 14:05:09","96869"
"A1YH4LT7EAYT47","cs_wg_v6_real1","3XCC1ODXDLCJLMYBXLWBIEI1E7PQRR","21","0","STRUCTURE","1","MICKERED","1","2349","STRUCTURE",NULL,"2017-09-27 14:05:09","96870"
"A2A6FH0F7LD9ND","cs_wg_v6_real1","34BBWHLWHACBCKREJ718WBZWFCNWIX","0","0","DOORWAY","1","MURRADS","1","6241","DOORWAY",NULL,"2017-09-27 14:05:09","96871"
"A1ST4RTOTHAKMY","cs_wg_v6_real1","3OONKJ5DKCKTK346MBIHTUIXHK5BOS","10","1","LADDER","1","CLEEPERS","1","873","ladder",NULL,"2017-09-27 14:05:09","96872"
"A11GMTJSTNR0YA","cs_wg_v6_real1","3P59JYT76LLF9I9IZZB5MBLGMM8T2T","11","1","LADDER","1","SURSED","1","1940","ladder",NULL,"2017-09-27 14:05:09","96873"
"A36A510EEJ0NOC","cs_wg_v6_real1","3SUWZRL0MYE120AMW6YDD22RZHO6EY","0","1","MACHINE","1","BLICKET","1","5016","MACHINE",NULL,"2017-09-27 14:05:09","96874"
"AXKODH8S4ABAB","cs_wg_v6_real1","33C7UALJVLZPMDZYDX0WQWFOG3A18W","15","0","FOOTBALL","1","CHOOTH","1","1646","football",NULL,"2017-09-27 14:05:09","96875"
"A28WSBB0DSV47X","cs_wg_v6_real1","33IZTU6J812FVYZ0YOR82WJQXCVSXE","16","1","HELICOPTER","1","STEAVES","1","2494","HELICOPTER",NULL,"2017-09-27 14:05:09","96876"
"A2QT68NJYAJV9P","cs_wg_v6_real1","3ITXP059PWKE0EUBHKC7BNBBMEHJSI","5","0","LADDER","1","BLICKET","1","2304","ladder",NULL,"2017-09-27 14:05:10","96877"
"A1BPBUD67XIJXM","cs_wg_v6_real1","39U1BHVTDLS4U0513ZPA5LQ8S093TF","0","0","BASKET","1","NARDLY","1","4883","basket",NULL,"2017-09-27 14:05:10","96878"
"A305KD2HBUUCMQ","cs_wg_v6_real1","340UGXU9DY236MM9NELQTC4T2Y8VUU","8","1","STOMACH","1","CHOOTH","0","2080",,NULL,"2017-09-27 14:05:10","96879"
"A3JDWMS5QJHREI","cs_wg_v6_real1","36NEMU28XFEX83H54MZ0O46DWL7WMD","11","1","BASKET","1","ZALEY","1","1718","basket",NULL,"2017-09-27 14:05:10","96880"
"AV15YFBYL71S6","cs_wg_v6_real1","3URFVVM165JKF6RJOBATEIHPQ9EZUY","3","1","TRAFFIC","1","CHEEDLE","1","4269","TRAFFIC",NULL,"2017-09-27 14:05:10","96881"
"A33XV57T69HVA","cs_wg_v6_real1","30LB5CDZNCB4ZKF3Q4W9PBTIAKAZ0V","8","1","UMBRELLA","1","GLUNDLE","1","1475","umbrella",NULL,"2017-09-27 14:05:10","96882"
"A17F06M11XQX6S","cs_wg_v6_real1","3D3VGR7TA0GRELS9ZAKF56PQ4FBR3P","11","0","COMMUNITY","1","SCREEP","1","2126","community",NULL,"2017-09-27 14:05:11","96883"
"AU7A3QNJF3O00","cs_wg_v6_real1","3RANCT1ZVFIOX8O3IXUQS0AMZ6SUBN","5","0","UMBRELLA","1","NARDLY","1","2975","UMBRELLA",NULL,"2017-09-27 14:05:11","96884"
"A2NTS2HNDOLRCR","cs_wg_v6_real1","3MD9PLUKKIF7KG7ARAY70NPVIDLZN6","8","1","TRAFFIC","1","JADDEARED","1","4506","TRAFFIC",NULL,"2017-09-27 14:05:11","96885"
"A36W1S4Z2LSNTC","cs_wg_v6_real1","37ZHEEHM6WNHW28UQWM90PYQ33I373","13","0","DOORWAY","1","CHEEDLE","1","1410","DOORWAY",NULL,"2017-09-27 14:05:11","96886"
"A2UO3QJZNC2VOE","cs_wg_v6_real1","3U4J9857OECMZXC75P1FI8W2RVVB72","0","0","COMMUNITY","1","ZORING","1","4961","community
",NULL,"2017-09-27 14:05:11","96887"
"a2zx7580nvwa61","cs_wg_v6_real1","39O5D9O87TTN8J3QHDUKGBQ44E93CW","5","1","STOMACH","1","CHAXED","1","2004","stomach",NULL,"2017-09-27 14:05:11","96888"
"A1YIMBPJ9MUKLJ","cs_wg_v6_real1","3BDCF01OGXVHRQUKJBG99OC47OHLYZ","16","1","HELICOPTER","1","PLIBBERED","1","2053","helicopter",NULL,"2017-09-27 14:05:11","96889"
"A1BHR5XQ16T7LA","cs_wg_v6_real1","3KV0LJBBH2MS070J5SPU15YW46SRM5","3","0","TRAFFIC","1","MICKERED","1","3001","traffic",NULL,"2017-09-27 14:05:11","96890"
"A3NWXWSXFJG8BI","cs_wg_v6_real1","3PS7W85Z8Z3Q92UHK8QKWYTUSSIT9L","19","0","BASKET","1","SCRIGGED","1","1355","basket",NULL,"2017-09-27 14:05:12","96891"
