"subject","version","assignmentId","trial","trial_type","word","value","alt","value2","choice","rt","resp","resp2","resp3","resp4","used_hint","stamp","id"
"A1I4GSXUC5KKKJ","cs_wg_mon_single_v1_pilot4","3OB0CAO74HQF5UBUSQ1BHWJ0CUBHYT","0","0","JULY","6",,"0","6","7051",,,,,"1","2018-11-08 21:43:08","381672"
"A19F75QCU199K8","cs_wg_mon_single_v1_pilot4","3SB5N7Y3O35483KY0C8K44DFLHJG0S","0","0","MAY","2",,"0","2","10868",,,,,"1","2018-11-08 21:43:08","381673"
"A38ICX1LQIPIMN","cs_wg_mon_single_v1_pilot4","3IUZPWIU1O82IFH2JAMK9RECT3FWKD","0","0","JUNE","12",,"0","12","6018",,,,,"1","2018-11-08 21:43:18","381674"
"A1I4GSXUC5KKKJ","cs_wg_mon_single_v1_pilot4","3OB0CAO74HQF5UBUSQ1BHWJ0CUBHYT","1","0","MAY","6",,"0","6","7963",,,,,"1","2018-11-08 21:43:18","381675"
"A19F75QCU199K8","cs_wg_mon_single_v1_pilot4","3SB5N7Y3O35483KY0C8K44DFLHJG0S","1","0","JANUARY","2",,"0","2","9412",,,,,"1","2018-11-08 21:43:20","381676"
"A38ICX1LQIPIMN","cs_wg_mon_single_v1_pilot4","3IUZPWIU1O82IFH2JAMK9RECT3FWKD","1","0","JULY","10",,"0","10","3861",,,,,"1","2018-11-08 21:43:24","381677"
"A1I4GSXUC5KKKJ","cs_wg_mon_single_v1_pilot4","3OB0CAO74HQF5UBUSQ1BHWJ0CUBHYT","2","0","JULY","6",,"0","6","7201",,,,,"1","2018-11-08 21:43:27","381678"
"A19F75QCU199K8","cs_wg_mon_single_v1_pilot4","3SB5N7Y3O35483KY0C8K44DFLHJG0S","2","0","JULY","12",,"0","12","3545",,,,,"1","2018-11-08 21:43:28","381679"
"A38ICX1LQIPIMN","cs_wg_mon_single_v1_pilot4","3IUZPWIU1O82IFH2JAMK9RECT3FWKD","2","0","MARCH","12",,"0","12","2965",,,,,"1","2018-11-08 21:43:29","381680"
"A38ICX1LQIPIMN","cs_wg_mon_single_v1_pilot4","3IUZPWIU1O82IFH2JAMK9RECT3FWKD","3","0","SEPTEMBER","4",,"0","4","2378",,,,,"1","2018-11-08 21:43:33","381681"
"A19F75QCU199K8","cs_wg_mon_single_v1_pilot4","3SB5N7Y3O35483KY0C8K44DFLHJG0S","3","0","JUNE","10",,"0","10","8046",,,,,"1","2018-11-08 21:43:39","381682"
"A38ICX1LQIPIMN","cs_wg_mon_single_v1_pilot4","3IUZPWIU1O82IFH2JAMK9RECT3FWKD","4","0","OCTOBER","6",,"0","6","4002",,,,,"1","2018-11-08 21:43:39","381683"
"A1I4GSXUC5KKKJ","cs_wg_mon_single_v1_pilot4","3OB0CAO74HQF5UBUSQ1BHWJ0CUBHYT","3","0","NOVEMBER","10",,"0","10","11998",,,,,"1","2018-11-08 21:43:41","381684"
"A38ICX1LQIPIMN","cs_wg_mon_single_v1_pilot4","3IUZPWIU1O82IFH2JAMK9RECT3FWKD","5","0","OCTOBER","6",,"0","6","3263",,,,,"0","2018-11-08 21:43:44","381685"
"A19F75QCU199K8","cs_wg_mon_single_v1_pilot4","3SB5N7Y3O35483KY0C8K44DFLHJG0S","4","0","SEPTEMBER","8",,"0","8","8136",,,,,"1","2018-11-08 21:43:49","381686"
"A38ICX1LQIPIMN","cs_wg_mon_single_v1_pilot4","3IUZPWIU1O82IFH2JAMK9RECT3FWKD","6","0","MAY","10",,"0","10","3602",,,,,"1","2018-11-08 21:43:50","381687"
"A1I4GSXUC5KKKJ","cs_wg_mon_single_v1_pilot4","3OB0CAO74HQF5UBUSQ1BHWJ0CUBHYT","4","0","APRIL","2",,"0","2","7163",,,,,"1","2018-11-08 21:43:51","381688"
"A38ICX1LQIPIMN","cs_wg_mon_single_v1_pilot4","3IUZPWIU1O82IFH2JAMK9RECT3FWKD","7","0","AUGUST","8",,"0","8","3430",,,,,"1","2018-11-08 21:43:56","381689"
"A19F75QCU199K8","cs_wg_mon_single_v1_pilot4","3SB5N7Y3O35483KY0C8K44DFLHJG0S","5","0","JULY","12",,"0","12","5431",,,,,"1","2018-11-08 21:43:56","381690"
"A1I4GSXUC5KKKJ","cs_wg_mon_single_v1_pilot4","3OB0CAO74HQF5UBUSQ1BHWJ0CUBHYT","5","0","JUNE","8",,"0","8","7336",,,,,"1","2018-11-08 21:44:00","381691"
"A19F75QCU199K8","cs_wg_mon_single_v1_pilot4","3SB5N7Y3O35483KY0C8K44DFLHJG0S","6","0","JULY","12",,"0","12","2037",,,,,"0","2018-11-08 21:44:00","381692"
"A38ICX1LQIPIMN","cs_wg_mon_single_v1_pilot4","3IUZPWIU1O82IFH2JAMK9RECT3FWKD","8","0","MARCH","12",,"0","12","3342",,,,,"1","2018-11-08 21:44:01","381693"
"A38ICX1LQIPIMN","cs_wg_mon_single_v1_pilot4","3IUZPWIU1O82IFH2JAMK9RECT3FWKD","9","0","DECEMBER","2",,"0","2","2317",,,,,"1","2018-11-08 21:44:05","381694"
"A19F75QCU199K8","cs_wg_mon_single_v1_pilot4","3SB5N7Y3O35483KY0C8K44DFLHJG0S","7","0","JUNE","10",,"0","10","4584",,,,,"0","2018-11-08 21:44:07","381695"
"A38ICX1LQIPIMN","cs_wg_mon_single_v1_pilot4","3IUZPWIU1O82IFH2JAMK9RECT3FWKD","10","0","MARCH","12",,"0","12","2985",,,,,"1","2018-11-08 21:44:10","381696"
"A1I4GSXUC5KKKJ","cs_wg_mon_single_v1_pilot4","3OB0CAO74HQF5UBUSQ1BHWJ0CUBHYT","6","0","JANUARY","12",,"0","12","8393",,,,,"1","2018-11-08 21:44:11","381697"
"A38ICX1LQIPIMN","cs_wg_mon_single_v1_pilot4","3IUZPWIU1O82IFH2JAMK9RECT3FWKD","11","0","DECEMBER","2",,"0","2","2690",,,,,"1","2018-11-08 21:44:15","381698"
"A19F75QCU199K8","cs_wg_mon_single_v1_pilot4","3SB5N7Y3O35483KY0C8K44DFLHJG0S","8","0","AUGUST","10",,"0","10","6073",,,,,"1","2018-11-08 21:44:18","381699"
"A1I4GSXUC5KKKJ","cs_wg_mon_single_v1_pilot4","3OB0CAO74HQF5UBUSQ1BHWJ0CUBHYT","7","0","NOVEMBER","10",,"0","10","5135",,,,,"0","2018-11-08 21:44:18","381700"
"A38ICX1LQIPIMN","cs_wg_mon_single_v1_pilot4","3IUZPWIU1O82IFH2JAMK9RECT3FWKD","12","0","NOVEMBER","4",,"0","4","3597",,,,,"1","2018-11-08 21:44:20","381701"
"A38ICX1LQIPIMN","cs_wg_mon_single_v1_pilot4","3IUZPWIU1O82IFH2JAMK9RECT3FWKD","13","0","AUGUST","8",,"0","8","2257",,,,,"1","2018-11-08 21:44:24","381702"
"A079789010EVSPIBCSWFO","cs_wg_mon_single_v1_pilot4","39OWYR0EPKSVRYKOX0DBEB7NWFYFYT","0","0","DECEMBER","10",,"0","10","9729",,,,,"1","2018-11-08 21:44:25","381703"
" COPIEDAD3V6XGQWRD6E","cs_wg_mon_single_v1_pilot4","3BEFOD78W6ULZ1YLUGTHTCNPYFBM4M","0","0","MARCH","12",,"0","12","14043",,,,,"1","2018-11-08 21:44:27","381704"
"A19F75QCU199K8","cs_wg_mon_single_v1_pilot4","3SB5N7Y3O35483KY0C8K44DFLHJG0S","9","0","OCTOBER","4",,"0","4","5063",,,,,"1","2018-11-08 21:44:28","381705"
"A38ICX1LQIPIMN","cs_wg_mon_single_v1_pilot4","3IUZPWIU1O82IFH2JAMK9RECT3FWKD","14","0","OCTOBER","6",,"0","6","2227",,,,,"1","2018-11-08 21:44:28","381706"
"A1I4GSXUC5KKKJ","cs_wg_mon_single_v1_pilot4","3OB0CAO74HQF5UBUSQ1BHWJ0CUBHYT","8","0","DECEMBER","8",,"0","8","8536",,,,,"1","2018-11-08 21:44:30","381707"
"A38ICX1LQIPIMN","cs_wg_mon_single_v1_pilot4","3IUZPWIU1O82IFH2JAMK9RECT3FWKD","15","0","OCTOBER","6",,"0","6","2567",,,,,"1","2018-11-08 21:44:32","381708"
"A19F75QCU199K8","cs_wg_mon_single_v1_pilot4","3SB5N7Y3O35483KY0C8K44DFLHJG0S","10","0","JANUARY","2",,"0","2","7271",,,,,"1","2018-11-08 21:44:37","381709"
"A38ICX1LQIPIMN","cs_wg_mon_single_v1_pilot4","3IUZPWIU1O82IFH2JAMK9RECT3FWKD","16","0","JUNE","12",,"0","12","2673",,,,,"1","2018-11-08 21:44:39","381710"
"A1I4GSXUC5KKKJ","cs_wg_mon_single_v1_pilot4","3OB0CAO74HQF5UBUSQ1BHWJ0CUBHYT","9","0","OCTOBER","4",,"0","4","7370",,,,,"1","2018-11-08 21:44:39","381711"
" COPIEDAD3V6XGQWRD6E","cs_wg_mon_single_v1_pilot4","3BEFOD78W6ULZ1YLUGTHTCNPYFBM4M","1","0","APRIL","6",,"0","6","10737",,,,,"1","2018-11-08 21:44:40","381712"
"A38ICX1LQIPIMN","cs_wg_mon_single_v1_pilot4","3IUZPWIU1O82IFH2JAMK9RECT3FWKD","17","0","JULY","10",,"0","10","2658",,,,,"1","2018-11-08 21:44:44","381713"
"A38ICX1LQIPIMN","cs_wg_mon_single_v1_pilot4","3IUZPWIU1O82IFH2JAMK9RECT3FWKD","18","0","MARCH","12",,"0","12","2446",,,,,"1","2018-11-08 21:44:48","381714"
"A19F75QCU199K8","cs_wg_mon_single_v1_pilot4","3SB5N7Y3O35483KY0C8K44DFLHJG0S","11","0","APRIL","4",,"0","4","10746",,,,,"1","2018-11-08 21:44:50","381715"
"A1I4GSXUC5KKKJ","cs_wg_mon_single_v1_pilot4","3OB0CAO74HQF5UBUSQ1BHWJ0CUBHYT","10","0","SEPTEMBER","4",,"0","4","10879",,,,,"1","2018-11-08 21:44:52","381716"
"A38ICX1LQIPIMN","cs_wg_mon_single_v1_pilot4","3IUZPWIU1O82IFH2JAMK9RECT3FWKD","19","0","OCTOBER","6",,"0","6","4932",,,,,"1","2018-11-08 21:44:55","381717"
" COPIEDAD3V6XGQWRD6E","cs_wg_mon_single_v1_pilot4","3BEFOD78W6ULZ1YLUGTHTCNPYFBM4M","2","0","AUGUST","12",,"0","12","11251",,,,,"1","2018-11-08 21:44:57","381718"
"A1I4GSXUC5KKKJ","cs_wg_mon_single_v1_pilot4","3OB0CAO74HQF5UBUSQ1BHWJ0CUBHYT","11","0","SEPTEMBER","4",,"0","4","2832",,,,,"0","2018-11-08 21:44:57","381719"
"A079789010EVSPIBCSWFO","cs_wg_mon_single_v1_pilot4","39OWYR0EPKSVRYKOX0DBEB7NWFYFYT","1","0","APRIL","8",,"0","8","12103",,,,,"1","2018-11-08 21:44:57","381720"
"A38ICX1LQIPIMN","cs_wg_mon_single_v1_pilot4","3IUZPWIU1O82IFH2JAMK9RECT3FWKD","20","0","DECEMBER","2",,"0","2","2439",,,,,"0","2018-11-08 21:44:59","381721"
"A19F75QCU199K8","cs_wg_mon_single_v1_pilot4","3SB5N7Y3O35483KY0C8K44DFLHJG0S","12","0","MARCH","6",,"0","4","4476",,,,,"0","2018-11-08 21:45:01","381722"
"A2VB7O0AZ7AO6A","cs_wg_mon_single_v1_pilot4","3FE2ERCCZX9VOX5G5G0IOENPKBMOPU","0","0","APRIL","6",,"0","6","7679",,,,,"1","2018-11-08 21:45:01","381723"
"A1I4GSXUC5KKKJ","cs_wg_mon_single_v1_pilot4","3OB0CAO74HQF5UBUSQ1BHWJ0CUBHYT","12","0","SEPTEMBER","4",,"0","4","3131",,,,,"0","2018-11-08 21:45:03","381724"
"A38ICX1LQIPIMN","cs_wg_mon_single_v1_pilot4","3IUZPWIU1O82IFH2JAMK9RECT3FWKD","21","0","JULY","10",,"0","10","2991",,,,,"1","2018-11-08 21:45:04","381725"
"A079789010EVSPIBCSWFO","cs_wg_mon_single_v1_pilot4","39OWYR0EPKSVRYKOX0DBEB7NWFYFYT","2","0","APRIL","8",,"0","8","7888",,,,,"1","2018-11-08 21:45:07","381726"
"A1I4GSXUC5KKKJ","cs_wg_mon_single_v1_pilot4","3OB0CAO74HQF5UBUSQ1BHWJ0CUBHYT","13","0","DECEMBER","8",,"0","8","4085",,,,,"0","2018-11-08 21:45:08","381727"
"A38ICX1LQIPIMN","cs_wg_mon_single_v1_pilot4","3IUZPWIU1O82IFH2JAMK9RECT3FWKD","22","0","MARCH","12",,"0","4","1876",,,,,"0","2018-11-08 21:45:08","381728"
"A2VB7O0AZ7AO6A","cs_wg_mon_single_v1_pilot4","3FE2ERCCZX9VOX5G5G0IOENPKBMOPU","1","0","SEPTEMBER","2",,"0","2","6022",,,,,"1","2018-11-08 21:45:10","381729"
"A38ICX1LQIPIMN","cs_wg_mon_single_v1_pilot4","3IUZPWIU1O82IFH2JAMK9RECT3FWKD","23","0","NOVEMBER","4",,"0","4","1976",,,,,"1","2018-11-08 21:45:12","381730"
" COPIEDAD3V6XGQWRD6E","cs_wg_mon_single_v1_pilot4","3BEFOD78W6ULZ1YLUGTHTCNPYFBM4M","3","0","SEPTEMBER","6",,"0","6","13468",,,,,"1","2018-11-08 21:45:12","381731"
"A1I4GSXUC5KKKJ","cs_wg_mon_single_v1_pilot4","3OB0CAO74HQF5UBUSQ1BHWJ0CUBHYT","14","0","JULY","6",,"0","6","2670",,,,,"0","2018-11-08 21:45:13","381732"
"A19F75QCU199K8","cs_wg_mon_single_v1_pilot4","3SB5N7Y3O35483KY0C8K44DFLHJG0S","13","0","FEBRUARY","12",,"0","12","10954",,,,,"1","2018-11-08 21:45:14","381733"
"A079789010EVSPIBCSWFO","cs_wg_mon_single_v1_pilot4","39OWYR0EPKSVRYKOX0DBEB7NWFYFYT","3","0","OCTOBER","10",,"0","10","9694",,,,,"1","2018-11-08 21:45:18","381734"
"A38ICX1LQIPIMN","cs_wg_mon_single_v1_pilot4","3IUZPWIU1O82IFH2JAMK9RECT3FWKD","24","0","JANUARY","6",,"0","6","4753",,,,,"1","2018-11-08 21:45:19","381735"
"A368X8R9Y44CYM","cs_wg_mon_single_v1_pilot4","3SUWZRL0MYE120AMW6YDD22UL4QE6A","0","0","OCTOBER","10",,"0","10","26208",,,,,"1","2018-11-08 21:45:20","381736"
"A2VB7O0AZ7AO6A","cs_wg_mon_single_v1_pilot4","3FE2ERCCZX9VOX5G5G0IOENPKBMOPU","2","0","FEBRUARY","10",,"0","10","6954",,,,,"1","2018-11-08 21:45:21","381737"
"A19F75QCU199K8","cs_wg_mon_single_v1_pilot4","3SB5N7Y3O35483KY0C8K44DFLHJG0S","14","0","SEPTEMBER","8",,"0","8","6019",,,,,"0","2018-11-08 21:45:22","381738"
"A38ICX1LQIPIMN","cs_wg_mon_single_v1_pilot4","3IUZPWIU1O82IFH2JAMK9RECT3FWKD","25","0","DECEMBER","2",,"0","2","2418",,,,,"1","2018-11-08 21:45:23","381739"
"A1I4GSXUC5KKKJ","cs_wg_mon_single_v1_pilot4","3OB0CAO74HQF5UBUSQ1BHWJ0CUBHYT","15","0","MARCH","12",,"0","12","9176",,,,,"1","2018-11-08 21:45:24","381740"
" COPIEDAD3V6XGQWRD6E","cs_wg_mon_single_v1_pilot4","3BEFOD78W6ULZ1YLUGTHTCNPYFBM4M","4","0","MAY","2",,"0","2","10569",,,,,"1","2018-11-08 21:45:25","381741"
"A079789010EVSPIBCSWFO","cs_wg_mon_single_v1_pilot4","39OWYR0EPKSVRYKOX0DBEB7NWFYFYT","4","0","AUGUST","2",,"0","2","5161",,,,,"1","2018-11-08 21:45:25","381742"
"A38ICX1LQIPIMN","cs_wg_mon_single_v1_pilot4","3IUZPWIU1O82IFH2JAMK9RECT3FWKD","26","0","NOVEMBER","4",,"0","4","2281",,,,,"1","2018-11-08 21:45:27","381743"
"A19F75QCU199K8","cs_wg_mon_single_v1_pilot4","3SB5N7Y3O35483KY0C8K44DFLHJG0S","15","0","APRIL","4",,"0","4","5527",,,,,"0","2018-11-08 21:45:30","381744"
"A2VB7O0AZ7AO6A","cs_wg_mon_single_v1_pilot4","3FE2ERCCZX9VOX5G5G0IOENPKBMOPU","3","0","NOVEMBER","12",,"0","12","5561",,,,,"1","2018-11-08 21:45:30","381745"
"A38ICX1LQIPIMN","cs_wg_mon_single_v1_pilot4","3IUZPWIU1O82IFH2JAMK9RECT3FWKD","27","0","MAY","10",,"0","10","2072",,,,,"1","2018-11-08 21:45:31","381746"
"A079789010EVSPIBCSWFO","cs_wg_mon_single_v1_pilot4","39OWYR0EPKSVRYKOX0DBEB7NWFYFYT","5","0","SEPTEMBER","6",,"0","6","4130",,,,,"1","2018-11-08 21:45:32","381747"
"A1I4GSXUC5KKKJ","cs_wg_mon_single_v1_pilot4","3OB0CAO74HQF5UBUSQ1BHWJ0CUBHYT","16","0","AUGUST","10",,"0","10","9159",,,,,"1","2018-11-08 21:45:35","381748"
"A38ICX1LQIPIMN","cs_wg_mon_single_v1_pilot4","3IUZPWIU1O82IFH2JAMK9RECT3FWKD","28","0","FEBRUARY","2",,"0","2","2675",,,,,"1","2018-11-08 21:45:35","381749"
"A19F75QCU199K8","cs_wg_mon_single_v1_pilot4","3SB5N7Y3O35483KY0C8K44DFLHJG0S","16","0","FEBRUARY","12",,"0","12","5455",,,,,"0","2018-11-08 21:45:37","381750"
"A079789010EVSPIBCSWFO","cs_wg_mon_single_v1_pilot4","39OWYR0EPKSVRYKOX0DBEB7NWFYFYT","6","0","JUNE","6",,"0","6","4875",,,,,"1","2018-11-08 21:45:38","381751"
"A1I4GSXUC5KKKJ","cs_wg_mon_single_v1_pilot4","3OB0CAO74HQF5UBUSQ1BHWJ0CUBHYT","17","0","DECEMBER","8",,"0","8","2817",,,,,"0","2018-11-08 21:45:40","381752"
"A38ICX1LQIPIMN","cs_wg_mon_single_v1_pilot4","3IUZPWIU1O82IFH2JAMK9RECT3FWKD","29","0","JUNE","12",,"0","12","3478",,,,,"1","2018-11-08 21:45:40","381753"
" COPIEDAD3V6XGQWRD6E","cs_wg_mon_single_v1_pilot4","3BEFOD78W6ULZ1YLUGTHTCNPYFBM4M","5","0","JANUARY","8",,"0","8","13003",,,,,"1","2018-11-08 21:45:41","381754"
"A19F75QCU199K8","cs_wg_mon_single_v1_pilot4","3SB5N7Y3O35483KY0C8K44DFLHJG0S","17","0","JULY","12",,"0","12","3464",,,,,"0","2018-11-08 21:45:43","381755"
"A079789010EVSPIBCSWFO","cs_wg_mon_single_v1_pilot4","39OWYR0EPKSVRYKOX0DBEB7NWFYFYT","7","0","SEPTEMBER","6",,"0","6","2989",,,,,"1","2018-11-08 21:45:44","381756"
"A38ICX1LQIPIMN","cs_wg_mon_single_v1_pilot4","3IUZPWIU1O82IFH2JAMK9RECT3FWKD","30","0","APRIL","8",,"0","8","3938",,,,,"1","2018-11-08 21:45:46","381757"
"A2VB7O0AZ7AO6A","cs_wg_mon_single_v1_pilot4","3FE2ERCCZX9VOX5G5G0IOENPKBMOPU","4","0","FEBRUARY","10",,"0","10","12597",,,,,"0","2018-11-08 21:45:46","381758"
"A368X8R9Y44CYM","cs_wg_mon_single_v1_pilot4","3SUWZRL0MYE120AMW6YDD22UL4QE6A","1","0","JANUARY","8",,"0","11","11507",,,,,"0","2018-11-08 21:45:49","381759"
"A1I4GSXUC5KKKJ","cs_wg_mon_single_v1_pilot4","3OB0CAO74HQF5UBUSQ1BHWJ0CUBHYT","18","0","SEPTEMBER","4",,"0","4","6903",,,,,"0","2018-11-08 21:45:50","381760"
"A38ICX1LQIPIMN","cs_wg_mon_single_v1_pilot4","3IUZPWIU1O82IFH2JAMK9RECT3FWKD","31","0","FEBRUARY","2",,"0","2","2347",,,,,"1","2018-11-08 21:45:51","381761"
" COPIEDAD3V6XGQWRD6E","cs_wg_mon_single_v1_pilot4","3BEFOD78W6ULZ1YLUGTHTCNPYFBM4M","6","0","MARCH","12",,"0","12","7538",,,,,"1","2018-11-08 21:45:51","381762"
"A1I4GSXUC5KKKJ","cs_wg_mon_single_v1_pilot4","3OB0CAO74HQF5UBUSQ1BHWJ0CUBHYT","19","0","SEPTEMBER","4",,"0","4","2128",,,,,"0","2018-11-08 21:45:53","381763"
"A2VB7O0AZ7AO6A","cs_wg_mon_single_v1_pilot4","3FE2ERCCZX9VOX5G5G0IOENPKBMOPU","5","0","JANUARY","6",,"0","6","5476",,,,,"1","2018-11-08 21:45:54","381764"
"A079789010EVSPIBCSWFO","cs_wg_mon_single_v1_pilot4","39OWYR0EPKSVRYKOX0DBEB7NWFYFYT","8","0","MARCH","4",,"0","4","2268",,,,,"1","2018-11-08 21:45:56","381765"
"A38ICX1LQIPIMN","cs_wg_mon_single_v1_pilot4","3IUZPWIU1O82IFH2JAMK9RECT3FWKD","32","0","JANUARY","6",,"0","6","4035",,,,,"1","2018-11-08 21:45:57","381766"
"A19F75QCU199K8","cs_wg_mon_single_v1_pilot4","3SB5N7Y3O35483KY0C8K44DFLHJG0S","18","0","DECEMBER","8",,"0","10","5476",,,,,"0","2018-11-08 21:45:57","381767"
"A1I4GSXUC5KKKJ","cs_wg_mon_single_v1_pilot4","3OB0CAO74HQF5UBUSQ1BHWJ0CUBHYT","20","0","JULY","6",,"0","6","2585",,,,,"0","2018-11-08 21:45:58","381768"
" COPIEDAD3V6XGQWRD6E","cs_wg_mon_single_v1_pilot4","3BEFOD78W6ULZ1YLUGTHTCNPYFBM4M","7","0","SEPTEMBER","6",,"0","6","7323",,,,,"1","2018-11-08 21:46:00","381769"
"A079789010EVSPIBCSWFO","cs_wg_mon_single_v1_pilot4","39OWYR0EPKSVRYKOX0DBEB7NWFYFYT","9","0","OCTOBER","10",,"0","10","3244",,,,,"1","2018-11-08 21:46:01","381770"
"A2VB7O0AZ7AO6A","cs_wg_mon_single_v1_pilot4","3FE2ERCCZX9VOX5G5G0IOENPKBMOPU","6","0","SEPTEMBER","2",,"0","2","4175",,,,,"0","2018-11-08 21:46:02","381771"
"A38ICX1LQIPIMN","cs_wg_mon_single_v1_pilot4","3IUZPWIU1O82IFH2JAMK9RECT3FWKD","33","0","OCTOBER","6",,"0","6","3812",,,,,"1","2018-11-08 21:46:03","381772"
"A1I4GSXUC5KKKJ","cs_wg_mon_single_v1_pilot4","3OB0CAO74HQF5UBUSQ1BHWJ0CUBHYT","21","0","OCTOBER","4",,"0","10","4535",,,,,"0","2018-11-08 21:46:05","381773"
"A079789010EVSPIBCSWFO","cs_wg_mon_single_v1_pilot4","39OWYR0EPKSVRYKOX0DBEB7NWFYFYT","10","0","DECEMBER","10",,"0","10","2552",,,,,"0","2018-11-08 21:46:05","381774"
"A19F75QCU199K8","cs_wg_mon_single_v1_pilot4","3SB5N7Y3O35483KY0C8K44DFLHJG0S","19","0","FEBRUARY","12",,"0","12","5548",,,,,"0","2018-11-08 21:46:05","381775"
"A38ICX1LQIPIMN","cs_wg_mon_single_v1_pilot4","3IUZPWIU1O82IFH2JAMK9RECT3FWKD","34","0","OCTOBER","6",,"0","6","3056",,,,,"1","2018-11-08 21:46:08","381776"
"A368X8R9Y44CYM","cs_wg_mon_single_v1_pilot4","3SUWZRL0MYE120AMW6YDD22UL4QE6A","2","0","NOVEMBER","4",,"0","9","12615",,,,,"0","2018-11-08 21:46:09","381777"
"A2VB7O0AZ7AO6A","cs_wg_mon_single_v1_pilot4","3FE2ERCCZX9VOX5G5G0IOENPKBMOPU","7","0","FEBRUARY","10",,"0","10","4528",,,,,"0","2018-11-08 21:46:09","381778"
" COPIEDAD3V6XGQWRD6E","cs_wg_mon_single_v1_pilot4","3BEFOD78W6ULZ1YLUGTHTCNPYFBM4M","8","0","OCTOBER","4",,"0","4","7139",,,,,"1","2018-11-08 21:46:10","381779"
"A19F75QCU199K8","cs_wg_mon_single_v1_pilot4","3SB5N7Y3O35483KY0C8K44DFLHJG0S","20","0","JANUARY","2",,"0","2","2948",,,,,"0","2018-11-08 21:46:10","381780"
"A079789010EVSPIBCSWFO","cs_wg_mon_single_v1_pilot4","39OWYR0EPKSVRYKOX0DBEB7NWFYFYT","11","0","JANUARY","2",,"0","2","2735",,,,,"1","2018-11-08 21:46:10","381781"
"A1I4GSXUC5KKKJ","cs_wg_mon_single_v1_pilot4","3OB0CAO74HQF5UBUSQ1BHWJ0CUBHYT","22","0","MAY","6",,"0","6","5226",,,,,"0","2018-11-08 21:46:12","381782"
"A38ICX1LQIPIMN","cs_wg_mon_single_v1_pilot4","3IUZPWIU1O82IFH2JAMK9RECT3FWKD","35","0","MAY","10",,"0","10","2634",,,,,"1","2018-11-08 21:46:12","381783"
"A079789010EVSPIBCSWFO","cs_wg_mon_single_v1_pilot4","39OWYR0EPKSVRYKOX0DBEB7NWFYFYT","12","0","JANUARY","2",,"0","2","2695",,,,,"0","2018-11-08 21:46:15","381784"
"A38ICX1LQIPIMN","cs_wg_mon_single_v1_pilot4","3IUZPWIU1O82IFH2JAMK9RECT3FWKD","36","0","MAY","10",,"0","10","2255",,,,,"1","2018-11-08 21:46:16","381785"
" COPIEDAD3V6XGQWRD6E","cs_wg_mon_single_v1_pilot4","3BEFOD78W6ULZ1YLUGTHTCNPYFBM4M","9","0","OCTOBER","4",,"0","4","4346",,,,,"1","2018-11-08 21:46:17","381786"
"A19F75QCU199K8","cs_wg_mon_single_v1_pilot4","3SB5N7Y3O35483KY0C8K44DFLHJG0S","21","0","JUNE","10",,"0","10","5378",,,,,"0","2018-11-08 21:46:17","381787"
"A2VB7O0AZ7AO6A","cs_wg_mon_single_v1_pilot4","3FE2ERCCZX9VOX5G5G0IOENPKBMOPU","8","0","JANUARY","6",,"0","6","4142",,,,,"0","2018-11-08 21:46:17","381788"
"A38ICX1LQIPIMN","cs_wg_mon_single_v1_pilot4","3IUZPWIU1O82IFH2JAMK9RECT3FWKD","37","0","MAY","10",,"0","10","1957",,,,,"0","2018-11-08 21:46:20","381789"
"A079789010EVSPIBCSWFO","cs_wg_mon_single_v1_pilot4","39OWYR0EPKSVRYKOX0DBEB7NWFYFYT","13","0","FEBRUARY","8",,"0","8","2589",,,,,"1","2018-11-08 21:46:21","381790"
"A19F75QCU199K8","cs_wg_mon_single_v1_pilot4","3SB5N7Y3O35483KY0C8K44DFLHJG0S","22","0","AUGUST","10",,"0","10","3950",,,,,"0","2018-11-08 21:46:23","381791"
"A2VB7O0AZ7AO6A","cs_wg_mon_single_v1_pilot4","3FE2ERCCZX9VOX5G5G0IOENPKBMOPU","9","0","APRIL","6",,"0","6","3384",,,,,"0","2018-11-08 21:46:24","381792"
"A1I4GSXUC5KKKJ","cs_wg_mon_single_v1_pilot4","3OB0CAO74HQF5UBUSQ1BHWJ0CUBHYT","23","0","FEBRUARY","2",,"0","2","10470",,,,,"1","2018-11-08 21:46:24","381793"
" COPIEDAD3V6XGQWRD6E","cs_wg_mon_single_v1_pilot4","3BEFOD78W6ULZ1YLUGTHTCNPYFBM4M","10","0","JULY","2",,"0","2","5523",,,,,"1","2018-11-08 21:46:24","381794"
"A38ICX1LQIPIMN","cs_wg_mon_single_v1_pilot4","3IUZPWIU1O82IFH2JAMK9RECT3FWKD","38","0","APRIL","8",,"0","8","2963",,,,,"1","2018-11-08 21:46:25","381795"
"A079789010EVSPIBCSWFO","cs_wg_mon_single_v1_pilot4","39OWYR0EPKSVRYKOX0DBEB7NWFYFYT","14","0","SEPTEMBER","6",,"0","6","1985",,,,,"0","2018-11-08 21:46:25","381796"
"A368X8R9Y44CYM","cs_wg_mon_single_v1_pilot4","3SUWZRL0MYE120AMW6YDD22UL4QE6A","3","0","JUNE","2",,"0","2","8985",,,,,"1","2018-11-08 21:46:25","381797"
"A38ICX1LQIPIMN","cs_wg_mon_single_v1_pilot4","3IUZPWIU1O82IFH2JAMK9RECT3FWKD","39","0","SEPTEMBER","4",,"0","4","2797",,,,,"1","2018-11-08 21:46:29","381798"
"A19F75QCU199K8","cs_wg_mon_single_v1_pilot4","3SB5N7Y3O35483KY0C8K44DFLHJG0S","23","0","AUGUST","10",,"0","10","2855",,,,,"0","2018-11-08 21:46:29","381799"
"A2VB7O0AZ7AO6A","cs_wg_mon_single_v1_pilot4","3FE2ERCCZX9VOX5G5G0IOENPKBMOPU","10","0","AUGUST","2",,"0","2","4447",,,,,"1","2018-11-08 21:46:31","381800"
"A079789010EVSPIBCSWFO","cs_wg_mon_single_v1_pilot4","39OWYR0EPKSVRYKOX0DBEB7NWFYFYT","15","0","OCTOBER","10",,"0","10","4402",,,,,"0","2018-11-08 21:46:31","381801"
"A1I4GSXUC5KKKJ","cs_wg_mon_single_v1_pilot4","3OB0CAO74HQF5UBUSQ1BHWJ0CUBHYT","24","0","AUGUST","10",,"0","10","5847",,,,,"0","2018-11-08 21:46:32","381802"
" COPIEDAD3V6XGQWRD6E","cs_wg_mon_single_v1_pilot4","3BEFOD78W6ULZ1YLUGTHTCNPYFBM4M","11","0","DECEMBER","10",,"0","10","5476",,,,,"1","2018-11-08 21:46:34","381803"
"A38ICX1LQIPIMN","cs_wg_mon_single_v1_pilot4","3IUZPWIU1O82IFH2JAMK9RECT3FWKD","40","0","JUNE","12",,"0","4","3667",,,,,"0","2018-11-08 21:46:35","381804"
"A19F75QCU199K8","cs_wg_mon_single_v1_pilot4","3SB5N7Y3O35483KY0C8K44DFLHJG0S","24","0","JULY","12",,"0","12","3611",,,,,"0","2018-11-08 21:46:35","381805"
"A2VB7O0AZ7AO6A","cs_wg_mon_single_v1_pilot4","3FE2ERCCZX9VOX5G5G0IOENPKBMOPU","11","0","NOVEMBER","12",,"0","12","3150",,,,,"0","2018-11-08 21:46:37","381806"
"A079789010EVSPIBCSWFO","cs_wg_mon_single_v1_pilot4","39OWYR0EPKSVRYKOX0DBEB7NWFYFYT","16","0","MARCH","4",,"0","4","2512",,,,,"1","2018-11-08 21:46:37","381807"
"A38ICX1LQIPIMN","cs_wg_mon_single_v1_pilot4","3IUZPWIU1O82IFH2JAMK9RECT3FWKD","41","0","JULY","10",,"0","6","2589",,,,,"0","2018-11-08 21:46:39","381808"
"A368X8R9Y44CYM","cs_wg_mon_single_v1_pilot4","3SUWZRL0MYE120AMW6YDD22UL4QE6A","4","0","MAY","10",,"0","4","7697",,,,,"0","2018-11-08 21:46:39","381809"
"A1I4GSXUC5KKKJ","cs_wg_mon_single_v1_pilot4","3OB0CAO74HQF5UBUSQ1BHWJ0CUBHYT","25","0","NOVEMBER","10",,"0","10","4859",,,,,"0","2018-11-08 21:46:39","381810"
" COPIEDAD3V6XGQWRD6E","cs_wg_mon_single_v1_pilot4","3BEFOD78W6ULZ1YLUGTHTCNPYFBM4M","12","0","APRIL","6",,"0","6","4684",,,,,"1","2018-11-08 21:46:44","381811"
"A38ICX1LQIPIMN","cs_wg_mon_single_v1_pilot4","3IUZPWIU1O82IFH2JAMK9RECT3FWKD","42","0","MAY","10",,"0","6","3054",,,,,"0","2018-11-08 21:46:44","381812"
"A1I4GSXUC5KKKJ","cs_wg_mon_single_v1_pilot4","3OB0CAO74HQF5UBUSQ1BHWJ0CUBHYT","26","0","MAY","6",,"0","6","2757",,,,,"1","2018-11-08 21:46:44","381813"
"A079789010EVSPIBCSWFO","cs_wg_mon_single_v1_pilot4","39OWYR0EPKSVRYKOX0DBEB7NWFYFYT","17","0","NOVEMBER","4",,"0","4","5229",,,,,"1","2018-11-08 21:46:45","381814"
"A2VB7O0AZ7AO6A","cs_wg_mon_single_v1_pilot4","3FE2ERCCZX9VOX5G5G0IOENPKBMOPU","12","0","JULY","8",,"0","8","5355",,,,,"1","2018-11-08 21:46:46","381815"
"A19F75QCU199K8","cs_wg_mon_single_v1_pilot4","3SB5N7Y3O35483KY0C8K44DFLHJG0S","25","0","NOVEMBER","6",,"0","2","4768",,,,,"0","2018-11-08 21:46:48","381816"
"A1I4GSXUC5KKKJ","cs_wg_mon_single_v1_pilot4","3OB0CAO74HQF5UBUSQ1BHWJ0CUBHYT","27","0","MARCH","12",,"0","12","2699",,,,,"1","2018-11-08 21:46:49","381817"
"A38ICX1LQIPIMN","cs_wg_mon_single_v1_pilot4","3IUZPWIU1O82IFH2JAMK9RECT3FWKD","43","0","JANUARY","6",,"0","10","3947",,,,,"0","2018-11-08 21:46:50","381818"
"A079789010EVSPIBCSWFO","cs_wg_mon_single_v1_pilot4","39OWYR0EPKSVRYKOX0DBEB7NWFYFYT","18","0","JUNE","6",,"0","6","2568",,,,,"1","2018-11-08 21:46:51","381819"
"A2VB7O0AZ7AO6A","cs_wg_mon_single_v1_pilot4","3FE2ERCCZX9VOX5G5G0IOENPKBMOPU","13","0","JULY","8",,"0","8","3648",,,,,"0","2018-11-08 21:46:52","381820"
"A368X8R9Y44CYM","cs_wg_mon_single_v1_pilot4","3SUWZRL0MYE120AMW6YDD22UL4QE6A","5","0","FEBRUARY","4",,"0","5","6257",,,,,"0","2018-11-08 21:46:53","381821"
"A19F75QCU199K8","cs_wg_mon_single_v1_pilot4","3SB5N7Y3O35483KY0C8K44DFLHJG0S","26","0","JULY","12",,"0","12","2863",,,,,"0","2018-11-08 21:46:53","381822"
" COPIEDAD3V6XGQWRD6E","cs_wg_mon_single_v1_pilot4","3BEFOD78W6ULZ1YLUGTHTCNPYFBM4M","13","0","MAY","2",,"0","2","7482",,,,,"1","2018-11-08 21:46:54","381823"
"A38ICX1LQIPIMN","cs_wg_mon_single_v1_pilot4","3IUZPWIU1O82IFH2JAMK9RECT3FWKD","44","0","FEBRUARY","2",,"0","6","3540",,,,,"0","2018-11-08 21:46:55","381824"
"A1I4GSXUC5KKKJ","cs_wg_mon_single_v1_pilot4","3OB0CAO74HQF5UBUSQ1BHWJ0CUBHYT","28","0","JUNE","8",,"0","8","5321",,,,,"1","2018-11-08 21:46:56","381825"
"A079789010EVSPIBCSWFO","cs_wg_mon_single_v1_pilot4","39OWYR0EPKSVRYKOX0DBEB7NWFYFYT","19","0","APRIL","8",,"0","8","4298",,,,,"1","2018-11-08 21:46:56","381826"
"A38ICX1LQIPIMN","cs_wg_mon_single_v1_pilot4","3IUZPWIU1O82IFH2JAMK9RECT3FWKD","45","0","JUNE","12",,"0","6","2142",,,,,"0","2018-11-08 21:46:59","381827"
"A19F75QCU199K8","cs_wg_mon_single_v1_pilot4","3SB5N7Y3O35483KY0C8K44DFLHJG0S","27","0","APRIL","4",,"0","4","5579",,,,,"0","2018-11-08 21:47:01","381828"
"A079789010EVSPIBCSWFO","cs_wg_mon_single_v1_pilot4","39OWYR0EPKSVRYKOX0DBEB7NWFYFYT","20","0","MARCH","4",,"0","4","2510",,,,,"1","2018-11-08 21:47:01","381829"
"A1I4GSXUC5KKKJ","cs_wg_mon_single_v1_pilot4","3OB0CAO74HQF5UBUSQ1BHWJ0CUBHYT","29","0","MARCH","12",,"0","12","2712",,,,,"1","2018-11-08 21:47:01","381830"
"A2VB7O0AZ7AO6A","cs_wg_mon_single_v1_pilot4","3FE2ERCCZX9VOX5G5G0IOENPKBMOPU","14","0","MAY","4",,"0","4","5969",,,,,"1","2018-11-08 21:47:01","381831"
"A38ICX1LQIPIMN","cs_wg_mon_single_v1_pilot4","3IUZPWIU1O82IFH2JAMK9RECT3FWKD","46","0","JANUARY","6",,"0","8","2548",,,,,"0","2018-11-08 21:47:04","381832"
"A19F75QCU199K8","cs_wg_mon_single_v1_pilot4","3SB5N7Y3O35483KY0C8K44DFLHJG0S","28","0","APRIL","4",,"0","4","2504",,,,,"0","2018-11-08 21:47:05","381833"
"A079789010EVSPIBCSWFO","cs_wg_mon_single_v1_pilot4","39OWYR0EPKSVRYKOX0DBEB7NWFYFYT","21","0","NOVEMBER","4",,"0","4","3870",,,,,"1","2018-11-08 21:47:06","381834"
"A1I4GSXUC5KKKJ","cs_wg_mon_single_v1_pilot4","3OB0CAO74HQF5UBUSQ1BHWJ0CUBHYT","30","0","AUGUST","10",,"0","10","3356",,,,,"1","2018-11-08 21:47:06","381835"
" COPIEDAD3V6XGQWRD6E","cs_wg_mon_single_v1_pilot4","3BEFOD78W6ULZ1YLUGTHTCNPYFBM4M","14","0","OCTOBER","4",,"0","4","10605",,,,,"1","2018-11-08 21:47:07","381836"
"A38ICX1LQIPIMN","cs_wg_mon_single_v1_pilot4","3IUZPWIU1O82IFH2JAMK9RECT3FWKD","47","0","APRIL","8",,"0","6","1756",,,,,"0","2018-11-08 21:47:07","381837"
"A079789010EVSPIBCSWFO","cs_wg_mon_single_v1_pilot4","39OWYR0EPKSVRYKOX0DBEB7NWFYFYT","22","0","JUNE","6",,"0","6","2147",,,,,"1","2018-11-08 21:47:10","381838"
"A38ICX1LQIPIMN","cs_wg_mon_single_v1_pilot4","3IUZPWIU1O82IFH2JAMK9RECT3FWKD","48","0","DECEMBER","2",,"0","2","1760",,,,,"0","2018-11-08 21:47:11","381839"
"A2VB7O0AZ7AO6A","cs_wg_mon_single_v1_pilot4","3FE2ERCCZX9VOX5G5G0IOENPKBMOPU","15","0","OCTOBER","12",,"0","12","6581",,,,,"1","2018-11-08 21:47:11","381840"
"A1I4GSXUC5KKKJ","cs_wg_mon_single_v1_pilot4","3OB0CAO74HQF5UBUSQ1BHWJ0CUBHYT","31","0","JANUARY","12",,"0","12","2554",,,,,"1","2018-11-08 21:47:11","381841"
"A19F75QCU199K8","cs_wg_mon_single_v1_pilot4","3SB5N7Y3O35483KY0C8K44DFLHJG0S","29","0","JULY","12",,"0","12","4119",,,,,"0","2018-11-08 21:47:11","381842"
"A368X8R9Y44CYM","cs_wg_mon_single_v1_pilot4","3SUWZRL0MYE120AMW6YDD22UL4QE6A","6","0","SEPTEMBER","2",,"0","2","15244",,,,,"1","2018-11-08 21:47:12","381843"
" COPIEDAD3V6XGQWRD6E","cs_wg_mon_single_v1_pilot4","3BEFOD78W6ULZ1YLUGTHTCNPYFBM4M","15","0","SEPTEMBER","6",,"0","6","3770",,,,,"1","2018-11-08 21:47:13","381844"
"A38ICX1LQIPIMN","cs_wg_mon_single_v1_pilot4","3IUZPWIU1O82IFH2JAMK9RECT3FWKD","49","0","JULY","10",,"0","8","1936",,,,,"0","2018-11-08 21:47:14","381845"
"A079789010EVSPIBCSWFO","cs_wg_mon_single_v1_pilot4","39OWYR0EPKSVRYKOX0DBEB7NWFYFYT","23","0","NOVEMBER","4",,"0","4","4358",,,,,"1","2018-11-08 21:47:16","381846"
"A19F75QCU199K8","cs_wg_mon_single_v1_pilot4","3SB5N7Y3O35483KY0C8K44DFLHJG0S","30","0","FEBRUARY","12",,"0","12","3351",,,,,"0","2018-11-08 21:47:17","381847"
"A38ICX1LQIPIMN","cs_wg_mon_single_v1_pilot4","3IUZPWIU1O82IFH2JAMK9RECT3FWKD","50","0","SEPTEMBER","4",,"0","4","3027",,,,,"0","2018-11-08 21:47:19","381848"
"A079789010EVSPIBCSWFO","cs_wg_mon_single_v1_pilot4","39OWYR0EPKSVRYKOX0DBEB7NWFYFYT","24","0","SEPTEMBER","6",,"0","6","2465",,,,,"1","2018-11-08 21:47:20","381849"
"A2VB7O0AZ7AO6A","cs_wg_mon_single_v1_pilot4","3FE2ERCCZX9VOX5G5G0IOENPKBMOPU","16","0","DECEMBER","10",,"0","10","6042",,,,,"1","2018-11-08 21:47:21","381850"
" COPIEDAD3V6XGQWRD6E","cs_wg_mon_single_v1_pilot4","3BEFOD78W6ULZ1YLUGTHTCNPYFBM4M","16","0","FEBRUARY","4",,"0","4","5651",,,,,"1","2018-11-08 21:47:21","381851"
"A38ICX1LQIPIMN","cs_wg_mon_single_v1_pilot4","3IUZPWIU1O82IFH2JAMK9RECT3FWKD","51","0","NOVEMBER","4",,"0","2","1922",,,,,"0","2018-11-08 21:47:23","381852"
"A1I4GSXUC5KKKJ","cs_wg_mon_single_v1_pilot4","3OB0CAO74HQF5UBUSQ1BHWJ0CUBHYT","32","0","OCTOBER","4",,"0","4","10455",,,,,"1","2018-11-08 21:47:23","381853"
"A19F75QCU199K8","cs_wg_mon_single_v1_pilot4","3SB5N7Y3O35483KY0C8K44DFLHJG0S","31","0","MARCH","6",,"0","4","4660",,,,,"0","2018-11-08 21:47:24","381854"
"A079789010EVSPIBCSWFO","cs_wg_mon_single_v1_pilot4","39OWYR0EPKSVRYKOX0DBEB7NWFYFYT","25","0","FEBRUARY","8",,"0","8","3091",,,,,"1","2018-11-08 21:47:25","381855"
"A38ICX1LQIPIMN","cs_wg_mon_single_v1_pilot4","3IUZPWIU1O82IFH2JAMK9RECT3FWKD","52","0","JANUARY","6",,"0","6","2404",,,,,"0","2018-11-08 21:47:27","381856"
"A1I4GSXUC5KKKJ","cs_wg_mon_single_v1_pilot4","3OB0CAO74HQF5UBUSQ1BHWJ0CUBHYT","33","0","AUGUST","10",,"0","10","2541",,,,,"1","2018-11-08 21:47:28","381857"
"A2VB7O0AZ7AO6A","cs_wg_mon_single_v1_pilot4","3FE2ERCCZX9VOX5G5G0IOENPKBMOPU","17","0","FEBRUARY","10",,"0","10","4247",,,,,"0","2018-11-08 21:47:28","381858"
"A368X8R9Y44CYM","cs_wg_mon_single_v1_pilot4","3SUWZRL0MYE120AMW6YDD22UL4QE6A","7","0","FEBRUARY","4",,"0","4","13242",,,,,"0","2018-11-08 21:47:30","381859"
"A079789010EVSPIBCSWFO","cs_wg_mon_single_v1_pilot4","39OWYR0EPKSVRYKOX0DBEB7NWFYFYT","26","0","JANUARY","2",,"0","2","3242",,,,,"1","2018-11-08 21:47:30","381860"
"A19F75QCU199K8","cs_wg_mon_single_v1_pilot4","3SB5N7Y3O35483KY0C8K44DFLHJG0S","32","0","FEBRUARY","12",,"0","12","3873",,,,,"0","2018-11-08 21:47:30","381861"
" COPIEDAD3V6XGQWRD6E","cs_wg_mon_single_v1_pilot4","3BEFOD78W6ULZ1YLUGTHTCNPYFBM4M","17","0","JULY","2",,"0","2","7404",,,,,"1","2018-11-08 21:47:31","381862"
"A38ICX1LQIPIMN","cs_wg_mon_single_v1_pilot4","3IUZPWIU1O82IFH2JAMK9RECT3FWKD","53","0","NOVEMBER","4",,"0","2","2940",,,,,"0","2018-11-08 21:47:31","381863"
"A1I4GSXUC5KKKJ","cs_wg_mon_single_v1_pilot4","3OB0CAO74HQF5UBUSQ1BHWJ0CUBHYT","34","0","APRIL","2",,"0","2","2075",,,,,"1","2018-11-08 21:47:32","381864"
"A38ICX1LQIPIMN","cs_wg_mon_single_v1_pilot4","3IUZPWIU1O82IFH2JAMK9RECT3FWKD","54","0","NOVEMBER","4",,"0","4","1835",,,,,"0","2018-11-08 21:47:35","381865"
"A079789010EVSPIBCSWFO","cs_wg_mon_single_v1_pilot4","39OWYR0EPKSVRYKOX0DBEB7NWFYFYT","27","0","NOVEMBER","4",,"0","4","2781",,,,,"1","2018-11-08 21:47:35","381866"
"A19F75QCU199K8","cs_wg_mon_single_v1_pilot4","3SB5N7Y3O35483KY0C8K44DFLHJG0S","33","0","MAY","2",,"0","2","3300",,,,,"0","2018-11-08 21:47:35","381867"
"A1I4GSXUC5KKKJ","cs_wg_mon_single_v1_pilot4","3OB0CAO74HQF5UBUSQ1BHWJ0CUBHYT","35","0","DECEMBER","8",,"0","8","3167",,,,,"1","2018-11-08 21:47:37","381868"
" COPIEDAD3V6XGQWRD6E","cs_wg_mon_single_v1_pilot4","3BEFOD78W6ULZ1YLUGTHTCNPYFBM4M","18","0","JANUARY","8",,"0","8","4379",,,,,"1","2018-11-08 21:47:38","381869"
"A38ICX1LQIPIMN","cs_wg_mon_single_v1_pilot4","3IUZPWIU1O82IFH2JAMK9RECT3FWKD","55","0","MAY","10",,"0","8","1950",,,,,"0","2018-11-08 21:47:38","381870"
"A079789010EVSPIBCSWFO","cs_wg_mon_single_v1_pilot4","39OWYR0EPKSVRYKOX0DBEB7NWFYFYT","28","0","FEBRUARY","8",,"0","8","3073",,,,,"1","2018-11-08 21:47:40","381871"
"A2VB7O0AZ7AO6A","cs_wg_mon_single_v1_pilot4","3FE2ERCCZX9VOX5G5G0IOENPKBMOPU","18","0","MAY","4",,"0","4","8598",,,,,"1","2018-11-08 21:47:40","381872"
"A368X8R9Y44CYM","cs_wg_mon_single_v1_pilot4","3SUWZRL0MYE120AMW6YDD22UL4QE6A","8","0","JUNE","2",,"0","2","7796",,,,,"0","2018-11-08 21:47:40","381873"
"A1I4GSXUC5KKKJ","cs_wg_mon_single_v1_pilot4","3OB0CAO74HQF5UBUSQ1BHWJ0CUBHYT","36","0","JANUARY","12",,"0","12","2570",,,,,"1","2018-11-08 21:47:41","381874"
"A38ICX1LQIPIMN","cs_wg_mon_single_v1_pilot4","3IUZPWIU1O82IFH2JAMK9RECT3FWKD","56","0","AUGUST","8",,"0","8","1984",,,,,"0","2018-11-08 21:47:42","381875"
"A079789010EVSPIBCSWFO","cs_wg_mon_single_v1_pilot4","39OWYR0EPKSVRYKOX0DBEB7NWFYFYT","29","0","SEPTEMBER","6",,"0","6","2112",,,,,"1","2018-11-08 21:47:43","381876"
"A19F75QCU199K8","cs_wg_mon_single_v1_pilot4","3SB5N7Y3O35483KY0C8K44DFLHJG0S","34","0","JUNE","10",,"0","12","6350",,,,,"0","2018-11-08 21:47:43","381877"
"A1I4GSXUC5KKKJ","cs_wg_mon_single_v1_pilot4","3OB0CAO74HQF5UBUSQ1BHWJ0CUBHYT","37","0","JUNE","8",,"0","8","2872",,,,,"1","2018-11-08 21:47:46","381878"
"A38ICX1LQIPIMN","cs_wg_mon_single_v1_pilot4","3IUZPWIU1O82IFH2JAMK9RECT3FWKD","57","0","APRIL","8",,"0","6","1779",,,,,"0","2018-11-08 21:47:46","381879"
"A19F75QCU199K8","cs_wg_mon_single_v1_pilot4","3SB5N7Y3O35483KY0C8K44DFLHJG0S","35","0","OCTOBER","4",,"0","4","2786",,,,,"0","2018-11-08 21:47:48","381880"
"A38ICX1LQIPIMN","cs_wg_mon_single_v1_pilot4","3IUZPWIU1O82IFH2JAMK9RECT3FWKD","58","0","FEBRUARY","2",,"0","6","2282",,,,,"0","2018-11-08 21:47:50","381881"
" COPIEDAD3V6XGQWRD6E","cs_wg_mon_single_v1_pilot4","3BEFOD78W6ULZ1YLUGTHTCNPYFBM4M","19","0","MARCH","12",,"0","12","9754",,,,,"1","2018-11-08 21:47:50","381882"
"A2VB7O0AZ7AO6A","cs_wg_mon_single_v1_pilot4","3FE2ERCCZX9VOX5G5G0IOENPKBMOPU","19","0","DECEMBER","10",,"0","10","4115",,,,,"0","2018-11-08 21:47:50","381883"
"A1I4GSXUC5KKKJ","cs_wg_mon_single_v1_pilot4","3OB0CAO74HQF5UBUSQ1BHWJ0CUBHYT","38","0","APRIL","2",,"0","2","2702",,,,,"1","2018-11-08 21:47:51","381884"
"A38ICX1LQIPIMN","cs_wg_mon_single_v1_pilot4","3IUZPWIU1O82IFH2JAMK9RECT3FWKD","59","0","AUGUST","8",,"0","8","1904",,,,,"0","2018-11-08 21:47:54","381885"
"A19F75QCU199K8","cs_wg_mon_single_v1_pilot4","3SB5N7Y3O35483KY0C8K44DFLHJG0S","36","0","FEBRUARY","12",,"0","12","4826",,,,,"0","2018-11-08 21:47:54","381886"
"A1I4GSXUC5KKKJ","cs_wg_mon_single_v1_pilot4","3OB0CAO74HQF5UBUSQ1BHWJ0CUBHYT","39","0","APRIL","2",,"0","2","2427",,,,,"1","2018-11-08 21:47:55","381887"
"A079789010EVSPIBCSWFO","cs_wg_mon_single_v1_pilot4","39OWYR0EPKSVRYKOX0DBEB7NWFYFYT","30","0","MAY","12",,"0","12","6998",,,,,"1","2018-11-08 21:47:57","381888"
" COPIEDAD3V6XGQWRD6E","cs_wg_mon_single_v1_pilot4","3BEFOD78W6ULZ1YLUGTHTCNPYFBM4M","20","0","APRIL","6",,"0","6","4946",,,,,"1","2018-11-08 21:47:58","381889"
"A38ICX1LQIPIMN","cs_wg_mon_single_v1_pilot4","3IUZPWIU1O82IFH2JAMK9RECT3FWKD","60","0","MAY","10",,"0","6","2379",,,,,"0","2018-11-08 21:47:58","381890"
"A368X8R9Y44CYM","cs_wg_mon_single_v1_pilot4","3SUWZRL0MYE120AMW6YDD22UL4QE6A","9","0","MAY","10",,"0","3","11339",,,,,"0","2018-11-08 21:47:58","381891"
"A2VB7O0AZ7AO6A","cs_wg_mon_single_v1_pilot4","3FE2ERCCZX9VOX5G5G0IOENPKBMOPU","20","0","APRIL","6",,"0","6","7098",,,,,"0","2018-11-08 21:48:00","381892"
"A1I4GSXUC5KKKJ","cs_wg_mon_single_v1_pilot4","3OB0CAO74HQF5UBUSQ1BHWJ0CUBHYT","40","0","FEBRUARY","2",,"0","2","4456",,,,,"0","2018-11-08 21:48:02","381893"
"A079789010EVSPIBCSWFO","cs_wg_mon_single_v1_pilot4","39OWYR0EPKSVRYKOX0DBEB7NWFYFYT","31","0","DECEMBER","10",,"0","10","2916",,,,,"1","2018-11-08 21:48:02","381894"
"A38ICX1LQIPIMN","cs_wg_mon_single_v1_pilot4","3IUZPWIU1O82IFH2JAMK9RECT3FWKD","61","0","SEPTEMBER","4",,"0","6","2372",,,,,"0","2018-11-08 21:48:02","381895"
"A19F75QCU199K8","cs_wg_mon_single_v1_pilot4","3SB5N7Y3O35483KY0C8K44DFLHJG0S","37","0","OCTOBER","4",,"0","4","6547",,,,,"0","2018-11-08 21:48:03","381896"
"A38ICX1LQIPIMN","cs_wg_mon_single_v1_pilot4","3IUZPWIU1O82IFH2JAMK9RECT3FWKD","62","0","APRIL","8",,"0","8","2160",,,,,"0","2018-11-08 21:48:06","381897"
"A19F75QCU199K8","cs_wg_mon_single_v1_pilot4","3SB5N7Y3O35483KY0C8K44DFLHJG0S","38","0","OCTOBER","4",,"0","4","1431",,,,,"0","2018-11-08 21:48:06","381898"
"A2VB7O0AZ7AO6A","cs_wg_mon_single_v1_pilot4","3FE2ERCCZX9VOX5G5G0IOENPKBMOPU","21","0","MAY","4",,"0","4","3443",,,,,"0","2018-11-08 21:48:06","381899"
"A079789010EVSPIBCSWFO","cs_wg_mon_single_v1_pilot4","39OWYR0EPKSVRYKOX0DBEB7NWFYFYT","32","0","NOVEMBER","4",,"0","4","3658",,,,,"0","2018-11-08 21:48:07","381900"
"A1I4GSXUC5KKKJ","cs_wg_mon_single_v1_pilot4","3OB0CAO74HQF5UBUSQ1BHWJ0CUBHYT","41","0","JUNE","8",,"0","6","2399",,,,,"0","2018-11-08 21:48:07","381901"
"A38ICX1LQIPIMN","cs_wg_mon_single_v1_pilot4","3IUZPWIU1O82IFH2JAMK9RECT3FWKD","63","0","JUNE","12",,"0","8","1738",,,,,"0","2018-11-08 21:48:09","381902"
" COPIEDAD3V6XGQWRD6E","cs_wg_mon_single_v1_pilot4","3BEFOD78W6ULZ1YLUGTHTCNPYFBM4M","21","0","AUGUST","12",,"0","12","8572",,,,,"1","2018-11-08 21:48:09","381903"
"A19F75QCU199K8","cs_wg_mon_single_v1_pilot4","3SB5N7Y3O35483KY0C8K44DFLHJG0S","39","0","JANUARY","2",,"0","2","2418",,,,,"0","2018-11-08 21:48:10","381904"
"A079789010EVSPIBCSWFO","cs_wg_mon_single_v1_pilot4","39OWYR0EPKSVRYKOX0DBEB7NWFYFYT","33","0","NOVEMBER","4",,"0","4","2457",,,,,"0","2018-11-08 21:48:11","381905"
"A1I4GSXUC5KKKJ","cs_wg_mon_single_v1_pilot4","3OB0CAO74HQF5UBUSQ1BHWJ0CUBHYT","42","0","AUGUST","10",,"0","10","2531",,,,,"0","2018-11-08 21:48:12","381906"
"A2VB7O0AZ7AO6A","cs_wg_mon_single_v1_pilot4","3FE2ERCCZX9VOX5G5G0IOENPKBMOPU","22","0","SEPTEMBER","2",,"0","2","3294",,,,,"0","2018-11-08 21:48:12","381907"
"A368X8R9Y44CYM","cs_wg_mon_single_v1_pilot4","3SUWZRL0MYE120AMW6YDD22UL4QE6A","10","0","JANUARY","8",,"0","8","11935",,,,,"0","2018-11-08 21:48:13","381908"
"A38ICX1LQIPIMN","cs_wg_mon_single_v1_pilot4","3IUZPWIU1O82IFH2JAMK9RECT3FWKD","64","0","JANUARY","6",,"0","4","4301",,,,,"0","2018-11-08 21:48:15","381909"
"A079789010EVSPIBCSWFO","cs_wg_mon_single_v1_pilot4","39OWYR0EPKSVRYKOX0DBEB7NWFYFYT","34","0","MARCH","4",,"0","4","4466",,,,,"0","2018-11-08 21:48:17","381910"
"A38ICX1LQIPIMN","cs_wg_mon_single_v1_pilot4","3IUZPWIU1O82IFH2JAMK9RECT3FWKD","65","0","FEBRUARY","2",,"0","4","2284",,,,,"0","2018-11-08 21:48:19","381911"
" COPIEDAD3V6XGQWRD6E","cs_wg_mon_single_v1_pilot4","3BEFOD78W6ULZ1YLUGTHTCNPYFBM4M","22","0","NOVEMBER","10",,"0","10","7771",,,,,"1","2018-11-08 21:48:19","381912"
"A1I4GSXUC5KKKJ","cs_wg_mon_single_v1_pilot4","3OB0CAO74HQF5UBUSQ1BHWJ0CUBHYT","43","0","JUNE","8",,"0","8","5274",,,,,"0","2018-11-08 21:48:19","381913"
"A2VB7O0AZ7AO6A","cs_wg_mon_single_v1_pilot4","3FE2ERCCZX9VOX5G5G0IOENPKBMOPU","23","0","JUNE","4",,"0","4","5345",,,,,"1","2018-11-08 21:48:21","381914"
"A19F75QCU199K8","cs_wg_mon_single_v1_pilot4","3SB5N7Y3O35483KY0C8K44DFLHJG0S","40","0","DECEMBER","8",,"0","10","8438",,,,,"0","2018-11-08 21:48:21","381915"
"A079789010EVSPIBCSWFO","cs_wg_mon_single_v1_pilot4","39OWYR0EPKSVRYKOX0DBEB7NWFYFYT","35","0","SEPTEMBER","6",,"0","6","2623",,,,,"0","2018-11-08 21:48:22","381916"
"A38ICX1LQIPIMN","cs_wg_mon_single_v1_pilot4","3IUZPWIU1O82IFH2JAMK9RECT3FWKD","66","0","NOVEMBER","4",,"0","4","2241",,,,,"0","2018-11-08 21:48:23","381917"
"A1I4GSXUC5KKKJ","cs_wg_mon_single_v1_pilot4","3OB0CAO74HQF5UBUSQ1BHWJ0CUBHYT","44","0","OCTOBER","4",,"0","4","3658",,,,,"0","2018-11-08 21:48:25","381918"
"A19F75QCU199K8","cs_wg_mon_single_v1_pilot4","3SB5N7Y3O35483KY0C8K44DFLHJG0S","41","0","SEPTEMBER","8",,"0","8","3709",,,,,"0","2018-11-08 21:48:26","381919"
"A079789010EVSPIBCSWFO","cs_wg_mon_single_v1_pilot4","39OWYR0EPKSVRYKOX0DBEB7NWFYFYT","36","0","APRIL","8",,"0","8","3672",,,,,"1","2018-11-08 21:48:27","381920"
" COPIEDAD3V6XGQWRD6E","cs_wg_mon_single_v1_pilot4","3BEFOD78W6ULZ1YLUGTHTCNPYFBM4M","23","0","FEBRUARY","4",,"0","4","4905",,,,,"1","2018-11-08 21:48:27","381921"
"A38ICX1LQIPIMN","cs_wg_mon_single_v1_pilot4","3IUZPWIU1O82IFH2JAMK9RECT3FWKD","67","0","SEPTEMBER","4",,"0","6","2393",,,,,"0","2018-11-08 21:48:27","381922"
"A079789010EVSPIBCSWFO","cs_wg_mon_single_v1_pilot4","39OWYR0EPKSVRYKOX0DBEB7NWFYFYT","37","0","JANUARY","2",,"0","2","1981",,,,,"0","2018-11-08 21:48:30","381923"
"A38ICX1LQIPIMN","cs_wg_mon_single_v1_pilot4","3IUZPWIU1O82IFH2JAMK9RECT3FWKD","68","0","JANUARY","6",,"0","6","2124",,,,,"0","2018-11-08 21:48:31","381924"
"A2VB7O0AZ7AO6A","cs_wg_mon_single_v1_pilot4","3FE2ERCCZX9VOX5G5G0IOENPKBMOPU","24","0","JANUARY","6",,"0","6","7035",,,,,"1","2018-11-08 21:48:31","381925"
"A1I4GSXUC5KKKJ","cs_wg_mon_single_v1_pilot4","3OB0CAO74HQF5UBUSQ1BHWJ0CUBHYT","45","0","SEPTEMBER","4",,"0","4","4961",,,,,"0","2018-11-08 21:48:32","381926"
"A38ICX1LQIPIMN","cs_wg_mon_single_v1_pilot4","3IUZPWIU1O82IFH2JAMK9RECT3FWKD","69","0","JUNE","12",,"0","8","1584",,,,,"0","2018-11-08 21:48:34","381927"
"A19F75QCU199K8","cs_wg_mon_single_v1_pilot4","3SB5N7Y3O35483KY0C8K44DFLHJG0S","42","0","JUNE","10",,"0","10","6523",,,,,"0","2018-11-08 21:48:34","381928"
"A368X8R9Y44CYM","cs_wg_mon_single_v1_pilot4","3SUWZRL0MYE120AMW6YDD22UL4QE6A","11","0","MARCH","8",,"0","8","16136",,,,,"1","2018-11-08 21:48:35","381929"
" COPIEDAD3V6XGQWRD6E","cs_wg_mon_single_v1_pilot4","3BEFOD78W6ULZ1YLUGTHTCNPYFBM4M","24","0","MARCH","12",,"0","12","6249",,,,,"1","2018-11-08 21:48:36","381930"
"A079789010EVSPIBCSWFO","cs_wg_mon_single_v1_pilot4","39OWYR0EPKSVRYKOX0DBEB7NWFYFYT","38","0","JULY","12",,"0","12","2840",,,,,"1","2018-11-08 21:48:37","381931"
"A1I4GSXUC5KKKJ","cs_wg_mon_single_v1_pilot4","3OB0CAO74HQF5UBUSQ1BHWJ0CUBHYT","46","0","MARCH","12",,"0","12","4755",,,,,"0","2018-11-08 21:48:38","381932"
"A38ICX1LQIPIMN","cs_wg_mon_single_v1_pilot4","3IUZPWIU1O82IFH2JAMK9RECT3FWKD","70","0","MAY","10",,"0","10","3226",,,,,"0","2018-11-08 21:48:39","381933"
"A19F75QCU199K8","cs_wg_mon_single_v1_pilot4","3SB5N7Y3O35483KY0C8K44DFLHJG0S","43","0","JANUARY","2",,"0","2","3440",,,,,"0","2018-11-08 21:48:40","381934"
"A2VB7O0AZ7AO6A","cs_wg_mon_single_v1_pilot4","3FE2ERCCZX9VOX5G5G0IOENPKBMOPU","25","0","OCTOBER","12",,"0","12","6068",,,,,"1","2018-11-08 21:48:42","381935"
"A38ICX1LQIPIMN","cs_wg_mon_single_v1_pilot4","3IUZPWIU1O82IFH2JAMK9RECT3FWKD","71","0","JULY","10",,"0","8","2088",,,,,"0","2018-11-08 21:48:43","381936"
"A079789010EVSPIBCSWFO","cs_wg_mon_single_v1_pilot4","39OWYR0EPKSVRYKOX0DBEB7NWFYFYT","39","0","NOVEMBER","4",,"0","4","5235",,,,,"1","2018-11-08 21:48:44","381937"
"A1I4GSXUC5KKKJ","cs_wg_mon_single_v1_pilot4","3OB0CAO74HQF5UBUSQ1BHWJ0CUBHYT","47","0","FEBRUARY","2",,"0","2","4385",,,,,"0","2018-11-08 21:48:44","381938"
"A19F75QCU199K8","cs_wg_mon_single_v1_pilot4","3SB5N7Y3O35483KY0C8K44DFLHJG0S","44","0","DECEMBER","8",,"0","8","3488",,,,,"0","2018-11-08 21:48:45","381939"
"A38ICX1LQIPIMN","cs_wg_mon_single_v1_pilot4","3IUZPWIU1O82IFH2JAMK9RECT3FWKD","72","0","AUGUST","8",,"0","8","1390",,,,,"0","2018-11-08 21:48:46","381940"
"A2VB7O0AZ7AO6A","cs_wg_mon_single_v1_pilot4","3FE2ERCCZX9VOX5G5G0IOENPKBMOPU","26","0","APRIL","6",,"0","6","3286",,,,,"0","2018-11-08 21:48:48","381941"
"A1I4GSXUC5KKKJ","cs_wg_mon_single_v1_pilot4","3OB0CAO74HQF5UBUSQ1BHWJ0CUBHYT","48","0","MARCH","12",,"0","12","1900",,,,,"0","2018-11-08 21:48:48","381942"
"A079789010EVSPIBCSWFO","cs_wg_mon_single_v1_pilot4","39OWYR0EPKSVRYKOX0DBEB7NWFYFYT","40","0","AUGUST","2",,"0","2","3493",,,,,"0","2018-11-08 21:48:49","381943"
" COPIEDAD3V6XGQWRD6E","cs_wg_mon_single_v1_pilot4","3BEFOD78W6ULZ1YLUGTHTCNPYFBM4M","25","0","DECEMBER","10",,"0","10","9908",,,,,"1","2018-11-08 21:48:50","381944"
"A368X8R9Y44CYM","cs_wg_mon_single_v1_pilot4","3SUWZRL0MYE120AMW6YDD22UL4QE6A","12","0","APRIL","6",,"0","6","8706",,,,,"0","2018-11-08 21:48:50","381945"
"A38ICX1LQIPIMN","cs_wg_mon_single_v1_pilot4","3IUZPWIU1O82IFH2JAMK9RECT3FWKD","73","0","NOVEMBER","4",,"0","4","2910",,,,,"0","2018-11-08 21:48:51","381946"
"A19F75QCU199K8","cs_wg_mon_single_v1_pilot4","3SB5N7Y3O35483KY0C8K44DFLHJG0S","45","0","AUGUST","10",,"0","10","4957",,,,,"0","2018-11-08 21:48:52","381947"
"A1I4GSXUC5KKKJ","cs_wg_mon_single_v1_pilot4","3OB0CAO74HQF5UBUSQ1BHWJ0CUBHYT","49","0","AUGUST","10",,"0","10","3643",,,,,"0","2018-11-08 21:48:54","381948"
"A079789010EVSPIBCSWFO","cs_wg_mon_single_v1_pilot4","39OWYR0EPKSVRYKOX0DBEB7NWFYFYT","41","0","JUNE","6",,"0","6","3765",,,,,"0","2018-11-08 21:48:54","381949"
" COPIEDAD3V6XGQWRD6E","cs_wg_mon_single_v1_pilot4","3BEFOD78W6ULZ1YLUGTHTCNPYFBM4M","26","0","DECEMBER","10",,"0","10","3251",,,,,"0","2018-11-08 21:48:55","381950"
"A38ICX1LQIPIMN","cs_wg_mon_single_v1_pilot4","3IUZPWIU1O82IFH2JAMK9RECT3FWKD","74","0","MARCH","12",,"0","10","2601",,,,,"0","2018-11-08 21:48:55","381951"
"A2VB7O0AZ7AO6A","cs_wg_mon_single_v1_pilot4","3FE2ERCCZX9VOX5G5G0IOENPKBMOPU","27","0","MARCH","8",,"0","8","8018",,,,,"1","2018-11-08 21:48:59","381952"
"A079789010EVSPIBCSWFO","cs_wg_mon_single_v1_pilot4","39OWYR0EPKSVRYKOX0DBEB7NWFYFYT","42","0","FEBRUARY","8",,"0","8","2958",,,,,"0","2018-11-08 21:48:59","381953"
"A19F75QCU199K8","cs_wg_mon_single_v1_pilot4","3SB5N7Y3O35483KY0C8K44DFLHJG0S","46","0","MARCH","6",,"0","8","5039",,,,,"0","2018-11-08 21:48:59","381954"
"A1I4GSXUC5KKKJ","cs_wg_mon_single_v1_pilot4","3OB0CAO74HQF5UBUSQ1BHWJ0CUBHYT","50","0","NOVEMBER","10",,"0","10","4764",,,,,"0","2018-11-08 21:49:01","381955"
"A368X8R9Y44CYM","cs_wg_mon_single_v1_pilot4","3SUWZRL0MYE120AMW6YDD22UL4QE6A","13","0","JANUARY","8",,"0","8","8461",,,,,"0","2018-11-08 21:49:01","381956"
"A38ICX1LQIPIMN","cs_wg_mon_single_v1_pilot4","3IUZPWIU1O82IFH2JAMK9RECT3FWKD","75","0","NOVEMBER","4",,"0","4","3798",,,,,"0","2018-11-08 21:49:01","381957"
"A079789010EVSPIBCSWFO","cs_wg_mon_single_v1_pilot4","39OWYR0EPKSVRYKOX0DBEB7NWFYFYT","43","0","OCTOBER","10",,"0","10","3605",,,,,"0","2018-11-08 21:49:04","381958"
"A1I4GSXUC5KKKJ","cs_wg_mon_single_v1_pilot4","3OB0CAO74HQF5UBUSQ1BHWJ0CUBHYT","51","0","JANUARY","12",,"0","12","1995",,,,,"0","2018-11-08 21:49:05","381959"
"A19F75QCU199K8","cs_wg_mon_single_v1_pilot4","3SB5N7Y3O35483KY0C8K44DFLHJG0S","47","0","SEPTEMBER","8",,"0","8","4352",,,,,"0","2018-11-08 21:49:05","381960"
"A38ICX1LQIPIMN","cs_wg_mon_single_v1_pilot4","3IUZPWIU1O82IFH2JAMK9RECT3FWKD","76","0","DECEMBER","2",,"0","2","2032",,,,,"0","2018-11-08 21:49:06","381961"
"A079789010EVSPIBCSWFO","cs_wg_mon_single_v1_pilot4","39OWYR0EPKSVRYKOX0DBEB7NWFYFYT","44","0","MAY","12",,"0","12","2414",,,,,"0","2018-11-08 21:49:08","381962"
"A1I4GSXUC5KKKJ","cs_wg_mon_single_v1_pilot4","3OB0CAO74HQF5UBUSQ1BHWJ0CUBHYT","52","0","SEPTEMBER","4",,"0","4","2283",,,,,"0","2018-11-08 21:49:09","381963"
"A38ICX1LQIPIMN","cs_wg_mon_single_v1_pilot4","3IUZPWIU1O82IFH2JAMK9RECT3FWKD","77","0","APRIL","8",,"0","8","1819",,,,,"0","2018-11-08 21:49:09","381964"
"A1I4GSXUC5KKKJ","cs_wg_mon_single_v1_pilot4","3OB0CAO74HQF5UBUSQ1BHWJ0CUBHYT","53","0","JANUARY","12",,"0","12","1875",,,,,"0","2018-11-08 21:49:13","381965"
"A19F75QCU199K8","cs_wg_mon_single_v1_pilot4","3SB5N7Y3O35483KY0C8K44DFLHJG0S","48","0","NOVEMBER","6",,"0","6","5351",,,,,"0","2018-11-08 21:49:13","381966"
"A2VB7O0AZ7AO6A","cs_wg_mon_single_v1_pilot4","3FE2ERCCZX9VOX5G5G0IOENPKBMOPU","28","0","NOVEMBER","12",,"0","12","11501",,,,,"1","2018-11-08 21:49:13","381967"
" COPIEDAD3V6XGQWRD6E","cs_wg_mon_single_v1_pilot4","3BEFOD78W6ULZ1YLUGTHTCNPYFBM4M","27","0","SEPTEMBER","6",,"0","6","16017",,,,,"1","2018-11-08 21:49:14","381968"
"A079789010EVSPIBCSWFO","cs_wg_mon_single_v1_pilot4","39OWYR0EPKSVRYKOX0DBEB7NWFYFYT","45","0","OCTOBER","10",,"0","10","5649",,,,,"0","2018-11-08 21:49:16","381969"
"A38ICX1LQIPIMN","cs_wg_mon_single_v1_pilot4","3IUZPWIU1O82IFH2JAMK9RECT3FWKD","78","0","MAY","10",,"0","12","5466",,,,,"0","2018-11-08 21:49:16","381970"
"A1I4GSXUC5KKKJ","cs_wg_mon_single_v1_pilot4","3OB0CAO74HQF5UBUSQ1BHWJ0CUBHYT","54","0","JANUARY","12",,"0","12","2129",,,,,"0","2018-11-08 21:49:16","381971"
"A19F75QCU199K8","cs_wg_mon_single_v1_pilot4","3SB5N7Y3O35483KY0C8K44DFLHJG0S","49","0","FEBRUARY","12",,"0","12","3486",,,,,"0","2018-11-08 21:49:18","381972"
"A079789010EVSPIBCSWFO","cs_wg_mon_single_v1_pilot4","39OWYR0EPKSVRYKOX0DBEB7NWFYFYT","46","0","DECEMBER","10",,"0","10","3568",,,,,"0","2018-11-08 21:49:21","381973"
"A368X8R9Y44CYM","cs_wg_mon_single_v1_pilot4","3SUWZRL0MYE120AMW6YDD22UL4QE6A","14","0","JULY","6",,"0","5","13598",,,,,"0","2018-11-08 21:49:21","381974"
"A38ICX1LQIPIMN","cs_wg_mon_single_v1_pilot4","3IUZPWIU1O82IFH2JAMK9RECT3FWKD","79","0","SEPTEMBER","4",,"0","4","3965",,,,,"0","2018-11-08 21:49:22","381975"
" COPIEDAD3V6XGQWRD6E","cs_wg_mon_single_v1_pilot4","3BEFOD78W6ULZ1YLUGTHTCNPYFBM4M","28","0","FEBRUARY","4",,"0","4","6204",,,,,"1","2018-11-08 21:49:23","381976"
"A19F75QCU199K8","cs_wg_mon_single_v1_pilot4","3SB5N7Y3O35483KY0C8K44DFLHJG0S","50","0","MARCH","6",,"0","6","3648",,,,,"0","2018-11-08 21:49:23","381977"
"A1I4GSXUC5KKKJ","cs_wg_mon_single_v1_pilot4","3OB0CAO74HQF5UBUSQ1BHWJ0CUBHYT","55","0","OCTOBER","4",,"0","4","4949",,,,,"0","2018-11-08 21:49:23","381978"
"A079789010EVSPIBCSWFO","cs_wg_mon_single_v1_pilot4","39OWYR0EPKSVRYKOX0DBEB7NWFYFYT","47","0","OCTOBER","10",,"0","10","3567",,,,,"0","2018-11-08 21:49:26","381979"
"A38ICX1LQIPIMN","cs_wg_mon_single_v1_pilot4","3IUZPWIU1O82IFH2JAMK9RECT3FWKD","80","0","JULY","10",,"0","10","2697",,,,,"0","2018-11-08 21:49:26","381980"
"A2VB7O0AZ7AO6A","cs_wg_mon_single_v1_pilot4","3FE2ERCCZX9VOX5G5G0IOENPKBMOPU","29","0","OCTOBER","12",,"0","12","9406",,,,,"1","2018-11-08 21:49:27","381981"
"A19F75QCU199K8","cs_wg_mon_single_v1_pilot4","3SB5N7Y3O35483KY0C8K44DFLHJG0S","51","0","JANUARY","2",,"0","2","2942",,,,,"0","2018-11-08 21:49:28","381982"
"A079789010EVSPIBCSWFO","cs_wg_mon_single_v1_pilot4","39OWYR0EPKSVRYKOX0DBEB7NWFYFYT","48","0","JUNE","6",,"0","6","2363",,,,,"0","2018-11-08 21:49:30","381983"
"A1I4GSXUC5KKKJ","cs_wg_mon_single_v1_pilot4","3OB0CAO74HQF5UBUSQ1BHWJ0CUBHYT","56","0","FEBRUARY","2",,"0","2","5329",,,,,"0","2018-11-08 21:49:31","381984"
"A38ICX1LQIPIMN","cs_wg_mon_single_v1_pilot4","3IUZPWIU1O82IFH2JAMK9RECT3FWKD","81","0","APRIL","8",,"0","8","2829",,,,,"0","2018-11-08 21:49:31","381985"
" COPIEDAD3V6XGQWRD6E","cs_wg_mon_single_v1_pilot4","3BEFOD78W6ULZ1YLUGTHTCNPYFBM4M","29","0","MAY","2",,"0","2","6810",,,,,"1","2018-11-08 21:49:32","381986"
"A38ICX1LQIPIMN","cs_wg_mon_single_v1_pilot4","3IUZPWIU1O82IFH2JAMK9RECT3FWKD","82","0","MARCH","12",,"0","10","2830",,,,,"0","2018-11-08 21:49:36","381987"
"A1I4GSXUC5KKKJ","cs_wg_mon_single_v1_pilot4","3OB0CAO74HQF5UBUSQ1BHWJ0CUBHYT","57","0","MARCH","12",,"0","12","3746",,,,,"0","2018-11-08 21:49:36","381988"
"A079789010EVSPIBCSWFO","cs_wg_mon_single_v1_pilot4","39OWYR0EPKSVRYKOX0DBEB7NWFYFYT","49","0","SEPTEMBER","6",,"0","4","5279",,,,,"0","2018-11-08 21:49:37","381989"
"A19F75QCU199K8","cs_wg_mon_single_v1_pilot4","3SB5N7Y3O35483KY0C8K44DFLHJG0S","52","0","NOVEMBER","6",,"0","8","8157",,,,,"0","2018-11-08 21:49:38","381990"
"A2VB7O0AZ7AO6A","cs_wg_mon_single_v1_pilot4","3FE2ERCCZX9VOX5G5G0IOENPKBMOPU","30","0","DECEMBER","10",,"0","10","7310",,,,,"1","2018-11-08 21:49:39","381991"
"A38ICX1LQIPIMN","cs_wg_mon_single_v1_pilot4","3IUZPWIU1O82IFH2JAMK9RECT3FWKD","83","0","APRIL","8",,"0","8","1796",,,,,"0","2018-11-08 21:49:39","381992"
"A368X8R9Y44CYM","cs_wg_mon_single_v1_pilot4","3SUWZRL0MYE120AMW6YDD22UL4QE6A","15","0","AUGUST","12",,"0","7","11897",,,,,"0","2018-11-08 21:49:40","381993"
"A1I4GSXUC5KKKJ","cs_wg_mon_single_v1_pilot4","3OB0CAO74HQF5UBUSQ1BHWJ0CUBHYT","58","0","APRIL","2",,"0","2","3232",,,,,"0","2018-11-08 21:49:41","381994"
" COPIEDAD3V6XGQWRD6E","cs_wg_mon_single_v1_pilot4","3BEFOD78W6ULZ1YLUGTHTCNPYFBM4M","30","0","DECEMBER","10",,"0","10","7573",,,,,"1","2018-11-08 21:49:42","381995"
"A079789010EVSPIBCSWFO","cs_wg_mon_single_v1_pilot4","39OWYR0EPKSVRYKOX0DBEB7NWFYFYT","50","0","JULY","12",,"0","12","2534",,,,,"0","2018-11-08 21:49:42","381996"
"A38ICX1LQIPIMN","cs_wg_mon_single_v1_pilot4","3IUZPWIU1O82IFH2JAMK9RECT3FWKD","84","0","FEBRUARY","2",,"0","2","3205",,,,,"0","2018-11-08 21:49:44","381997"
"A1I4GSXUC5KKKJ","cs_wg_mon_single_v1_pilot4","3OB0CAO74HQF5UBUSQ1BHWJ0CUBHYT","59","0","APRIL","2",,"0","2","1853",,,,,"0","2018-11-08 21:49:45","381998"
"A079789010EVSPIBCSWFO","cs_wg_mon_single_v1_pilot4","39OWYR0EPKSVRYKOX0DBEB7NWFYFYT","51","0","MAY","12",,"0","12","1925",,,,,"0","2018-11-08 21:49:45","381999"
"A2VB7O0AZ7AO6A","cs_wg_mon_single_v1_pilot4","3FE2ERCCZX9VOX5G5G0IOENPKBMOPU","31","0","JANUARY","6",,"0","6","3185",,,,,"0","2018-11-08 21:49:47","382000"
"A19F75QCU199K8","cs_wg_mon_single_v1_pilot4","3SB5N7Y3O35483KY0C8K44DFLHJG0S","53","0","APRIL","4",,"0","4","7506",,,,,"0","2018-11-08 21:49:47","382001"
" COPIEDAD3V6XGQWRD6E","cs_wg_mon_single_v1_pilot4","3BEFOD78W6ULZ1YLUGTHTCNPYFBM4M","31","0","NOVEMBER","10",,"0","10","4531",,,,,"1","2018-11-08 21:49:48","382002"
"A079789010EVSPIBCSWFO","cs_wg_mon_single_v1_pilot4","39OWYR0EPKSVRYKOX0DBEB7NWFYFYT","52","0","JULY","12",,"0","12","1725",,,,,"0","2018-11-08 21:49:49","382003"
"A38ICX1LQIPIMN","cs_wg_mon_single_v1_pilot4","3IUZPWIU1O82IFH2JAMK9RECT3FWKD","85","0","JANUARY","6",,"0","4","3317",,,,,"0","2018-11-08 21:49:49","382004"
"A19F75QCU199K8","cs_wg_mon_single_v1_pilot4","3SB5N7Y3O35483KY0C8K44DFLHJG0S","54","0","MAY","2",,"0","2","2624",,,,,"0","2018-11-08 21:49:51","382005"
"A1I4GSXUC5KKKJ","cs_wg_mon_single_v1_pilot4","3OB0CAO74HQF5UBUSQ1BHWJ0CUBHYT","60","0","NOVEMBER","10",,"0","10","4824",,,,,"0","2018-11-08 21:49:52","382006"
"A368X8R9Y44CYM","cs_wg_mon_single_v1_pilot4","3SUWZRL0MYE120AMW6YDD22UL4QE6A","16","0","MAY","10",,"0","10","9063",,,,,"0","2018-11-08 21:49:52","382007"
"A38ICX1LQIPIMN","cs_wg_mon_single_v1_pilot4","3IUZPWIU1O82IFH2JAMK9RECT3FWKD","86","0","JUNE","12",,"0","10","2986",,,,,"0","2018-11-08 21:49:54","382008"
"A079789010EVSPIBCSWFO","cs_wg_mon_single_v1_pilot4","39OWYR0EPKSVRYKOX0DBEB7NWFYFYT","53","0","FEBRUARY","8",,"0","10","3554",,,,,"0","2018-11-08 21:49:54","382009"
"A2VB7O0AZ7AO6A","cs_wg_mon_single_v1_pilot4","3FE2ERCCZX9VOX5G5G0IOENPKBMOPU","32","0","NOVEMBER","12",,"0","12","4914",,,,,"0","2018-11-08 21:49:54","382010"
" COPIEDAD3V6XGQWRD6E","cs_wg_mon_single_v1_pilot4","3BEFOD78W6ULZ1YLUGTHTCNPYFBM4M","32","0","MAY","2",,"0","2","5363",,,,,"1","2018-11-08 21:49:56","382011"
"A1I4GSXUC5KKKJ","cs_wg_mon_single_v1_pilot4","3OB0CAO74HQF5UBUSQ1BHWJ0CUBHYT","61","0","FEBRUARY","2",,"0","4","2700",,,,,"0","2018-11-08 21:49:56","382012"
"A079789010EVSPIBCSWFO","cs_wg_mon_single_v1_pilot4","39OWYR0EPKSVRYKOX0DBEB7NWFYFYT","54","0","MAY","12",,"0","12","1972",,,,,"0","2018-11-08 21:49:57","382013"
"A38ICX1LQIPIMN","cs_wg_mon_single_v1_pilot4","3IUZPWIU1O82IFH2JAMK9RECT3FWKD","87","0","SEPTEMBER","4",,"0","4","2676",,,,,"0","2018-11-08 21:49:58","382014"
"A19F75QCU199K8","cs_wg_mon_single_v1_pilot4","3SB5N7Y3O35483KY0C8K44DFLHJG0S","55","0","MARCH","6",,"0","6","4988",,,,,"0","2018-11-08 21:49:59","382015"
"A1I4GSXUC5KKKJ","cs_wg_mon_single_v1_pilot4","3OB0CAO74HQF5UBUSQ1BHWJ0CUBHYT","62","0","MARCH","12",,"0","12","1720",,,,,"0","2018-11-08 21:49:59","382016"
"A079789010EVSPIBCSWFO","cs_wg_mon_single_v1_pilot4","39OWYR0EPKSVRYKOX0DBEB7NWFYFYT","55","0","JULY","12",,"0","12","1848",,,,,"0","2018-11-08 21:50:01","382017"
"A2VB7O0AZ7AO6A","cs_wg_mon_single_v1_pilot4","3FE2ERCCZX9VOX5G5G0IOENPKBMOPU","33","0","OCTOBER","12",,"0","12","4099",,,,,"0","2018-11-08 21:50:02","382018"
"A38ICX1LQIPIMN","cs_wg_mon_single_v1_pilot4","3IUZPWIU1O82IFH2JAMK9RECT3FWKD","88","0","AUGUST","8",,"0","8","1495",,,,,"0","2018-11-08 21:50:02","382019"
"A1I4GSXUC5KKKJ","cs_wg_mon_single_v1_pilot4","3OB0CAO74HQF5UBUSQ1BHWJ0CUBHYT","63","0","JANUARY","12",,"0","12","1843",,,,,"0","2018-11-08 21:50:04","382020"
"A368X8R9Y44CYM","cs_wg_mon_single_v1_pilot4","3SUWZRL0MYE120AMW6YDD22UL4QE6A","17","0","SEPTEMBER","2",,"0","2","10961",,,,,"0","2018-11-08 21:50:05","382021"
" COPIEDAD3V6XGQWRD6E","cs_wg_mon_single_v1_pilot4","3BEFOD78W6ULZ1YLUGTHTCNPYFBM4M","33","0","JULY","2",,"0","2","7587",,,,,"1","2018-11-08 21:50:05","382022"
"A38ICX1LQIPIMN","cs_wg_mon_single_v1_pilot4","3IUZPWIU1O82IFH2JAMK9RECT3FWKD","89","0","JUNE","12",,"0","12","2874",,,,,"0","2018-11-08 21:50:06","382023"
"A079789010EVSPIBCSWFO","cs_wg_mon_single_v1_pilot4","39OWYR0EPKSVRYKOX0DBEB7NWFYFYT","56","0","NOVEMBER","4",,"0","10","4081",,,,,"0","2018-11-08 21:50:06","382024"
"A19F75QCU199K8","cs_wg_mon_single_v1_pilot4","3SB5N7Y3O35483KY0C8K44DFLHJG0S","56","0","NOVEMBER","6",,"0","6","6518",,,,,"0","2018-11-08 21:50:07","382025"
"A2VB7O0AZ7AO6A","cs_wg_mon_single_v1_pilot4","3FE2ERCCZX9VOX5G5G0IOENPKBMOPU","34","0","DECEMBER","10",,"0","10","3226",,,,,"0","2018-11-08 21:50:08","382026"
"A1I4GSXUC5KKKJ","cs_wg_mon_single_v1_pilot4","3OB0CAO74HQF5UBUSQ1BHWJ0CUBHYT","64","0","AUGUST","10",,"0","10","3068",,,,,"0","2018-11-08 21:50:08","382027"
"A079789010EVSPIBCSWFO","cs_wg_mon_single_v1_pilot4","39OWYR0EPKSVRYKOX0DBEB7NWFYFYT","57","0","DECEMBER","10",,"0","10","2259",,,,,"0","2018-11-08 21:50:10","382028"
"A19F75QCU199K8","cs_wg_mon_single_v1_pilot4","3SB5N7Y3O35483KY0C8K44DFLHJG0S","57","0","JULY","12",,"0","12","2675",,,,,"0","2018-11-08 21:50:12","382029"
"A38ICX1LQIPIMN","cs_wg_mon_single_v1_pilot4","3IUZPWIU1O82IFH2JAMK9RECT3FWKD","90","0","FEBRUARY","2",,"0","2","3975",,,,,"0","2018-11-08 21:50:12","382030"
" COPIEDAD3V6XGQWRD6E","cs_wg_mon_single_v1_pilot4","3BEFOD78W6ULZ1YLUGTHTCNPYFBM4M","34","0","JANUARY","8",,"0","8","4515",,,,,"1","2018-11-08 21:50:12","382031"
"A079789010EVSPIBCSWFO","cs_wg_mon_single_v1_pilot4","39OWYR0EPKSVRYKOX0DBEB7NWFYFYT","58","0","FEBRUARY","8",,"0","8","2041",,,,,"0","2018-11-08 21:50:14","382032"
"A19F75QCU199K8","cs_wg_mon_single_v1_pilot4","3SB5N7Y3O35483KY0C8K44DFLHJG0S","58","0","AUGUST","10",,"0","12","1223",,,,,"0","2018-11-08 21:50:15","382033"
"A2VB7O0AZ7AO6A","cs_wg_mon_single_v1_pilot4","3FE2ERCCZX9VOX5G5G0IOENPKBMOPU","35","0","SEPTEMBER","2",,"0","2","3475",,,,,"0","2018-11-08 21:50:16","382034"
"A1I4GSXUC5KKKJ","cs_wg_mon_single_v1_pilot4","3OB0CAO74HQF5UBUSQ1BHWJ0CUBHYT","65","0","JUNE","8",,"0","8","4962",,,,,"0","2018-11-08 21:50:16","382035"
"A38ICX1LQIPIMN","cs_wg_mon_single_v1_pilot4","3IUZPWIU1O82IFH2JAMK9RECT3FWKD","91","0","NOVEMBER","4",,"0","4","2387",,,,,"0","2018-11-08 21:50:16","382036"
"A079789010EVSPIBCSWFO","cs_wg_mon_single_v1_pilot4","39OWYR0EPKSVRYKOX0DBEB7NWFYFYT","59","0","NOVEMBER","4",,"0","8","1816",,,,,"0","2018-11-08 21:50:18","382037"
"A19F75QCU199K8","cs_wg_mon_single_v1_pilot4","3SB5N7Y3O35483KY0C8K44DFLHJG0S","59","0","AUGUST","10",,"0","10","2336",,,,,"0","2018-11-08 21:50:19","382038"
"A38ICX1LQIPIMN","cs_wg_mon_single_v1_pilot4","3IUZPWIU1O82IFH2JAMK9RECT3FWKD","92","0","JULY","10",,"0","12","2478",,,,,"0","2018-11-08 21:50:21","382039"
"A079789010EVSPIBCSWFO","cs_wg_mon_single_v1_pilot4","39OWYR0EPKSVRYKOX0DBEB7NWFYFYT","60","0","JULY","12",,"0","12","1680",,,,,"0","2018-11-08 21:50:21","382040"
"A2VB7O0AZ7AO6A","cs_wg_mon_single_v1_pilot4","3FE2ERCCZX9VOX5G5G0IOENPKBMOPU","36","0","JANUARY","6",,"0","6","3097",,,,,"0","2018-11-08 21:50:22","382041"
"A368X8R9Y44CYM","cs_wg_mon_single_v1_pilot4","3SUWZRL0MYE120AMW6YDD22UL4QE6A","18","0","MAY","10",,"0","10","9075",,,,,"0","2018-11-08 21:50:22","382042"
"A1I4GSXUC5KKKJ","cs_wg_mon_single_v1_pilot4","3OB0CAO74HQF5UBUSQ1BHWJ0CUBHYT","66","0","JUNE","8",,"0","8","4451",,,,,"0","2018-11-08 21:50:23","382043"
"A079789010EVSPIBCSWFO","cs_wg_mon_single_v1_pilot4","39OWYR0EPKSVRYKOX0DBEB7NWFYFYT","61","0","OCTOBER","10",,"0","10","1984",,,,,"0","2018-11-08 21:50:24","382044"
"A19F75QCU199K8","cs_wg_mon_single_v1_pilot4","3SB5N7Y3O35483KY0C8K44DFLHJG0S","60","0","DECEMBER","8",,"0","8","5145",,,,,"0","2018-11-08 21:50:26","382045"
"A38ICX1LQIPIMN","cs_wg_mon_single_v1_pilot4","3IUZPWIU1O82IFH2JAMK9RECT3FWKD","93","0","FEBRUARY","2",,"0","2","3547",,,,,"0","2018-11-08 21:50:26","382046"
"A2VB7O0AZ7AO6A","cs_wg_mon_single_v1_pilot4","3FE2ERCCZX9VOX5G5G0IOENPKBMOPU","37","0","JANUARY","6",,"0","6","3463",,,,,"0","2018-11-08 21:50:28","382047"
"A079789010EVSPIBCSWFO","cs_wg_mon_single_v1_pilot4","39OWYR0EPKSVRYKOX0DBEB7NWFYFYT","62","0","APRIL","8",,"0","8","2566",,,,,"0","2018-11-08 21:50:28","382048"
" COPIEDAD3V6XGQWRD6E","cs_wg_mon_single_v1_pilot4","3BEFOD78W6ULZ1YLUGTHTCNPYFBM4M","35","0","MARCH","12",,"0","12","14130",,,,,"1","2018-11-08 21:50:29","382049"
"A1I4GSXUC5KKKJ","cs_wg_mon_single_v1_pilot4","3OB0CAO74HQF5UBUSQ1BHWJ0CUBHYT","67","0","AUGUST","10",,"0","10","3375",,,,,"0","2018-11-08 21:50:29","382050"
"A38ICX1LQIPIMN","cs_wg_mon_single_v1_pilot4","3IUZPWIU1O82IFH2JAMK9RECT3FWKD","94","0","AUGUST","8",,"0","8","1735",,,,,"0","2018-11-08 21:50:30","382051"
"A19F75QCU199K8","cs_wg_mon_single_v1_pilot4","3SB5N7Y3O35483KY0C8K44DFLHJG0S","61","0","SEPTEMBER","8",,"0","8","3896",,,,,"0","2018-11-08 21:50:31","382052"
"A079789010EVSPIBCSWFO","cs_wg_mon_single_v1_pilot4","39OWYR0EPKSVRYKOX0DBEB7NWFYFYT","63","0","MAY","12",,"0","12","2011",,,,,"0","2018-11-08 21:50:32","382053"
"A1I4GSXUC5KKKJ","cs_wg_mon_single_v1_pilot4","3OB0CAO74HQF5UBUSQ1BHWJ0CUBHYT","68","0","APRIL","2",,"0","2","2236",,,,,"0","2018-11-08 21:50:33","382054"
"A38ICX1LQIPIMN","cs_wg_mon_single_v1_pilot4","3IUZPWIU1O82IFH2JAMK9RECT3FWKD","95","0","FEBRUARY","2",,"0","2","2158",,,,,"0","2018-11-08 21:50:33","382055"
"A079789010EVSPIBCSWFO","cs_wg_mon_single_v1_pilot4","39OWYR0EPKSVRYKOX0DBEB7NWFYFYT","64","0","NOVEMBER","4",,"0","4","1531",,,,,"0","2018-11-08 21:50:35","382056"
" COPIEDAD3V6XGQWRD6E","cs_wg_mon_single_v1_pilot4","3BEFOD78W6ULZ1YLUGTHTCNPYFBM4M","36","0","SEPTEMBER","6",,"0","6","5722",,,,,"1","2018-11-08 21:50:36","382057"
"A19F75QCU199K8","cs_wg_mon_single_v1_pilot4","3SB5N7Y3O35483KY0C8K44DFLHJG0S","62","0","NOVEMBER","6",,"0","6","3776",,,,,"0","2018-11-08 21:50:36","382058"
"A2VB7O0AZ7AO6A","cs_wg_mon_single_v1_pilot4","3FE2ERCCZX9VOX5G5G0IOENPKBMOPU","38","0","AUGUST","2",,"0","2","6261",,,,,"1","2018-11-08 21:50:37","382059"
"A1I4GSXUC5KKKJ","cs_wg_mon_single_v1_pilot4","3OB0CAO74HQF5UBUSQ1BHWJ0CUBHYT","69","0","NOVEMBER","10",,"0","10","2765",,,,,"0","2018-11-08 21:50:37","382060"
"A38ICX1LQIPIMN","cs_wg_mon_single_v1_pilot4","3IUZPWIU1O82IFH2JAMK9RECT3FWKD","96","0","JULY","10",,"0","12","3158",,,,,"0","2018-11-08 21:50:38","382061"
"A079789010EVSPIBCSWFO","cs_wg_mon_single_v1_pilot4","39OWYR0EPKSVRYKOX0DBEB7NWFYFYT","65","0","JUNE","6",,"0","6","2782",,,,,"0","2018-11-08 21:50:39","382062"
"A368X8R9Y44CYM","cs_wg_mon_single_v1_pilot4","3SUWZRL0MYE120AMW6YDD22UL4QE6A","19","0","DECEMBER","12",,"0","5","10546",,,,,"0","2018-11-08 21:50:41","382063"
"A1I4GSXUC5KKKJ","cs_wg_mon_single_v1_pilot4","3OB0CAO74HQF5UBUSQ1BHWJ0CUBHYT","70","0","OCTOBER","4",,"0","4","1977",,,,,"0","2018-11-08 21:50:41","382064"
"A19F75QCU199K8","cs_wg_mon_single_v1_pilot4","3SB5N7Y3O35483KY0C8K44DFLHJG0S","63","0","AUGUST","10",,"0","10","3889",,,,,"0","2018-11-08 21:50:42","382065"
"A38ICX1LQIPIMN","cs_wg_mon_single_v1_pilot4","3IUZPWIU1O82IFH2JAMK9RECT3FWKD","97","0","AUGUST","8",,"0","8","1869",,,,,"0","2018-11-08 21:50:42","382066"
"A079789010EVSPIBCSWFO","cs_wg_mon_single_v1_pilot4","39OWYR0EPKSVRYKOX0DBEB7NWFYFYT","66","0","AUGUST","2",,"0","4","1844",,,,,"0","2018-11-08 21:50:43","382067"
"A2VB7O0AZ7AO6A","cs_wg_mon_single_v1_pilot4","3FE2ERCCZX9VOX5G5G0IOENPKBMOPU","39","0","APRIL","6",,"0","6","3620",,,,,"0","2018-11-08 21:50:43","382068"
"A1I4GSXUC5KKKJ","cs_wg_mon_single_v1_pilot4","3OB0CAO74HQF5UBUSQ1BHWJ0CUBHYT","71","0","MAY","6",,"0","6","2061",,,,,"0","2018-11-08 21:50:45","382069"
" COPIEDAD3V6XGQWRD6E","cs_wg_mon_single_v1_pilot4","3BEFOD78W6ULZ1YLUGTHTCNPYFBM4M","37","0","OCTOBER","4",,"0","4","7116",,,,,"1","2018-11-08 21:50:46","382070"
"A19F75QCU199K8","cs_wg_mon_single_v1_pilot4","3SB5N7Y3O35483KY0C8K44DFLHJG0S","64","0","JANUARY","2",,"0","2","2800",,,,,"0","2018-11-08 21:50:47","382071"
"A079789010EVSPIBCSWFO","cs_wg_mon_single_v1_pilot4","39OWYR0EPKSVRYKOX0DBEB7NWFYFYT","67","0","SEPTEMBER","6",,"0","4","2388",,,,,"0","2018-11-08 21:50:47","382072"
"A38ICX1LQIPIMN","cs_wg_mon_single_v1_pilot4","3IUZPWIU1O82IFH2JAMK9RECT3FWKD","98","0","JULY","10",,"0","12","3345",,,,,"0","2018-11-08 21:50:47","382073"
"A2VB7O0AZ7AO6A","cs_wg_mon_single_v1_pilot4","3FE2ERCCZX9VOX5G5G0IOENPKBMOPU","40","0","MAY","4",,"0","4","2949",,,,,"0","2018-11-08 21:50:49","382074"
"A1I4GSXUC5KKKJ","cs_wg_mon_single_v1_pilot4","3OB0CAO74HQF5UBUSQ1BHWJ0CUBHYT","72","0","NOVEMBER","10",,"0","10","5099",,,,,"0","2018-11-08 21:50:51","382075"
" COPIEDAD3V6XGQWRD6E","cs_wg_mon_single_v1_pilot4","3BEFOD78W6ULZ1YLUGTHTCNPYFBM4M","38","0","JULY","2",,"0","2","4026",,,,,"1","2018-11-08 21:50:52","382076"
"A079789010EVSPIBCSWFO","cs_wg_mon_single_v1_pilot4","39OWYR0EPKSVRYKOX0DBEB7NWFYFYT","68","0","JUNE","6",,"0","6","4325",,,,,"0","2018-11-08 21:50:53","382077"
"A38ICX1LQIPIMN","cs_wg_mon_single_v1_pilot4","3IUZPWIU1O82IFH2JAMK9RECT3FWKD","99","0","DECEMBER","2",,"0","2","3986",,,,,"0","2018-11-08 21:50:53","382078"
"A19F75QCU199K8","cs_wg_mon_single_v1_pilot4","3SB5N7Y3O35483KY0C8K44DFLHJG0S","65","0","DECEMBER","8",,"0","8","5343",,,,,"0","2018-11-08 21:50:54","382079"
"A1I4GSXUC5KKKJ","cs_wg_mon_single_v1_pilot4","3OB0CAO74HQF5UBUSQ1BHWJ0CUBHYT","73","0","MAY","6",,"0","6","1934",,,,,"0","2018-11-08 21:50:55","382080"
"A079789010EVSPIBCSWFO","cs_wg_mon_single_v1_pilot4","39OWYR0EPKSVRYKOX0DBEB7NWFYFYT","69","0","FEBRUARY","8",,"0","8","1722",,,,,"0","2018-11-08 21:50:56","382081"
"A38ICX1LQIPIMN","cs_wg_mon_single_v1_pilot4","3IUZPWIU1O82IFH2JAMK9RECT3FWKD","100","0","MARCH","12",,"0","10","2738",,,,,"0","2018-11-08 21:50:58","382082"
"A1I4GSXUC5KKKJ","cs_wg_mon_single_v1_pilot4","3OB0CAO74HQF5UBUSQ1BHWJ0CUBHYT","74","0","OCTOBER","4",,"0","4","1827",,,,,"0","2018-11-08 21:50:59","382083"
"A2VB7O0AZ7AO6A","cs_wg_mon_single_v1_pilot4","3FE2ERCCZX9VOX5G5G0IOENPKBMOPU","41","0","MARCH","8",,"0","8","7694",,,,,"0","2018-11-08 21:50:59","382084"
"A079789010EVSPIBCSWFO","cs_wg_mon_single_v1_pilot4","39OWYR0EPKSVRYKOX0DBEB7NWFYFYT","70","0","JUNE","6",,"0","6","2009",,,,,"0","2018-11-08 21:51:00","382085"
"A19F75QCU199K8","cs_wg_mon_single_v1_pilot4","3SB5N7Y3O35483KY0C8K44DFLHJG0S","66","0","NOVEMBER","6",,"0","6","4374",,,,,"0","2018-11-08 21:51:00","382086"
" COPIEDAD3V6XGQWRD6E","cs_wg_mon_single_v1_pilot4","3BEFOD78W6ULZ1YLUGTHTCNPYFBM4M","39","0","JUNE","8",,"0","8","6988",,,,,"1","2018-11-08 21:51:01","382087"
"A38ICX1LQIPIMN","cs_wg_mon_single_v1_pilot4","3IUZPWIU1O82IFH2JAMK9RECT3FWKD","101","0","MARCH","12",,"0","12","2509",,,,,"0","2018-11-08 21:51:02","382088"
"A368X8R9Y44CYM","cs_wg_mon_single_v1_pilot4","3SUWZRL0MYE120AMW6YDD22UL4QE6A","20","0","AUGUST","12",,"0","12","18170",,,,,"1","2018-11-08 21:51:03","382089"
"A1I4GSXUC5KKKJ","cs_wg_mon_single_v1_pilot4","3OB0CAO74HQF5UBUSQ1BHWJ0CUBHYT","75","0","DECEMBER","8",,"0","8","2434",,,,,"0","2018-11-08 21:51:03","382090"
"A19F75QCU199K8","cs_wg_mon_single_v1_pilot4","3SB5N7Y3O35483KY0C8K44DFLHJG0S","67","0","AUGUST","10",,"0","12","2510",,,,,"0","2018-11-08 21:51:04","382091"
"A079789010EVSPIBCSWFO","cs_wg_mon_single_v1_pilot4","39OWYR0EPKSVRYKOX0DBEB7NWFYFYT","71","0","AUGUST","2",,"0","2","3538",,,,,"0","2018-11-08 21:51:04","382092"
"A2VB7O0AZ7AO6A","cs_wg_mon_single_v1_pilot4","3FE2ERCCZX9VOX5G5G0IOENPKBMOPU","42","0","MARCH","8",,"0","8","3420",,,,,"0","2018-11-08 21:51:05","382093"
"A38ICX1LQIPIMN","cs_wg_mon_single_v1_pilot4","3IUZPWIU1O82IFH2JAMK9RECT3FWKD","102","0","SEPTEMBER","4",,"0","4","3691",,,,,"0","2018-11-08 21:51:07","382094"
"A1I4GSXUC5KKKJ","cs_wg_mon_single_v1_pilot4","3OB0CAO74HQF5UBUSQ1BHWJ0CUBHYT","76","0","JULY","6",,"0","6","2080",,,,,"0","2018-11-08 21:51:07","382095"
"A079789010EVSPIBCSWFO","cs_wg_mon_single_v1_pilot4","39OWYR0EPKSVRYKOX0DBEB7NWFYFYT","72","0","MAY","12",,"0","12","1614",,,,,"0","2018-11-08 21:51:07","382096"
" COPIEDAD3V6XGQWRD6E","cs_wg_mon_single_v1_pilot4","3BEFOD78W6ULZ1YLUGTHTCNPYFBM4M","40","0","APRIL","6",,"0","6","6580",,,,,"0","2018-11-08 21:51:09","382097"
"A38ICX1LQIPIMN","cs_wg_mon_single_v1_pilot4","3IUZPWIU1O82IFH2JAMK9RECT3FWKD","103","0","MARCH","12",,"0","12","1966",,,,,"0","2018-11-08 21:51:11","382098"
"A19F75QCU199K8","cs_wg_mon_single_v1_pilot4","3SB5N7Y3O35483KY0C8K44DFLHJG0S","68","0","APRIL","4",,"0","4","5195",,,,,"0","2018-11-08 21:51:11","382099"
"A079789010EVSPIBCSWFO","cs_wg_mon_single_v1_pilot4","39OWYR0EPKSVRYKOX0DBEB7NWFYFYT","73","0","MARCH","4",,"0","4","3873",,,,,"0","2018-11-08 21:51:14","382100"
"A1I4GSXUC5KKKJ","cs_wg_mon_single_v1_pilot4","3OB0CAO74HQF5UBUSQ1BHWJ0CUBHYT","77","0","FEBRUARY","2",,"0","2","5209",,,,,"0","2018-11-08 21:51:15","382101"
" COPIEDAD3V6XGQWRD6E","cs_wg_mon_single_v1_pilot4","3BEFOD78W6ULZ1YLUGTHTCNPYFBM4M","41","0","DECEMBER","10",,"0","10","3355",,,,,"0","2018-11-08 21:51:15","382102"
"A38ICX1LQIPIMN","cs_wg_mon_single_v1_pilot4","3IUZPWIU1O82IFH2JAMK9RECT3FWKD","104","0","SEPTEMBER","4",,"0","4","2110",,,,,"0","2018-11-08 21:51:15","382103"
"A19F75QCU199K8","cs_wg_mon_single_v1_pilot4","3SB5N7Y3O35483KY0C8K44DFLHJG0S","69","0","JULY","12",,"0","12","2722",,,,,"0","2018-11-08 21:51:16","382104"
"A079789010EVSPIBCSWFO","cs_wg_mon_single_v1_pilot4","39OWYR0EPKSVRYKOX0DBEB7NWFYFYT","74","0","DECEMBER","10",,"0","10","2624",,,,,"0","2018-11-08 21:51:18","382105"
"A38ICX1LQIPIMN","cs_wg_mon_single_v1_pilot4","3IUZPWIU1O82IFH2JAMK9RECT3FWKD","105","0","APRIL","8",,"0","8","2046",,,,,"0","2018-11-08 21:51:19","382106"
"A1I4GSXUC5KKKJ","cs_wg_mon_single_v1_pilot4","3OB0CAO74HQF5UBUSQ1BHWJ0CUBHYT","78","0","SEPTEMBER","4",,"0","4","3981",,,,,"0","2018-11-08 21:51:21","382107"
" COPIEDAD3V6XGQWRD6E","cs_wg_mon_single_v1_pilot4","3BEFOD78W6ULZ1YLUGTHTCNPYFBM4M","42","0","NOVEMBER","10",,"0","10","4404",,,,,"0","2018-11-08 21:51:21","382108"
"A079789010EVSPIBCSWFO","cs_wg_mon_single_v1_pilot4","39OWYR0EPKSVRYKOX0DBEB7NWFYFYT","75","0","OCTOBER","10",,"0","10","2609",,,,,"0","2018-11-08 21:51:22","382109"
"A38ICX1LQIPIMN","cs_wg_mon_single_v1_pilot4","3IUZPWIU1O82IFH2JAMK9RECT3FWKD","106","0","DECEMBER","2",,"0","2","1621",,,,,"0","2018-11-08 21:51:22","382110"
"A19F75QCU199K8","cs_wg_mon_single_v1_pilot4","3SB5N7Y3O35483KY0C8K44DFLHJG0S","70","0","NOVEMBER","6",,"0","6","4644",,,,,"0","2018-11-08 21:51:22","382111"
"A38ICX1LQIPIMN","cs_wg_mon_single_v1_pilot4","3IUZPWIU1O82IFH2JAMK9RECT3FWKD","107","0","OCTOBER","6",,"0","6","2631",,,,,"0","2018-11-08 21:51:26","382112"
"A079789010EVSPIBCSWFO","cs_wg_mon_single_v1_pilot4","39OWYR0EPKSVRYKOX0DBEB7NWFYFYT","76","0","JANUARY","2",,"0","2","2734",,,,,"0","2018-11-08 21:51:26","382113"
" COPIEDAD3V6XGQWRD6E","cs_wg_mon_single_v1_pilot4","3BEFOD78W6ULZ1YLUGTHTCNPYFBM4M","43","0","JANUARY","8",,"0","8","2812",,,,,"0","2018-11-08 21:51:26","382114"
"A368X8R9Y44CYM","cs_wg_mon_single_v1_pilot4","3SUWZRL0MYE120AMW6YDD22UL4QE6A","21","0","NOVEMBER","4",,"0","4","22198",,,,,"1","2018-11-08 21:51:28","382115"
"A1I4GSXUC5KKKJ","cs_wg_mon_single_v1_pilot4","3OB0CAO74HQF5UBUSQ1BHWJ0CUBHYT","79","0","JUNE","8",,"0","8","5178",,,,,"0","2018-11-08 21:51:28","382116"
"A19F75QCU199K8","cs_wg_mon_single_v1_pilot4","3SB5N7Y3O35483KY0C8K44DFLHJG0S","71","0","AUGUST","10",,"0","10","5244",,,,,"0","2018-11-08 21:51:29","382117"
"A38ICX1LQIPIMN","cs_wg_mon_single_v1_pilot4","3IUZPWIU1O82IFH2JAMK9RECT3FWKD","108","0","DECEMBER","2",,"0","2","1621",,,,,"0","2018-11-08 21:51:29","382118"
"A079789010EVSPIBCSWFO","cs_wg_mon_single_v1_pilot4","39OWYR0EPKSVRYKOX0DBEB7NWFYFYT","77","0","MAY","12",,"0","12","1925",,,,,"0","2018-11-08 21:51:30","382119"
" COPIEDAD3V6XGQWRD6E","cs_wg_mon_single_v1_pilot4","3BEFOD78W6ULZ1YLUGTHTCNPYFBM4M","44","0","JANUARY","8",,"0","8","2837",,,,,"0","2018-11-08 21:51:31","382120"
"A1I4GSXUC5KKKJ","cs_wg_mon_single_v1_pilot4","3OB0CAO74HQF5UBUSQ1BHWJ0CUBHYT","80","0","AUGUST","10",,"0","10","2826",,,,,"0","2018-11-08 21:51:32","382121"
"A38ICX1LQIPIMN","cs_wg_mon_single_v1_pilot4","3IUZPWIU1O82IFH2JAMK9RECT3FWKD","109","0","AUGUST","8",,"0","8","1530",,,,,"0","2018-11-08 21:51:33","382122"
"A079789010EVSPIBCSWFO","cs_wg_mon_single_v1_pilot4","39OWYR0EPKSVRYKOX0DBEB7NWFYFYT","78","0","MARCH","4",,"0","4","2087",,,,,"0","2018-11-08 21:51:34","382123"
"A19F75QCU199K8","cs_wg_mon_single_v1_pilot4","3SB5N7Y3O35483KY0C8K44DFLHJG0S","72","0","JUNE","10",,"0","12","4395",,,,,"0","2018-11-08 21:51:35","382124"
"A1I4GSXUC5KKKJ","cs_wg_mon_single_v1_pilot4","3OB0CAO74HQF5UBUSQ1BHWJ0CUBHYT","81","0","FEBRUARY","2",,"0","2","2259",,,,,"0","2018-11-08 21:51:36","382125"
"A2VB7O0AZ7AO6A","cs_wg_mon_single_v1_pilot4","3FE2ERCCZX9VOX5G5G0IOENPKBMOPU","43","0","FEBRUARY","10",,"0","6","27205",,,,,"0","2018-11-08 21:51:37","382126"
"A38ICX1LQIPIMN","cs_wg_mon_single_v1_pilot4","3IUZPWIU1O82IFH2JAMK9RECT3FWKD","110","0","JUNE","12",,"0","12","2252",,,,,"0","2018-11-08 21:51:37","382127"
"A368X8R9Y44CYM","cs_wg_mon_single_v1_pilot4","3SUWZRL0MYE120AMW6YDD22UL4QE6A","22","0","JUNE","2",,"0","2","7127",,,,,"0","2018-11-08 21:51:38","382128"
"A079789010EVSPIBCSWFO","cs_wg_mon_single_v1_pilot4","39OWYR0EPKSVRYKOX0DBEB7NWFYFYT","79","0","AUGUST","2",,"0","6","3014",,,,,"0","2018-11-08 21:51:38","382129"
" COPIEDAD3V6XGQWRD6E","cs_wg_mon_single_v1_pilot4","3BEFOD78W6ULZ1YLUGTHTCNPYFBM4M","45","0","APRIL","6",,"0","6","5277",,,,,"0","2018-11-08 21:51:39","382130"
"A19F75QCU199K8","cs_wg_mon_single_v1_pilot4","3SB5N7Y3O35483KY0C8K44DFLHJG0S","73","0","MAY","2",,"0","2","2284",,,,,"0","2018-11-08 21:51:39","382131"
"A1I4GSXUC5KKKJ","cs_wg_mon_single_v1_pilot4","3OB0CAO74HQF5UBUSQ1BHWJ0CUBHYT","82","0","MAY","6",,"0","6","2119",,,,,"0","2018-11-08 21:51:40","382132"
"A38ICX1LQIPIMN","cs_wg_mon_single_v1_pilot4","3IUZPWIU1O82IFH2JAMK9RECT3FWKD","111","0","OCTOBER","6",,"0","6","2045",,,,,"0","2018-11-08 21:51:41","382133"
"A2VB7O0AZ7AO6A","cs_wg_mon_single_v1_pilot4","3FE2ERCCZX9VOX5G5G0IOENPKBMOPU","44","0","JANUARY","6",,"0","6","2781",,,,,"0","2018-11-08 21:51:42","382134"
"A079789010EVSPIBCSWFO","cs_wg_mon_single_v1_pilot4","39OWYR0EPKSVRYKOX0DBEB7NWFYFYT","80","0","APRIL","8",,"0","4","1750",,,,,"0","2018-11-08 21:51:42","382135"
"A1I4GSXUC5KKKJ","cs_wg_mon_single_v1_pilot4","3OB0CAO74HQF5UBUSQ1BHWJ0CUBHYT","83","0","JULY","6",,"0","6","1824",,,,,"0","2018-11-08 21:51:44","382136"
"A38ICX1LQIPIMN","cs_wg_mon_single_v1_pilot4","3IUZPWIU1O82IFH2JAMK9RECT3FWKD","112","0","OCTOBER","6",,"0","6","2124",,,,,"0","2018-11-08 21:51:44","382137"
"A19F75QCU199K8","cs_wg_mon_single_v1_pilot4","3SB5N7Y3O35483KY0C8K44DFLHJG0S","74","0","AUGUST","10",,"0","10","3537",,,,,"0","2018-11-08 21:51:45","382138"
" COPIEDAD3V6XGQWRD6E","cs_wg_mon_single_v1_pilot4","3BEFOD78W6ULZ1YLUGTHTCNPYFBM4M","46","0","DECEMBER","10",,"0","10","3635",,,,,"0","2018-11-08 21:51:45","382139"
"A1I4GSXUC5KKKJ","cs_wg_mon_single_v1_pilot4","3OB0CAO74HQF5UBUSQ1BHWJ0CUBHYT","84","0","JANUARY","12",,"0","12","1915",,,,,"0","2018-11-08 21:51:47","382140"
"A2VB7O0AZ7AO6A","cs_wg_mon_single_v1_pilot4","3FE2ERCCZX9VOX5G5G0IOENPKBMOPU","45","0","MARCH","8",,"0","6","2961",,,,,"0","2018-11-08 21:51:47","382141"
"A38ICX1LQIPIMN","cs_wg_mon_single_v1_pilot4","3IUZPWIU1O82IFH2JAMK9RECT3FWKD","113","0","SEPTEMBER","4",,"0","6","3311",,,,,"0","2018-11-08 21:51:49","382142"
"A079789010EVSPIBCSWFO","cs_wg_mon_single_v1_pilot4","39OWYR0EPKSVRYKOX0DBEB7NWFYFYT","81","0","AUGUST","2",,"0","2","6469",,,,,"0","2018-11-08 21:51:50","382143"
"A19F75QCU199K8","cs_wg_mon_single_v1_pilot4","3SB5N7Y3O35483KY0C8K44DFLHJG0S","75","0","SEPTEMBER","8",,"0","8","3092",,,,,"0","2018-11-08 21:51:50","382144"
"A368X8R9Y44CYM","cs_wg_mon_single_v1_pilot4","3SUWZRL0MYE120AMW6YDD22UL4QE6A","23","0","NOVEMBER","4",,"0","4","9162",,,,,"0","2018-11-08 21:51:50","382145"
"A1I4GSXUC5KKKJ","cs_wg_mon_single_v1_pilot4","3OB0CAO74HQF5UBUSQ1BHWJ0CUBHYT","85","0","JULY","6",,"0","6","1773",,,,,"0","2018-11-08 21:51:50","382146"
"A079789010EVSPIBCSWFO","cs_wg_mon_single_v1_pilot4","39OWYR0EPKSVRYKOX0DBEB7NWFYFYT","82","0","AUGUST","2",,"0","2","1324",,,,,"0","2018-11-08 21:51:52","382147"
"A38ICX1LQIPIMN","cs_wg_mon_single_v1_pilot4","3IUZPWIU1O82IFH2JAMK9RECT3FWKD","114","0","APRIL","8",,"0","8","1562",,,,,"0","2018-11-08 21:51:52","382148"
" COPIEDAD3V6XGQWRD6E","cs_wg_mon_single_v1_pilot4","3BEFOD78W6ULZ1YLUGTHTCNPYFBM4M","47","0","NOVEMBER","10",,"0","10","4235",,,,,"0","2018-11-08 21:51:53","382149"
"A2VB7O0AZ7AO6A","cs_wg_mon_single_v1_pilot4","3FE2ERCCZX9VOX5G5G0IOENPKBMOPU","46","0","MARCH","8",,"0","8","3314",,,,,"0","2018-11-08 21:51:53","382150"
"A1I4GSXUC5KKKJ","cs_wg_mon_single_v1_pilot4","3OB0CAO74HQF5UBUSQ1BHWJ0CUBHYT","86","0","NOVEMBER","10",,"0","10","2302",,,,,"0","2018-11-08 21:51:54","382151"
"A079789010EVSPIBCSWFO","cs_wg_mon_single_v1_pilot4","39OWYR0EPKSVRYKOX0DBEB7NWFYFYT","83","0","JULY","12",,"0","12","1458",,,,,"0","2018-11-08 21:51:55","382152"
"A19F75QCU199K8","cs_wg_mon_single_v1_pilot4","3SB5N7Y3O35483KY0C8K44DFLHJG0S","76","0","FEBRUARY","12",,"0","12","3895",,,,,"0","2018-11-08 21:51:55","382153"
"A38ICX1LQIPIMN","cs_wg_mon_single_v1_pilot4","3IUZPWIU1O82IFH2JAMK9RECT3FWKD","115","0","DECEMBER","2",,"0","2","1503",,,,,"0","2018-11-08 21:51:55","382154"
"A2VB7O0AZ7AO6A","cs_wg_mon_single_v1_pilot4","3FE2ERCCZX9VOX5G5G0IOENPKBMOPU","47","0","MARCH","8",,"0","8","3188",,,,,"0","2018-11-08 21:51:58","382155"
"A1I4GSXUC5KKKJ","cs_wg_mon_single_v1_pilot4","3OB0CAO74HQF5UBUSQ1BHWJ0CUBHYT","87","0","MAY","6",,"0","6","1927",,,,,"0","2018-11-08 21:51:58","382156"
"A38ICX1LQIPIMN","cs_wg_mon_single_v1_pilot4","3IUZPWIU1O82IFH2JAMK9RECT3FWKD","116","0","AUGUST","8",,"0","8","1441",,,,,"0","2018-11-08 21:51:58","382157"
"A079789010EVSPIBCSWFO","cs_wg_mon_single_v1_pilot4","39OWYR0EPKSVRYKOX0DBEB7NWFYFYT","84","0","JULY","12",,"0","12","1417",,,,,"0","2018-11-08 21:51:58","382158"
"A368X8R9Y44CYM","cs_wg_mon_single_v1_pilot4","3SUWZRL0MYE120AMW6YDD22UL4QE6A","24","0","JANUARY","8",,"0","8","6972",,,,,"0","2018-11-08 21:51:59","382159"
"A19F75QCU199K8","cs_wg_mon_single_v1_pilot4","3SB5N7Y3O35483KY0C8K44DFLHJG0S","77","0","MARCH","6",,"0","6","3465",,,,,"0","2018-11-08 21:52:00","382160"
"A079789010EVSPIBCSWFO","cs_wg_mon_single_v1_pilot4","39OWYR0EPKSVRYKOX0DBEB7NWFYFYT","85","0","MAY","12",,"0","12","1458",,,,,"0","2018-11-08 21:52:01","382161"
"A1I4GSXUC5KKKJ","cs_wg_mon_single_v1_pilot4","3OB0CAO74HQF5UBUSQ1BHWJ0CUBHYT","88","0","JULY","6",,"0","6","1782",,,,,"0","2018-11-08 21:52:02","382162"
"A38ICX1LQIPIMN","cs_wg_mon_single_v1_pilot4","3IUZPWIU1O82IFH2JAMK9RECT3FWKD","117","0","JANUARY","6",,"0","4","3651",,,,,"0","2018-11-08 21:52:04","382163"
"A2VB7O0AZ7AO6A","cs_wg_mon_single_v1_pilot4","3FE2ERCCZX9VOX5G5G0IOENPKBMOPU","48","0","DECEMBER","10",,"0","10","3444",,,,,"0","2018-11-08 21:52:04","382164"
"A079789010EVSPIBCSWFO","cs_wg_mon_single_v1_pilot4","39OWYR0EPKSVRYKOX0DBEB7NWFYFYT","86","0","DECEMBER","10",,"0","10","1939",,,,,"0","2018-11-08 21:52:05","382165"
"A1I4GSXUC5KKKJ","cs_wg_mon_single_v1_pilot4","3OB0CAO74HQF5UBUSQ1BHWJ0CUBHYT","89","0","NOVEMBER","10",,"0","10","2455",,,,,"0","2018-11-08 21:52:06","382166"
"A19F75QCU199K8","cs_wg_mon_single_v1_pilot4","3SB5N7Y3O35483KY0C8K44DFLHJG0S","78","0","JUNE","10",,"0","10","5254",,,,,"0","2018-11-08 21:52:07","382167"
"A079789010EVSPIBCSWFO","cs_wg_mon_single_v1_pilot4","39OWYR0EPKSVRYKOX0DBEB7NWFYFYT","87","0","MAY","12",,"0","12","1396",,,,,"0","2018-11-08 21:52:08","382168"
"A38ICX1LQIPIMN","cs_wg_mon_single_v1_pilot4","3IUZPWIU1O82IFH2JAMK9RECT3FWKD","118","0","JANUARY","6",,"0","6","2215",,,,,"0","2018-11-08 21:52:08","382169"
"A1I4GSXUC5KKKJ","cs_wg_mon_single_v1_pilot4","3OB0CAO74HQF5UBUSQ1BHWJ0CUBHYT","90","0","DECEMBER","8",,"0","8","2147",,,,,"0","2018-11-08 21:52:10","382170"
"A368X8R9Y44CYM","cs_wg_mon_single_v1_pilot4","3SUWZRL0MYE120AMW6YDD22UL4QE6A","25","0","JANUARY","8",,"0","8","8213",,,,,"0","2018-11-08 21:52:10","382171"
"A079789010EVSPIBCSWFO","cs_wg_mon_single_v1_pilot4","39OWYR0EPKSVRYKOX0DBEB7NWFYFYT","88","0","APRIL","8",,"0","4","1653",,,,,"0","2018-11-08 21:52:11","382172"
"A2VB7O0AZ7AO6A","cs_wg_mon_single_v1_pilot4","3FE2ERCCZX9VOX5G5G0IOENPKBMOPU","49","0","OCTOBER","12",,"0","12","4244",,,,,"0","2018-11-08 21:52:11","382173"
" COPIEDAD3V6XGQWRD6E","cs_wg_mon_single_v1_pilot4","3BEFOD78W6ULZ1YLUGTHTCNPYFBM4M","48","0","AUGUST","12",,"0","8","10972",,,,,"0","2018-11-08 21:52:12","382174"
"A19F75QCU199K8","cs_wg_mon_single_v1_pilot4","3SB5N7Y3O35483KY0C8K44DFLHJG0S","79","0","APRIL","4",,"0","4","4591",,,,,"0","2018-11-08 21:52:14","382175"
"A079789010EVSPIBCSWFO","cs_wg_mon_single_v1_pilot4","39OWYR0EPKSVRYKOX0DBEB7NWFYFYT","89","0","APRIL","8",,"0","8","1390",,,,,"0","2018-11-08 21:52:14","382176"
"A38ICX1LQIPIMN","cs_wg_mon_single_v1_pilot4","3IUZPWIU1O82IFH2JAMK9RECT3FWKD","119","0","FEBRUARY","2",,"0","2","4102",,,,,"0","2018-11-08 21:52:14","382177"
"A1I4GSXUC5KKKJ","cs_wg_mon_single_v1_pilot4","3OB0CAO74HQF5UBUSQ1BHWJ0CUBHYT","91","0","OCTOBER","4",,"0","8","2606",,,,,"0","2018-11-08 21:52:14","382178"
" COPIEDAD3V6XGQWRD6E","cs_wg_mon_single_v1_pilot4","3BEFOD78W6ULZ1YLUGTHTCNPYFBM4M","49","0","JULY","2",,"0","2","2604",,,,,"0","2018-11-08 21:52:17","382179"
"A079789010EVSPIBCSWFO","cs_wg_mon_single_v1_pilot4","39OWYR0EPKSVRYKOX0DBEB7NWFYFYT","90","0","FEBRUARY","8",,"0","8","3032",,,,,"0","2018-11-08 21:52:18","382180"
"A368X8R9Y44CYM","cs_wg_mon_single_v1_pilot4","3SUWZRL0MYE120AMW6YDD22UL4QE6A","26","0","SEPTEMBER","2",,"0","2","6334",,,,,"0","2018-11-08 21:52:18","382181"
"A19F75QCU199K8","cs_wg_mon_single_v1_pilot4","3SB5N7Y3O35483KY0C8K44DFLHJG0S","80","0","DECEMBER","8",,"0","8","3312",,,,,"0","2018-11-08 21:52:19","382182"
"A1I4GSXUC5KKKJ","cs_wg_mon_single_v1_pilot4","3OB0CAO74HQF5UBUSQ1BHWJ0CUBHYT","92","0","SEPTEMBER","4",,"0","4","3359",,,,,"0","2018-11-08 21:52:19","382183"
"A2VB7O0AZ7AO6A","cs_wg_mon_single_v1_pilot4","3FE2ERCCZX9VOX5G5G0IOENPKBMOPU","50","0","APRIL","6",,"0","6","4787",,,,,"0","2018-11-08 21:52:19","382184"
"A079789010EVSPIBCSWFO","cs_wg_mon_single_v1_pilot4","39OWYR0EPKSVRYKOX0DBEB7NWFYFYT","91","0","MARCH","4",,"0","4","2567",,,,,"0","2018-11-08 21:52:22","382185"
" COPIEDAD3V6XGQWRD6E","cs_wg_mon_single_v1_pilot4","3BEFOD78W6ULZ1YLUGTHTCNPYFBM4M","50","0","SEPTEMBER","6",,"0","6","3588",,,,,"0","2018-11-08 21:52:23","382186"
"A19F75QCU199K8","cs_wg_mon_single_v1_pilot4","3SB5N7Y3O35483KY0C8K44DFLHJG0S","81","0","DECEMBER","8",,"0","8","2711",,,,,"0","2018-11-08 21:52:23","382187"
"A1I4GSXUC5KKKJ","cs_wg_mon_single_v1_pilot4","3OB0CAO74HQF5UBUSQ1BHWJ0CUBHYT","93","0","APRIL","2",,"0","2","3593",,,,,"0","2018-11-08 21:52:24","382188"
"A079789010EVSPIBCSWFO","cs_wg_mon_single_v1_pilot4","39OWYR0EPKSVRYKOX0DBEB7NWFYFYT","92","0","OCTOBER","10",,"0","10","3450",,,,,"0","2018-11-08 21:52:27","382189"
"A2VB7O0AZ7AO6A","cs_wg_mon_single_v1_pilot4","3FE2ERCCZX9VOX5G5G0IOENPKBMOPU","51","0","NOVEMBER","12",,"0","12","6002",,,,,"0","2018-11-08 21:52:28","382190"
"A368X8R9Y44CYM","cs_wg_mon_single_v1_pilot4","3SUWZRL0MYE120AMW6YDD22UL4QE6A","27","0","DECEMBER","12",,"0","12","7440",,,,,"0","2018-11-08 21:52:28","382191"
"A19F75QCU199K8","cs_wg_mon_single_v1_pilot4","3SB5N7Y3O35483KY0C8K44DFLHJG0S","82","0","JANUARY","2",,"0","6","4521",,,,,"0","2018-11-08 21:52:30","382192"
"A1I4GSXUC5KKKJ","cs_wg_mon_single_v1_pilot4","3OB0CAO74HQF5UBUSQ1BHWJ0CUBHYT","94","0","FEBRUARY","2",,"0","2","5574",,,,,"0","2018-11-08 21:52:31","382193"
"A2VB7O0AZ7AO6A","cs_wg_mon_single_v1_pilot4","3FE2ERCCZX9VOX5G5G0IOENPKBMOPU","52","0","MARCH","8",,"0","8","2932",,,,,"0","2018-11-08 21:52:33","382194"
"A079789010EVSPIBCSWFO","cs_wg_mon_single_v1_pilot4","39OWYR0EPKSVRYKOX0DBEB7NWFYFYT","93","0","MARCH","4",,"0","8","4351",,,,,"0","2018-11-08 21:52:34","382195"
"A19F75QCU199K8","cs_wg_mon_single_v1_pilot4","3SB5N7Y3O35483KY0C8K44DFLHJG0S","83","0","JANUARY","2",,"0","2","2018",,,,,"0","2018-11-08 21:52:34","382196"
" COPIEDAD3V6XGQWRD6E","cs_wg_mon_single_v1_pilot4","3BEFOD78W6ULZ1YLUGTHTCNPYFBM4M","51","0","APRIL","6",,"0","6","7570",,,,,"0","2018-11-08 21:52:35","382197"
"A1I4GSXUC5KKKJ","cs_wg_mon_single_v1_pilot4","3OB0CAO74HQF5UBUSQ1BHWJ0CUBHYT","95","0","MARCH","12",,"0","12","1862",,,,,"0","2018-11-08 21:52:35","382198"
"A079789010EVSPIBCSWFO","cs_wg_mon_single_v1_pilot4","39OWYR0EPKSVRYKOX0DBEB7NWFYFYT","94","0","JUNE","6",,"0","6","1298",,,,,"0","2018-11-08 21:52:36","382199"
"A368X8R9Y44CYM","cs_wg_mon_single_v1_pilot4","3SUWZRL0MYE120AMW6YDD22UL4QE6A","28","0","JULY","6",,"0","6","7545",,,,,"0","2018-11-08 21:52:38","382200"
"A1I4GSXUC5KKKJ","cs_wg_mon_single_v1_pilot4","3OB0CAO74HQF5UBUSQ1BHWJ0CUBHYT","96","0","DECEMBER","8",,"0","8","1966",,,,,"0","2018-11-08 21:52:39","382201"
"A079789010EVSPIBCSWFO","cs_wg_mon_single_v1_pilot4","39OWYR0EPKSVRYKOX0DBEB7NWFYFYT","95","0","AUGUST","2",,"0","2","2209",,,,,"0","2018-11-08 21:52:40","382202"
"A2VB7O0AZ7AO6A","cs_wg_mon_single_v1_pilot4","3FE2ERCCZX9VOX5G5G0IOENPKBMOPU","53","0","APRIL","6",,"0","6","3994",,,,,"0","2018-11-08 21:52:40","382203"
" COPIEDAD3V6XGQWRD6E","cs_wg_mon_single_v1_pilot4","3BEFOD78W6ULZ1YLUGTHTCNPYFBM4M","52","0","FEBRUARY","4",,"0","4","4596",,,,,"0","2018-11-08 21:52:42","382204"
"A079789010EVSPIBCSWFO","cs_wg_mon_single_v1_pilot4","39OWYR0EPKSVRYKOX0DBEB7NWFYFYT","96","0","SEPTEMBER","6",,"0","6","1455",,,,,"0","2018-11-08 21:52:43","382205"
"A1I4GSXUC5KKKJ","cs_wg_mon_single_v1_pilot4","3OB0CAO74HQF5UBUSQ1BHWJ0CUBHYT","97","0","AUGUST","10",,"0","10","3974",,,,,"0","2018-11-08 21:52:45","382206"
"A2VB7O0AZ7AO6A","cs_wg_mon_single_v1_pilot4","3FE2ERCCZX9VOX5G5G0IOENPKBMOPU","54","0","NOVEMBER","12",,"0","12","3136",,,,,"0","2018-11-08 21:52:45","382207"
" COPIEDAD3V6XGQWRD6E","cs_wg_mon_single_v1_pilot4","3BEFOD78W6ULZ1YLUGTHTCNPYFBM4M","53","0","NOVEMBER","10",,"0","10","2650",,,,,"0","2018-11-08 21:52:46","382208"
"A079789010EVSPIBCSWFO","cs_wg_mon_single_v1_pilot4","39OWYR0EPKSVRYKOX0DBEB7NWFYFYT","97","0","APRIL","8",,"0","8","2321",,,,,"0","2018-11-08 21:52:47","382209"
"A368X8R9Y44CYM","cs_wg_mon_single_v1_pilot4","3SUWZRL0MYE120AMW6YDD22UL4QE6A","29","0","MAY","10",,"0","10","7239",,,,,"0","2018-11-08 21:52:49","382210"
"A19F75QCU199K8","cs_wg_mon_single_v1_pilot4","3SB5N7Y3O35483KY0C8K44DFLHJG0S","84","0","MAY","2",,"0","4","13831",,,,,"0","2018-11-08 21:52:50","382211"
"A1I4GSXUC5KKKJ","cs_wg_mon_single_v1_pilot4","3OB0CAO74HQF5UBUSQ1BHWJ0CUBHYT","98","0","MAY","6",,"0","6","2972",,,,,"0","2018-11-08 21:52:50","382212"
"A079789010EVSPIBCSWFO","cs_wg_mon_single_v1_pilot4","39OWYR0EPKSVRYKOX0DBEB7NWFYFYT","98","0","DECEMBER","10",,"0","10","2226",,,,,"0","2018-11-08 21:52:50","382213"
"A2VB7O0AZ7AO6A","cs_wg_mon_single_v1_pilot4","3FE2ERCCZX9VOX5G5G0IOENPKBMOPU","55","0","MAY","4",,"0","4","3181",,,,,"0","2018-11-08 21:52:51","382214"
"A079789010EVSPIBCSWFO","cs_wg_mon_single_v1_pilot4","39OWYR0EPKSVRYKOX0DBEB7NWFYFYT","99","0","APRIL","8",,"0","8","1473",,,,,"0","2018-11-08 21:52:53","382215"
"A1I4GSXUC5KKKJ","cs_wg_mon_single_v1_pilot4","3OB0CAO74HQF5UBUSQ1BHWJ0CUBHYT","99","0","JUNE","8",,"0","6","3277",,,,,"0","2018-11-08 21:52:55","382216"
"A2VB7O0AZ7AO6A","cs_wg_mon_single_v1_pilot4","3FE2ERCCZX9VOX5G5G0IOENPKBMOPU","56","0","MARCH","8",,"0","8","3156",,,,,"0","2018-11-08 21:52:57","382217"
"A079789010EVSPIBCSWFO","cs_wg_mon_single_v1_pilot4","39OWYR0EPKSVRYKOX0DBEB7NWFYFYT","100","0","JANUARY","2",,"0","2","2347",,,,,"0","2018-11-08 21:52:57","382218"
"A1I4GSXUC5KKKJ","cs_wg_mon_single_v1_pilot4","3OB0CAO74HQF5UBUSQ1BHWJ0CUBHYT","100","0","MAY","6",,"0","6","1831",,,,,"0","2018-11-08 21:52:59","382219"
"A19F75QCU199K8","cs_wg_mon_single_v1_pilot4","3SB5N7Y3O35483KY0C8K44DFLHJG0S","85","0","FEBRUARY","12",,"0","12","3632",,,,,"0","2018-11-08 21:53:00","382220"
" COPIEDAD3V6XGQWRD6E","cs_wg_mon_single_v1_pilot4","3BEFOD78W6ULZ1YLUGTHTCNPYFBM4M","54","0","AUGUST","12",,"0","8","7100",,,,,"0","2018-11-08 21:53:01","382221"
"A368X8R9Y44CYM","cs_wg_mon_single_v1_pilot4","3SUWZRL0MYE120AMW6YDD22UL4QE6A","30","0","OCTOBER","10",,"0","10","10155",,,,,"0","2018-11-08 21:53:02","382222"
"A079789010EVSPIBCSWFO","cs_wg_mon_single_v1_pilot4","39OWYR0EPKSVRYKOX0DBEB7NWFYFYT","101","0","MARCH","4",,"0","4","3746",,,,,"0","2018-11-08 21:53:02","382223"
"A1I4GSXUC5KKKJ","cs_wg_mon_single_v1_pilot4","3OB0CAO74HQF5UBUSQ1BHWJ0CUBHYT","101","0","DECEMBER","8",,"0","8","2346",,,,,"0","2018-11-08 21:53:03","382224"
"A2VB7O0AZ7AO6A","cs_wg_mon_single_v1_pilot4","3FE2ERCCZX9VOX5G5G0IOENPKBMOPU","57","0","OCTOBER","12",,"0","12","4011",,,,,"0","2018-11-08 21:53:03","382225"
"A19F75QCU199K8","cs_wg_mon_single_v1_pilot4","3SB5N7Y3O35483KY0C8K44DFLHJG0S","86","0","OCTOBER","4",,"0","4","3088",,,,,"0","2018-11-08 21:53:05","382226"
"A079789010EVSPIBCSWFO","cs_wg_mon_single_v1_pilot4","39OWYR0EPKSVRYKOX0DBEB7NWFYFYT","102","0","JANUARY","2",,"0","2","1751",,,,,"0","2018-11-08 21:53:06","382227"
" COPIEDAD3V6XGQWRD6E","cs_wg_mon_single_v1_pilot4","3BEFOD78W6ULZ1YLUGTHTCNPYFBM4M","55","0","MAY","2",,"0","2","2731",,,,,"0","2018-11-08 21:53:06","382228"
"A1I4GSXUC5KKKJ","cs_wg_mon_single_v1_pilot4","3OB0CAO74HQF5UBUSQ1BHWJ0CUBHYT","102","0","OCTOBER","4",,"0","4","2982",,,,,"0","2018-11-08 21:53:07","382229"
"A19F75QCU199K8","cs_wg_mon_single_v1_pilot4","3SB5N7Y3O35483KY0C8K44DFLHJG0S","87","0","MAY","2",,"0","4","1319",,,,,"0","2018-11-08 21:53:08","382230"
"A079789010EVSPIBCSWFO","cs_wg_mon_single_v1_pilot4","39OWYR0EPKSVRYKOX0DBEB7NWFYFYT","103","0","JANUARY","2",,"0","2","1378",,,,,"0","2018-11-08 21:53:08","382231"
" COPIEDAD3V6XGQWRD6E","cs_wg_mon_single_v1_pilot4","3BEFOD78W6ULZ1YLUGTHTCNPYFBM4M","56","0","AUGUST","12",,"0","12","2452",,,,,"0","2018-11-08 21:53:11","382232"
"A368X8R9Y44CYM","cs_wg_mon_single_v1_pilot4","3SUWZRL0MYE120AMW6YDD22UL4QE6A","31","0","APRIL","6",,"0","6","6640",,,,,"0","2018-11-08 21:53:11","382233"
"A1I4GSXUC5KKKJ","cs_wg_mon_single_v1_pilot4","3OB0CAO74HQF5UBUSQ1BHWJ0CUBHYT","103","0","DECEMBER","8",,"0","8","2286",,,,,"0","2018-11-08 21:53:11","382234"
"A19F75QCU199K8","cs_wg_mon_single_v1_pilot4","3SB5N7Y3O35483KY0C8K44DFLHJG0S","88","0","OCTOBER","4",,"0","4","1606",,,,,"0","2018-11-08 21:53:11","382235"
"A079789010EVSPIBCSWFO","cs_wg_mon_single_v1_pilot4","39OWYR0EPKSVRYKOX0DBEB7NWFYFYT","104","0","FEBRUARY","8",,"0","8","2829",,,,,"0","2018-11-08 21:53:13","382236"
"A2VB7O0AZ7AO6A","cs_wg_mon_single_v1_pilot4","3FE2ERCCZX9VOX5G5G0IOENPKBMOPU","58","0","AUGUST","2",,"0","2","8719",,,,,"0","2018-11-08 21:53:14","382237"
" COPIEDAD3V6XGQWRD6E","cs_wg_mon_single_v1_pilot4","3BEFOD78W6ULZ1YLUGTHTCNPYFBM4M","57","0","JUNE","8",,"0","8","2451",,,,,"0","2018-11-08 21:53:15","382238"
"A19F75QCU199K8","cs_wg_mon_single_v1_pilot4","3SB5N7Y3O35483KY0C8K44DFLHJG0S","89","0","MAY","2",,"0","2","2463",,,,,"0","2018-11-08 21:53:16","382239"
"A079789010EVSPIBCSWFO","cs_wg_mon_single_v1_pilot4","39OWYR0EPKSVRYKOX0DBEB7NWFYFYT","105","0","AUGUST","2",,"0","2","2647",,,,,"0","2018-11-08 21:53:17","382240"
"A1I4GSXUC5KKKJ","cs_wg_mon_single_v1_pilot4","3OB0CAO74HQF5UBUSQ1BHWJ0CUBHYT","104","0","SEPTEMBER","4",,"0","4","3707",,,,,"0","2018-11-08 21:53:17","382241"
"A368X8R9Y44CYM","cs_wg_mon_single_v1_pilot4","3SUWZRL0MYE120AMW6YDD22UL4QE6A","32","0","NOVEMBER","4",,"0","4","6493",,,,,"0","2018-11-08 21:53:20","382242"
"A079789010EVSPIBCSWFO","cs_wg_mon_single_v1_pilot4","39OWYR0EPKSVRYKOX0DBEB7NWFYFYT","106","0","DECEMBER","10",,"0","10","1974",,,,,"0","2018-11-08 21:53:20","382243"
" COPIEDAD3V6XGQWRD6E","cs_wg_mon_single_v1_pilot4","3BEFOD78W6ULZ1YLUGTHTCNPYFBM4M","58","0","JUNE","8",,"0","8","3403",,,,,"0","2018-11-08 21:53:20","382244"
"A2VB7O0AZ7AO6A","cs_wg_mon_single_v1_pilot4","3FE2ERCCZX9VOX5G5G0IOENPKBMOPU","59","0","JULY","8",,"0","8","4883",,,,,"0","2018-11-08 21:53:21","382245"
"A19F75QCU199K8","cs_wg_mon_single_v1_pilot4","3SB5N7Y3O35483KY0C8K44DFLHJG0S","90","0","MARCH","6",,"0","8","5408",,,,,"0","2018-11-08 21:53:23","382246"
"A079789010EVSPIBCSWFO","cs_wg_mon_single_v1_pilot4","39OWYR0EPKSVRYKOX0DBEB7NWFYFYT","107","0","JANUARY","2",,"0","2","1842",,,,,"0","2018-11-08 21:53:24","382247"
" COPIEDAD3V6XGQWRD6E","cs_wg_mon_single_v1_pilot4","3BEFOD78W6ULZ1YLUGTHTCNPYFBM4M","59","0","JUNE","8",,"0","8","2243",,,,,"0","2018-11-08 21:53:25","382248"
"A1I4GSXUC5KKKJ","cs_wg_mon_single_v1_pilot4","3OB0CAO74HQF5UBUSQ1BHWJ0CUBHYT","105","0","JUNE","8",,"0","8","5987",,,,,"0","2018-11-08 21:53:25","382249"
"A368X8R9Y44CYM","cs_wg_mon_single_v1_pilot4","3SUWZRL0MYE120AMW6YDD22UL4QE6A","33","0","JULY","6",,"0","6","6372",,,,,"0","2018-11-08 21:53:29","382250"
" COPIEDAD3V6XGQWRD6E","cs_wg_mon_single_v1_pilot4","3BEFOD78W6ULZ1YLUGTHTCNPYFBM4M","60","0","MAY","2",,"0","2","2163",,,,,"0","2018-11-08 21:53:29","382251"
"A1I4GSXUC5KKKJ","cs_wg_mon_single_v1_pilot4","3OB0CAO74HQF5UBUSQ1BHWJ0CUBHYT","106","0","JANUARY","12",,"0","12","1983",,,,,"0","2018-11-08 21:53:29","382252"
"A19F75QCU199K8","cs_wg_mon_single_v1_pilot4","3SB5N7Y3O35483KY0C8K44DFLHJG0S","91","0","JUNE","10",,"0","10","4050",,,,,"0","2018-11-08 21:53:29","382253"
"A2VB7O0AZ7AO6A","cs_wg_mon_single_v1_pilot4","3FE2ERCCZX9VOX5G5G0IOENPKBMOPU","60","0","JUNE","4",,"0","6","7566",,,,,"0","2018-11-08 21:53:32","382254"
"A079789010EVSPIBCSWFO","cs_wg_mon_single_v1_pilot4","39OWYR0EPKSVRYKOX0DBEB7NWFYFYT","108","0","OCTOBER","10",,"0","10","5939",,,,,"0","2018-11-08 21:53:32","382255"
"A19F75QCU199K8","cs_wg_mon_single_v1_pilot4","3SB5N7Y3O35483KY0C8K44DFLHJG0S","92","0","MAY","2",,"0","2","2061",,,,,"0","2018-11-08 21:53:33","382256"
" COPIEDAD3V6XGQWRD6E","cs_wg_mon_single_v1_pilot4","3BEFOD78W6ULZ1YLUGTHTCNPYFBM4M","61","0","JULY","2",,"0","2","2860",,,,,"0","2018-11-08 21:53:33","382257"
"A1I4GSXUC5KKKJ","cs_wg_mon_single_v1_pilot4","3OB0CAO74HQF5UBUSQ1BHWJ0CUBHYT","107","0","FEBRUARY","2",,"0","4","2911",,,,,"0","2018-11-08 21:53:34","382258"
"A079789010EVSPIBCSWFO","cs_wg_mon_single_v1_pilot4","39OWYR0EPKSVRYKOX0DBEB7NWFYFYT","109","0","JULY","12",,"0","12","2395",,,,,"0","2018-11-08 21:53:36","382259"
" COPIEDAD3V6XGQWRD6E","cs_wg_mon_single_v1_pilot4","3BEFOD78W6ULZ1YLUGTHTCNPYFBM4M","62","0","MAY","2",,"0","2","1900",,,,,"0","2018-11-08 21:53:37","382260"
"A19F75QCU199K8","cs_wg_mon_single_v1_pilot4","3SB5N7Y3O35483KY0C8K44DFLHJG0S","93","0","FEBRUARY","12",,"0","12","2798",,,,,"0","2018-11-08 21:53:38","382261"
"A2VB7O0AZ7AO6A","cs_wg_mon_single_v1_pilot4","3FE2ERCCZX9VOX5G5G0IOENPKBMOPU","61","0","AUGUST","2",,"0","2","3994",,,,,"0","2018-11-08 21:53:38","382262"
"A1I4GSXUC5KKKJ","cs_wg_mon_single_v1_pilot4","3OB0CAO74HQF5UBUSQ1BHWJ0CUBHYT","108","0","FEBRUARY","2",,"0","2","2730",,,,,"0","2018-11-08 21:53:38","382263"
"A079789010EVSPIBCSWFO","cs_wg_mon_single_v1_pilot4","39OWYR0EPKSVRYKOX0DBEB7NWFYFYT","110","0","MAY","12",,"0","12","1405",,,,,"0","2018-11-08 21:53:38","382264"
"A368X8R9Y44CYM","cs_wg_mon_single_v1_pilot4","3SUWZRL0MYE120AMW6YDD22UL4QE6A","34","0","OCTOBER","10",,"0","10","7414",,,,,"0","2018-11-08 21:53:39","382265"
"A1M0BTI1P8MAQU","cs_wg_mon_single_v1_pilot4","3N8OEVH1FRRD3XTFQGN3ZEIZA6QOOD","0","0","AUGUST","4",,"0","4","11057",,,,,"1","2018-11-08 21:53:40","382266"
" COPIEDAD3V6XGQWRD6E","cs_wg_mon_single_v1_pilot4","3BEFOD78W6ULZ1YLUGTHTCNPYFBM4M","63","0","FEBRUARY","4",,"0","4","2085",,,,,"0","2018-11-08 21:53:41","382267"
"A079789010EVSPIBCSWFO","cs_wg_mon_single_v1_pilot4","39OWYR0EPKSVRYKOX0DBEB7NWFYFYT","111","0","MARCH","4",,"0","4","2723",,,,,"0","2018-11-08 21:53:43","382268"
"A1I4GSXUC5KKKJ","cs_wg_mon_single_v1_pilot4","3OB0CAO74HQF5UBUSQ1BHWJ0CUBHYT","109","0","APRIL","2",,"0","2","3322",,,,,"0","2018-11-08 21:53:43","382269"
"A2VB7O0AZ7AO6A","cs_wg_mon_single_v1_pilot4","3FE2ERCCZX9VOX5G5G0IOENPKBMOPU","62","0","AUGUST","2",,"0","2","2930",,,,,"0","2018-11-08 21:53:43","382270"
"A19F75QCU199K8","cs_wg_mon_single_v1_pilot4","3SB5N7Y3O35483KY0C8K44DFLHJG0S","94","0","MARCH","6",,"0","6","5210",,,,,"0","2018-11-08 21:53:45","382271"
"A079789010EVSPIBCSWFO","cs_wg_mon_single_v1_pilot4","39OWYR0EPKSVRYKOX0DBEB7NWFYFYT","112","0","DECEMBER","10",,"0","10","2082",,,,,"0","2018-11-08 21:53:46","382272"
"A368X8R9Y44CYM","cs_wg_mon_single_v1_pilot4","3SUWZRL0MYE120AMW6YDD22UL4QE6A","35","0","MARCH","8",,"0","8","5712",,,,,"0","2018-11-08 21:53:47","382273"
"A1I4GSXUC5KKKJ","cs_wg_mon_single_v1_pilot4","3OB0CAO74HQF5UBUSQ1BHWJ0CUBHYT","110","0","JULY","6",,"0","6","3030",,,,,"0","2018-11-08 21:53:48","382274"
" COPIEDAD3V6XGQWRD6E","cs_wg_mon_single_v1_pilot4","3BEFOD78W6ULZ1YLUGTHTCNPYFBM4M","64","0","FEBRUARY","4",,"0","4","4340",,,,,"0","2018-11-08 21:53:48","382275"
"A1M0BTI1P8MAQU","cs_wg_mon_single_v1_pilot4","3N8OEVH1FRRD3XTFQGN3ZEIZA6QOOD","1","0","JANUARY","10",,"0","10","6256",,,,,"1","2018-11-08 21:53:49","382276"
"A079789010EVSPIBCSWFO","cs_wg_mon_single_v1_pilot4","39OWYR0EPKSVRYKOX0DBEB7NWFYFYT","113","0","JULY","12",,"0","12","1964",,,,,"0","2018-11-08 21:53:50","382277"
"A19F75QCU199K8","cs_wg_mon_single_v1_pilot4","3SB5N7Y3O35483KY0C8K44DFLHJG0S","95","0","JUNE","10",,"0","10","3575",,,,,"0","2018-11-08 21:53:50","382278"
"A2VB7O0AZ7AO6A","cs_wg_mon_single_v1_pilot4","3FE2ERCCZX9VOX5G5G0IOENPKBMOPU","63","0","MAY","4",,"0","4","3752",,,,,"0","2018-11-08 21:53:51","382279"
"A1I4GSXUC5KKKJ","cs_wg_mon_single_v1_pilot4","3OB0CAO74HQF5UBUSQ1BHWJ0CUBHYT","111","0","DECEMBER","8",,"0","8","2452",,,,,"0","2018-11-08 21:53:52","382280"
" COPIEDAD3V6XGQWRD6E","cs_wg_mon_single_v1_pilot4","3BEFOD78W6ULZ1YLUGTHTCNPYFBM4M","65","0","MAY","2",,"0","2","2877",,,,,"0","2018-11-08 21:53:53","382281"
"A1M0BTI1P8MAQU","cs_wg_mon_single_v1_pilot4","3N8OEVH1FRRD3XTFQGN3ZEIZA6QOOD","2","0","MARCH","8",,"0","8","2906",,,,,"1","2018-11-08 21:53:54","382282"
"A079789010EVSPIBCSWFO","cs_wg_mon_single_v1_pilot4","39OWYR0EPKSVRYKOX0DBEB7NWFYFYT","114","0","FEBRUARY","8",,"0","8","2864",,,,,"0","2018-11-08 21:53:54","382283"
"A1I4GSXUC5KKKJ","cs_wg_mon_single_v1_pilot4","3OB0CAO74HQF5UBUSQ1BHWJ0CUBHYT","112","0","MAY","6",,"0","6","2034",,,,,"0","2018-11-08 21:53:55","382284"
"A2VB7O0AZ7AO6A","cs_wg_mon_single_v1_pilot4","3FE2ERCCZX9VOX5G5G0IOENPKBMOPU","64","0","FEBRUARY","10",,"0","10","3418",,,,,"0","2018-11-08 21:53:57","382285"
"A19F75QCU199K8","cs_wg_mon_single_v1_pilot4","3SB5N7Y3O35483KY0C8K44DFLHJG0S","96","0","OCTOBER","4",,"0","6","4608",,,,,"0","2018-11-08 21:53:57","382286"
"A368X8R9Y44CYM","cs_wg_mon_single_v1_pilot4","3SUWZRL0MYE120AMW6YDD22UL4QE6A","36","0","MAY","10",,"0","10","7090",,,,,"0","2018-11-08 21:53:58","382287"
"A079789010EVSPIBCSWFO","cs_wg_mon_single_v1_pilot4","39OWYR0EPKSVRYKOX0DBEB7NWFYFYT","115","0","AUGUST","2",,"0","2","2038",,,,,"0","2018-11-08 21:53:58","382288"
" COPIEDAD3V6XGQWRD6E","cs_wg_mon_single_v1_pilot4","3BEFOD78W6ULZ1YLUGTHTCNPYFBM4M","66","0","DECEMBER","10",,"0","10","2903",,,,,"0","2018-11-08 21:53:58","382289"
"A1I4GSXUC5KKKJ","cs_wg_mon_single_v1_pilot4","3OB0CAO74HQF5UBUSQ1BHWJ0CUBHYT","113","0","APRIL","2",,"0","2","1935",,,,,"0","2018-11-08 21:53:59","382290"
"A19F75QCU199K8","cs_wg_mon_single_v1_pilot4","3SB5N7Y3O35483KY0C8K44DFLHJG0S","97","0","APRIL","4",,"0","4","2610",,,,,"0","2018-11-08 21:54:01","382291"
"A1M0BTI1P8MAQU","cs_wg_mon_single_v1_pilot4","3N8OEVH1FRRD3XTFQGN3ZEIZA6QOOD","3","0","DECEMBER","10",,"0","10","4909",,,,,"1","2018-11-08 21:54:01","382292"
" COPIEDAD3V6XGQWRD6E","cs_wg_mon_single_v1_pilot4","3BEFOD78W6ULZ1YLUGTHTCNPYFBM4M","67","0","APRIL","6",,"0","6","2788",,,,,"0","2018-11-08 21:54:02","382293"
"A079789010EVSPIBCSWFO","cs_wg_mon_single_v1_pilot4","39OWYR0EPKSVRYKOX0DBEB7NWFYFYT","116","0","JUNE","6",,"0","6","2985",,,,,"0","2018-11-08 21:54:03","382294"
"A2VB7O0AZ7AO6A","cs_wg_mon_single_v1_pilot4","3FE2ERCCZX9VOX5G5G0IOENPKBMOPU","65","0","JULY","8",,"0","8","4894",,,,,"0","2018-11-08 21:54:03","382295"
"A1I4GSXUC5KKKJ","cs_wg_mon_single_v1_pilot4","3OB0CAO74HQF5UBUSQ1BHWJ0CUBHYT","114","0","OCTOBER","4",,"0","8","3066",,,,,"0","2018-11-08 21:54:04","382296"
"A079789010EVSPIBCSWFO","cs_wg_mon_single_v1_pilot4","39OWYR0EPKSVRYKOX0DBEB7NWFYFYT","117","0","JULY","12",,"0","12","1974",,,,,"0","2018-11-08 21:54:07","382297"
"A1M0BTI1P8MAQU","cs_wg_mon_single_v1_pilot4","3N8OEVH1FRRD3XTFQGN3ZEIZA6QOOD","4","0","AUGUST","4",,"0","4","2996",,,,,"1","2018-11-08 21:54:07","382298"
"A1I4GSXUC5KKKJ","cs_wg_mon_single_v1_pilot4","3OB0CAO74HQF5UBUSQ1BHWJ0CUBHYT","115","0","JANUARY","12",,"0","12","1774",,,,,"0","2018-11-08 21:54:07","382299"
