"subject","version","assignmentId","trial","trial_type","word","value","alt","value2","choice","rt","resp","resp2","resp3","resp4","stamp","id"
"A2OC2MOL9TJ8BN","cs_wg_full_v4_conf_pilot1","37FMASSAYCSJOHT3OG5C9XMDZTFBI4","0",NULL,"FEBRUARY","4","OCTOBER","1","0","5153","February","4","January","1","2018-07-19 16:59:58","493864"
"A2OC2MOL9TJ8BN","cs_wg_full_v4_conf_pilot1","37FMASSAYCSJOHT3OG5C9XMDZTFBI4","1",NULL,"MARCH","12","FEBRUARY","4","1","4944","March","12","February","4","2018-07-19 17:00:19","493865"
"A2OC2MOL9TJ8BN","cs_wg_full_v4_conf_pilot1","37FMASSAYCSJOHT3OG5C9XMDZTFBI4","2",NULL,"OCTOBER","1","MARCH","12","0","3840","October","1","March","12","2018-07-19 17:00:35","493866"
"A2OC2MOL9TJ8BN","cs_wg_full_v4_conf_pilot1","37FMASSAYCSJOHT3OG5C9XMDZTFBI4","3",NULL,"OCTOBER","1","FEBRUARY","4","1","3301","October","1","February","4","2018-07-19 17:00:48","493867"
"A2OC2MOL9TJ8BN","cs_wg_full_v4_conf_pilot1","37FMASSAYCSJOHT3OG5C9XMDZTFBI4","4",NULL,"DECEMBER","6","JANUARY","9","0","3043","December","6","January","4","2018-07-19 17:01:02","493868"
"A6SKM7JAK74D5","cs_wg_full_v4_conf_pilot1","345LHZDEDXTJUDKQ34FKAHCC5WP3UD","0",NULL,"APRIL","7","AUGUST","1","1","6053","April","7","August","1","2018-07-19 17:01:06","493869"
"A3Q7I9RK9P1DE3","cs_wg_full_v4_conf_pilot1","3TMFV4NEP8FINEF1ALPHJM5K6YRW8W","0",NULL,"MARCH","9","AUGUST","7","0","4124","March","9","August","7","2018-07-19 17:01:23","493870"
"A2OC2MOL9TJ8BN","cs_wg_full_v4_conf_pilot1","37FMASSAYCSJOHT3OG5C9XMDZTFBI4","5",NULL,"JANUARY","9","APRIL","11","1","9445","January","9","April","11","2018-07-19 17:01:25","493871"
"A6SKM7JAK74D5","cs_wg_full_v4_conf_pilot1","345LHZDEDXTJUDKQ34FKAHCC5WP3UD","1",NULL,"MARCH","10","JUNE","11","1","3385","March","1","June","10","2018-07-19 17:01:37","493872"
"A3Q7I9RK9P1DE3","cs_wg_full_v4_conf_pilot1","3TMFV4NEP8FINEF1ALPHJM5K6YRW8W","1",NULL,"APRIL","5","JANUARY","3","1","4534","April","5","January","3","2018-07-19 17:01:41","493873"
"A2OC2MOL9TJ8BN","cs_wg_full_v4_conf_pilot1","37FMASSAYCSJOHT3OG5C9XMDZTFBI4","6",NULL,"NOVEMBER","5","MAY","3","1","18340","November","5","May","3","2018-07-19 17:01:54","493874"
"A6SKM7JAK74D5","cs_wg_full_v4_conf_pilot1","345LHZDEDXTJUDKQ34FKAHCC5WP3UD","2",NULL,"NOVEMBER","6","APRIL","7","1","5629","November","6","April","7","2018-07-19 17:02:01","493875"
"A3Q7I9RK9P1DE3","cs_wg_full_v4_conf_pilot1","3TMFV4NEP8FINEF1ALPHJM5K6YRW8W","2",NULL,"AUGUST","7","JANUARY","3","0","5141","August","7","January","3","2018-07-19 17:02:06","493876"
"A2OC2MOL9TJ8BN","cs_wg_full_v4_conf_pilot1","37FMASSAYCSJOHT3OG5C9XMDZTFBI4","7",NULL,"OCTOBER","1","JUNE","2","1","2622","October","1","June","2","2018-07-19 17:02:06","493877"
"A2OC2MOL9TJ8BN","cs_wg_full_v4_conf_pilot1","37FMASSAYCSJOHT3OG5C9XMDZTFBI4","8",NULL,"MARCH","12","APRIL","11","0","2277","March","12","June","9","2018-07-19 17:02:19","493878"
"A2OC2MOL9TJ8BN","cs_wg_full_v4_conf_pilot1","37FMASSAYCSJOHT3OG5C9XMDZTFBI4","9",NULL,"JULY","7","AUGUST","10","0","2271","July","7","August","12","2018-07-19 17:02:32","493879"
"A2OC2MOL9TJ8BN","cs_wg_full_v4_conf_pilot1","37FMASSAYCSJOHT3OG5C9XMDZTFBI4","10",NULL,"DECEMBER","6","APRIL","11","1","2655","December","6","April","11","2018-07-19 17:02:44","493880"
"A6SKM7JAK74D5","cs_wg_full_v4_conf_pilot1","345LHZDEDXTJUDKQ34FKAHCC5WP3UD","3",NULL,"DECEMBER","4","NOVEMBER","6","0","19799","December","6","November","7","2018-07-19 17:02:53","493881"
"A3AV0VB57J8RXD","cs_wg_full_v4_conf_pilot1","33F859I566EJSMIJIYNR9LLYZG0BHB","0",NULL,"OCTOBER","9","AUGUST","7","0","5949","Otober","9","August","7","2018-07-19 17:02:53","493882"
"A2OC2MOL9TJ8BN","cs_wg_full_v4_conf_pilot1","37FMASSAYCSJOHT3OG5C9XMDZTFBI4","11",NULL,"SEPTEMBER","8","JANUARY","9","1","2541","September","8","April","9","2018-07-19 17:02:58","493883"
"A2OC2MOL9TJ8BN","cs_wg_full_v4_conf_pilot1","37FMASSAYCSJOHT3OG5C9XMDZTFBI4","12",NULL,"JULY","7","OCTOBER","1","0","2520","July","7","October","4","2018-07-19 17:03:11","493884"
"A6SKM7JAK74D5","cs_wg_full_v4_conf_pilot1","345LHZDEDXTJUDKQ34FKAHCC5WP3UD","4",NULL,"MAY","9","JANUARY","5","0","4477","May","9","January","5","2018-07-19 17:03:16","493885"
"A2OC2MOL9TJ8BN","cs_wg_full_v4_conf_pilot1","37FMASSAYCSJOHT3OG5C9XMDZTFBI4","13",NULL,"OCTOBER","1","NOVEMBER","5","0","1327","October","1","November","5","2018-07-19 17:03:23","493886"
"A3AV0VB57J8RXD","cs_wg_full_v4_conf_pilot1","33F859I566EJSMIJIYNR9LLYZG0BHB","1",NULL,"FEBRUARY","1","JANUARY","3","0","2660","January","1","Februaty","3","2018-07-19 17:03:27","493887"
"A2OC2MOL9TJ8BN","cs_wg_full_v4_conf_pilot1","37FMASSAYCSJOHT3OG5C9XMDZTFBI4","14",NULL,"JUNE","2","JANUARY","9","0","5486","June","2","January","5","2018-07-19 17:03:39","493888"
"A6SKM7JAK74D5","cs_wg_full_v4_conf_pilot1","345LHZDEDXTJUDKQ34FKAHCC5WP3UD","5",NULL,"NOVEMBER","6","JUNE","11","1","3508","November","6","June","11","2018-07-19 17:03:41","493889"
"A3FGT6EU39C6S4","cs_wg_full_v4_conf_pilot1","3VBEN272MK049C4A9ER4EAJXO49GSI","0",NULL,"SEPTEMBER","2","NOVEMBER","5","1","7805","September","2","November","5","2018-07-19 17:03:55","493890"
"A2OC2MOL9TJ8BN","cs_wg_full_v4_conf_pilot1","37FMASSAYCSJOHT3OG5C9XMDZTFBI4","15",NULL,"NOVEMBER","5","MARCH","12","1","4037","November","5","March","12","2018-07-19 17:03:57","493891"
"A3AV0VB57J8RXD","cs_wg_full_v4_conf_pilot1","33F859I566EJSMIJIYNR9LLYZG0BHB","2",NULL,"NOVEMBER","2","JULY","11","1","5802","november","2","July","11","2018-07-19 17:04:01","493892"
"A2OC2MOL9TJ8BN","cs_wg_full_v4_conf_pilot1","37FMASSAYCSJOHT3OG5C9XMDZTFBI4","16",NULL,"JUNE","2","FEBRUARY","4","0","1973","June","2","February","4","2018-07-19 17:04:09","493893"
"A1FTTOECAA04JO","cs_wg_full_v4_conf_pilot1","3SUWZRL0MYE120AMW6YDD22TTZX6E5","0",NULL,"OCTOBER","8","JULY","2","0","4183","OCTOBER ","8","JULY","2","2018-07-19 17:04:12","493894"
"A6SKM7JAK74D5","cs_wg_full_v4_conf_pilot1","345LHZDEDXTJUDKQ34FKAHCC5WP3UD","6",NULL,"FEBRUARY","3","SEPTEMBER","8","0","8045","February","8","September","11","2018-07-19 17:04:19","493895"
"A2OC2MOL9TJ8BN","cs_wg_full_v4_conf_pilot1","37FMASSAYCSJOHT3OG5C9XMDZTFBI4","17",NULL,"APRIL","11","FEBRUARY","4","0","1949","April","11","February","4","2018-07-19 17:04:21","493896"
"A3AV0VB57J8RXD","cs_wg_full_v4_conf_pilot1","33F859I566EJSMIJIYNR9LLYZG0BHB","3",NULL,"JUNE","12","DECEMBER","8","0","6873","june","12","december","8","2018-07-19 17:04:25","493897"
"A2OC2MOL9TJ8BN","cs_wg_full_v4_conf_pilot1","37FMASSAYCSJOHT3OG5C9XMDZTFBI4","18",NULL,"APRIL","11","AUGUST","10","0","1044","April","11","August","4","2018-07-19 17:04:31","493898"
"A3FGT6EU39C6S4","cs_wg_full_v4_conf_pilot1","3VBEN272MK049C4A9ER4EAJXO49GSI","1",NULL,"JUNE","6","APRIL","4","1","8430","June","6","April","4","2018-07-19 17:04:33","493899"
"A2OC2MOL9TJ8BN","cs_wg_full_v4_conf_pilot1","37FMASSAYCSJOHT3OG5C9XMDZTFBI4","19",NULL,"MAY","3","DECEMBER","6","0","688","May","3","December","6","2018-07-19 17:04:41","493900"
"A1FTTOECAA04JO","cs_wg_full_v4_conf_pilot1","3SUWZRL0MYE120AMW6YDD22TTZX6E5","1",NULL,"MARCH","5","JANUARY","10","1","7012","MARCH","5","JANUARY","10","2018-07-19 17:04:49","493901"
"A3AV0VB57J8RXD","cs_wg_full_v4_conf_pilot1","33F859I566EJSMIJIYNR9LLYZG0BHB","4",NULL,"OCTOBER","9","FEBRUARY","1","1","3812","october","9","february","1","2018-07-19 17:04:49","493902"
"A2OC2MOL9TJ8BN","cs_wg_full_v4_conf_pilot1","37FMASSAYCSJOHT3OG5C9XMDZTFBI4","20",NULL,"JULY","7","DECEMBER","6","0","916","July","7","December","6","2018-07-19 17:04:51","493903"
"A3FGT6EU39C6S4","cs_wg_full_v4_conf_pilot1","3VBEN272MK049C4A9ER4EAJXO49GSI","2",NULL,"FEBRUARY","11","JANUARY","7","1","3385",,,,,"2018-07-19 17:04:56","493904"
"A6SKM7JAK74D5","cs_wg_full_v4_conf_pilot1","345LHZDEDXTJUDKQ34FKAHCC5WP3UD","7",NULL,"APRIL","7","JUNE","11","1","21775","April","7","July","11","2018-07-19 17:05:03","493905"
"A2OC2MOL9TJ8BN","cs_wg_full_v4_conf_pilot1","37FMASSAYCSJOHT3OG5C9XMDZTFBI4","21",NULL,"SEPTEMBER","8","AUGUST","10","0","1017","September","8","August","10","2018-07-19 17:05:03","493906"
"A3AV0VB57J8RXD","cs_wg_full_v4_conf_pilot1","33F859I566EJSMIJIYNR9LLYZG0BHB","5",NULL,"OCTOBER","9","JULY","11","0","3694","october","9","July","11","2018-07-19 17:05:10","493907"
"A2OC2MOL9TJ8BN","cs_wg_full_v4_conf_pilot1","37FMASSAYCSJOHT3OG5C9XMDZTFBI4","22",NULL,"MAY","3","SEPTEMBER","8","0","1156","May","3","September","8","2018-07-19 17:05:13","493908"
"A6SKM7JAK74D5","cs_wg_full_v4_conf_pilot1","345LHZDEDXTJUDKQ34FKAHCC5WP3UD","8",NULL,"JULY","2","OCTOBER","12","0","4401","July ","2","October","11","2018-07-19 17:05:27","493909"
"A2OC2MOL9TJ8BN","cs_wg_full_v4_conf_pilot1","37FMASSAYCSJOHT3OG5C9XMDZTFBI4","23",NULL,"AUGUST","10","MARCH","12","1","2485","August","10","March","12","2018-07-19 17:05:28","493910"
"A3AV0VB57J8RXD","cs_wg_full_v4_conf_pilot1","33F859I566EJSMIJIYNR9LLYZG0BHB","6",NULL,"APRIL","10","MARCH","6","1","8072","april","10","march","6
","2018-07-19 17:05:32","493911"
"A2OC2MOL9TJ8BN","cs_wg_full_v4_conf_pilot1","37FMASSAYCSJOHT3OG5C9XMDZTFBI4","24",NULL,"JUNE","2","JULY","7","0","1033","June","2","July","7","2018-07-19 17:05:38","493912"
"A6SKM7JAK74D5","cs_wg_full_v4_conf_pilot1","345LHZDEDXTJUDKQ34FKAHCC5WP3UD","9",NULL,"JANUARY","5","NOVEMBER","6","1","5536","January","5","November","6","2018-07-19 17:05:51","493913"
"A3AV0VB57J8RXD","cs_wg_full_v4_conf_pilot1","33F859I566EJSMIJIYNR9LLYZG0BHB","7",NULL,"JULY","11","SEPTEMBER","4","0","2471","july","11","september","4","2018-07-19 17:05:51","493914"
"A2OC2MOL9TJ8BN","cs_wg_full_v4_conf_pilot1","37FMASSAYCSJOHT3OG5C9XMDZTFBI4","25",NULL,"FEBRUARY","4","MAY","3","0","2605","February","4","May","2","2018-07-19 17:05:53","493915"
"A3FGT6EU39C6S4","cs_wg_full_v4_conf_pilot1","3VBEN272MK049C4A9ER4EAJXO49GSI","3",NULL,"OCTOBER","12","MAY","10","1","3221",,,,,"2018-07-19 17:05:55","493916"
"A3FGT6EU39C6S4","cs_wg_full_v4_conf_pilot1","3VBEN272MK049C4A9ER4EAJXO49GSI","4",NULL,"JANUARY","7","JUNE","6","1","390",,,,,"2018-07-19 17:06:01","493917"
"A3FGT6EU39C6S4","cs_wg_full_v4_conf_pilot1","3VBEN272MK049C4A9ER4EAJXO49GSI","5",NULL,"NOVEMBER","5","SEPTEMBER","2","0","214",,,,,"2018-07-19 17:06:05","493918"
"A2OC2MOL9TJ8BN","cs_wg_full_v4_conf_pilot1","37FMASSAYCSJOHT3OG5C9XMDZTFBI4","26",NULL,"MAY","3","JANUARY","9","0","1512","May","3","January","9","2018-07-19 17:06:05","493919"
"A1FTTOECAA04JO","cs_wg_full_v4_conf_pilot1","3SUWZRL0MYE120AMW6YDD22TTZX6E5","2",NULL,"MAY","11","AUGUST","4","0","10421","MAY","11","AUGUST","4","2018-07-19 17:06:09","493920"
"A3FGT6EU39C6S4","cs_wg_full_v4_conf_pilot1","3VBEN272MK049C4A9ER4EAJXO49GSI","6",NULL,"FEBRUARY","11","DECEMBER","1","1","221",,,,,"2018-07-19 17:06:11","493921"
"A1VV2UWNLV3WC1","cs_wg_full_v4_conf_pilot1","3Z3ZLGNNSIVR2KD9MVVF0GFN2BJ3Q8","0",NULL,"MAY","4","AUGUST","3","0","8149","may","5","august","4","2018-07-19 17:06:12","493922"
"A3AV0VB57J8RXD","cs_wg_full_v4_conf_pilot1","33F859I566EJSMIJIYNR9LLYZG0BHB","8",NULL,"MAY","5","JULY","11","1","3615","may ","5 ","july","11","2018-07-19 17:06:13","493923"
"A3FGT6EU39C6S4","cs_wg_full_v4_conf_pilot1","3VBEN272MK049C4A9ER4EAJXO49GSI","7",NULL,"OCTOBER","12","DECEMBER","1","1","262",,,,,"2018-07-19 17:06:16","493924"
"A3FGT6EU39C6S4","cs_wg_full_v4_conf_pilot1","3VBEN272MK049C4A9ER4EAJXO49GSI","8",NULL,"AUGUST","9","DECEMBER","1","1","204",,,,,"2018-07-19 17:06:21","493925"
"A2OC2MOL9TJ8BN","cs_wg_full_v4_conf_pilot1","37FMASSAYCSJOHT3OG5C9XMDZTFBI4","27",NULL,"MARCH","12","JULY","7","1","1916","March","12","July","7","2018-07-19 17:06:23","493926"
"A3FGT6EU39C6S4","cs_wg_full_v4_conf_pilot1","3VBEN272MK049C4A9ER4EAJXO49GSI","9",NULL,"JUNE","6","MARCH","3","1","124",,,,,"2018-07-19 17:06:26","493927"
"A3FGT6EU39C6S4","cs_wg_full_v4_conf_pilot1","3VBEN272MK049C4A9ER4EAJXO49GSI","10",NULL,"OCTOBER","12","FEBRUARY","11","0","75",,,,,"2018-07-19 17:06:31","493928"
"A2OC2MOL9TJ8BN","cs_wg_full_v4_conf_pilot1","37FMASSAYCSJOHT3OG5C9XMDZTFBI4","28",NULL,"JUNE","2","AUGUST","10","0","1229","June","2","August","12","2018-07-19 17:06:33","493929"
"A6SKM7JAK74D5","cs_wg_full_v4_conf_pilot1","345LHZDEDXTJUDKQ34FKAHCC5WP3UD","10",NULL,"OCTOBER","12","JANUARY","5","0","28865","October ","12","January","5","2018-07-19 17:06:36","493930"
"A3FGT6EU39C6S4","cs_wg_full_v4_conf_pilot1","3VBEN272MK049C4A9ER4EAJXO49GSI","11",NULL,"AUGUST","9","NOVEMBER","5","0","228",,,,,"2018-07-19 17:06:36","493931"
"A3FGT6EU39C6S4","cs_wg_full_v4_conf_pilot1","3VBEN272MK049C4A9ER4EAJXO49GSI","12",NULL,"MAY","10","APRIL","4","1","122",,,,,"2018-07-19 17:06:41","493932"
"A1VV2UWNLV3WC1","cs_wg_full_v4_conf_pilot1","3Z3ZLGNNSIVR2KD9MVVF0GFN2BJ3Q8","1",NULL,"JANUARY","5","MARCH","9","1","8088","january","5","march","9","2018-07-19 17:06:41","493933"
"A2OC2MOL9TJ8BN","cs_wg_full_v4_conf_pilot1","37FMASSAYCSJOHT3OG5C9XMDZTFBI4","29",NULL,"JUNE","2","OCTOBER","1","1","1709","June","2","October","1","2018-07-19 17:06:44","493934"
"A3FGT6EU39C6S4","cs_wg_full_v4_conf_pilot1","3VBEN272MK049C4A9ER4EAJXO49GSI","13",NULL,"DECEMBER","1","OCTOBER","12","0","134",,,,,"2018-07-19 17:06:47","493935"
"A3FGT6EU39C6S4","cs_wg_full_v4_conf_pilot1","3VBEN272MK049C4A9ER4EAJXO49GSI","14",NULL,"MARCH","3","MAY","10","1","103",,,,,"2018-07-19 17:06:52","493936"
"A3FGT6EU39C6S4","cs_wg_full_v4_conf_pilot1","3VBEN272MK049C4A9ER4EAJXO49GSI","15",NULL,"NOVEMBER","5","FEBRUARY","11","1","276",,,,,"2018-07-19 17:06:57","493937"
"A2OC2MOL9TJ8BN","cs_wg_full_v4_conf_pilot1","37FMASSAYCSJOHT3OG5C9XMDZTFBI4","30",NULL,"NOVEMBER","5","JANUARY","9","1","1694","November","5","January","9","2018-07-19 17:06:59","493938"
"A3AV0VB57J8RXD","cs_wg_full_v4_conf_pilot1","33F859I566EJSMIJIYNR9LLYZG0BHB","9",NULL,"MARCH","6","AUGUST","7","0","34323","march","6","august","11","2018-07-19 17:07:02","493939"
"A1VV2UWNLV3WC1","cs_wg_full_v4_conf_pilot1","3Z3ZLGNNSIVR2KD9MVVF0GFN2BJ3Q8","2",NULL,"JUNE","8","MARCH","9","1","4324","june","8","march","9","2018-07-19 17:07:03","493940"
"A6SKM7JAK74D5","cs_wg_full_v4_conf_pilot1","345LHZDEDXTJUDKQ34FKAHCC5WP3UD","11",NULL,"JULY","2","NOVEMBER","6","0","6179","July ","2","November","6","2018-07-19 17:07:04","493941"
"A1FTTOECAA04JO","cs_wg_full_v4_conf_pilot1","3SUWZRL0MYE120AMW6YDD22TTZX6E5","3",NULL,"APRIL","7","AUGUST","4","1","10166","APRIL","7","AUGUST","4","2018-07-19 17:07:10","493942"
"A2OC2MOL9TJ8BN","cs_wg_full_v4_conf_pilot1","37FMASSAYCSJOHT3OG5C9XMDZTFBI4","31",NULL,"FEBRUARY","4","MARCH","12","1","1802","Feburary","4","March","12","2018-07-19 17:07:12","493943"
"A3AV0VB57J8RXD","cs_wg_full_v4_conf_pilot1","33F859I566EJSMIJIYNR9LLYZG0BHB","10",NULL,"NOVEMBER","2","MARCH","6","1","3925","november","2","march","6","2018-07-19 17:07:21","493944"
"A2OC2MOL9TJ8BN","cs_wg_full_v4_conf_pilot1","37FMASSAYCSJOHT3OG5C9XMDZTFBI4","32",NULL,"DECEMBER","6","JUNE","2","1","2055","December","6","June","2","2018-07-19 17:07:24","493945"
"A1VV2UWNLV3WC1","cs_wg_full_v4_conf_pilot1","3Z3ZLGNNSIVR2KD9MVVF0GFN2BJ3Q8","3",NULL,"DECEMBER","12","NOVEMBER","1","1","5324","december","9","november","11","2018-07-19 17:07:26","493946"
"A2OC2MOL9TJ8BN","cs_wg_full_v4_conf_pilot1","37FMASSAYCSJOHT3OG5C9XMDZTFBI4","33",NULL,"AUGUST","10","JUNE","2","0","1365","August","10","June","2","2018-07-19 17:07:36","493947"
"A1FTTOECAA04JO","cs_wg_full_v4_conf_pilot1","3SUWZRL0MYE120AMW6YDD22TTZX6E5","4",NULL,"DECEMBER","9","JANUARY","10","1","7501","DECEMBER","9","JANUARY","10","2018-07-19 17:07:38","493948"
"A3AV0VB57J8RXD","cs_wg_full_v4_conf_pilot1","33F859I566EJSMIJIYNR9LLYZG0BHB","11",NULL,"JUNE","12","FEBRUARY","1","1","3456","june","12","february","11","2018-07-19 17:07:41","493949"
"A1VV2UWNLV3WC1","cs_wg_full_v4_conf_pilot1","3Z3ZLGNNSIVR2KD9MVVF0GFN2BJ3Q8","4",NULL,"DECEMBER","12","APRIL","2","1","8934","december","12","april","9","2018-07-19 17:07:47","493950"
"A2OC2MOL9TJ8BN","cs_wg_full_v4_conf_pilot1","37FMASSAYCSJOHT3OG5C9XMDZTFBI4","34",NULL,"JANUARY","9","MARCH","12","1","2067","January","9","March","12","2018-07-19 17:07:48","493951"
"A6SKM7JAK74D5","cs_wg_full_v4_conf_pilot1","345LHZDEDXTJUDKQ34FKAHCC5WP3UD","12",NULL,"DECEMBER","4","OCTOBER","12","1","4501","December","6","November ","11","2018-07-19 17:07:56","493952"
"A3AV0VB57J8RXD","cs_wg_full_v4_conf_pilot1","33F859I566EJSMIJIYNR9LLYZG0BHB","12",NULL,"NOVEMBER","2","OCTOBER","9","1","3468","november ","2","october","9","2018-07-19 17:08:03","493953"
"A2OC2MOL9TJ8BN","cs_wg_full_v4_conf_pilot1","37FMASSAYCSJOHT3OG5C9XMDZTFBI4","35",NULL,"MARCH","12","NOVEMBER","5","0","5013","March","12","November","5","2018-07-19 17:08:03","493954"
"A1VV2UWNLV3WC1","cs_wg_full_v4_conf_pilot1","3Z3ZLGNNSIVR2KD9MVVF0GFN2BJ3Q8","5",NULL,"FEBRUARY","10","NOVEMBER","1","1","7392","FEBRUARY

or
NOVEMBER","10","FEBRUARY

or
NOVEMBER","9","2018-07-19 17:08:09","493955"
"A1FTTOECAA04JO","cs_wg_full_v4_conf_pilot1","3SUWZRL0MYE120AMW6YDD22TTZX6E5","5",NULL,"MAY","11","JUNE","12","0","13885","MAY","11","JUNE","12","2018-07-19 17:08:11","493956"
"A2OC2MOL9TJ8BN","cs_wg_full_v4_conf_pilot1","37FMASSAYCSJOHT3OG5C9XMDZTFBI4","36",NULL,"DECEMBER","6","JULY","7","0","2196","December","6","July","7","2018-07-19 17:08:16","493957"
"A3AV0VB57J8RXD","cs_wg_full_v4_conf_pilot1","33F859I566EJSMIJIYNR9LLYZG0BHB","13",NULL,"JANUARY","3","MARCH","6","0","4497","january","3","march","6","2018-07-19 17:08:23","493958"
"A1UXNE9W0BVXIG","cs_wg_full_v4_conf_pilot1","38JBBYETQOBNND68DI5YG4IFX8RE4S","0",NULL,"MAY","7","JANUARY","10","0","4348","MAY","7","JANUARY","10","2018-07-19 17:08:24","493959"
"A1VV2UWNLV3WC1","cs_wg_full_v4_conf_pilot1","3Z3ZLGNNSIVR2KD9MVVF0GFN2BJ3Q8","6",NULL,"APRIL","2","MAY","4","0","6700","april","4","may","2","2018-07-19 17:08:29","493960"
"A2CTMNZN9I1MHR","cs_wg_full_v4_conf_pilot1","37TRT2X24QSFJSD96YQCLY1DC84BJG","0",NULL,"MAY","3","AUGUST","5","1","11199","MAY","3","AUGUST","5","2018-07-19 17:08:33","493961"
"A2OC2MOL9TJ8BN","cs_wg_full_v4_conf_pilot1","37FMASSAYCSJOHT3OG5C9XMDZTFBI4","37",NULL,"APRIL","11","JULY","7","0","7206","April","11","July","7","2018-07-19 17:08:34","493962"
"A6SKM7JAK74D5","cs_wg_full_v4_conf_pilot1","345LHZDEDXTJUDKQ34FKAHCC5WP3UD","13",NULL,"JULY","2","MAY","9","1","5702","July","2","May ","9","2018-07-19 17:08:37","493963"
"A1FTTOECAA04JO","cs_wg_full_v4_conf_pilot1","3SUWZRL0MYE120AMW6YDD22TTZX6E5","6",NULL,"SEPTEMBER","1","OCTOBER","8","0","5958","SEPTEMBER","1","OCTOBER","8","2018-07-19 17:08:41","493964"
"AA05GDUNJHJ2Z","cs_wg_full_v4_conf_pilot1","3M0BCWMB8VX1PCD8DX9RAOVLE4CWBV","0",NULL,"OCTOBER","6","MARCH","10","0","8465","OCTOBER","6","MARCH","10","2018-07-19 17:08:45","493965"
"A2OC2MOL9TJ8BN","cs_wg_full_v4_conf_pilot1","37FMASSAYCSJOHT3OG5C9XMDZTFBI4","38",NULL,"JANUARY","9","JULY","7","0","1019","January","9","July","7","2018-07-19 17:08:46","493966"
"A1UXNE9W0BVXIG","cs_wg_full_v4_conf_pilot1","38JBBYETQOBNND68DI5YG4IFX8RE4S","1",NULL,"JANUARY","10","APRIL","6","0","3693","JANUARY","10","APRIL","6","2018-07-19 17:08:49","493967"
"A1VV2UWNLV3WC1","cs_wg_full_v4_conf_pilot1","3Z3ZLGNNSIVR2KD9MVVF0GFN2BJ3Q8","7",NULL,"SEPTEMBER","6","OCTOBER","7","1","7951","SEPTEMBER","6","october","9","2018-07-19 17:08:51","493968"
"A2OC2MOL9TJ8BN","cs_wg_full_v4_conf_pilot1","37FMASSAYCSJOHT3OG5C9XMDZTFBI4","39",NULL,"JANUARY","9","AUGUST","10","0","494","January","9","August","10","2018-07-19 17:08:57","493969"
"A6SKM7JAK74D5","cs_wg_full_v4_conf_pilot1","345LHZDEDXTJUDKQ34FKAHCC5WP3UD","14",NULL,"DECEMBER","4","SEPTEMBER","8","1","2966","Dec","4","Sep","10","2018-07-19 17:09:02","493970"
"A2OC2MOL9TJ8BN","cs_wg_full_v4_conf_pilot1","37FMASSAYCSJOHT3OG5C9XMDZTFBI4","40",NULL,"FEBRUARY","4","NOVEMBER","5","0","717","February","4","November","5","2018-07-19 17:09:08","493971"
"A1FTTOECAA04JO","cs_wg_full_v4_conf_pilot1","3SUWZRL0MYE120AMW6YDD22TTZX6E5","7",NULL,"SEPTEMBER","1","MAY","11","1","4517","SEPTEMBER","1","MAY","11","2018-07-19 17:09:08","493972"
"A1UXNE9W0BVXIG","cs_wg_full_v4_conf_pilot1","38JBBYETQOBNND68DI5YG4IFX8RE4S","2",NULL,"JULY","2","OCTOBER","11","0","2699","JULY","2","OCTOBER","11","2018-07-19 17:09:09","493973"
"A2OC2MOL9TJ8BN","cs_wg_full_v4_conf_pilot1","37FMASSAYCSJOHT3OG5C9XMDZTFBI4","41",NULL,"MARCH","12","JUNE","2","0","1620","March","12","June","2","2018-07-19 17:09:19","493974"
"A2CTMNZN9I1MHR","cs_wg_full_v4_conf_pilot1","37TRT2X24QSFJSD96YQCLY1DC84BJG","1",NULL,"JULY","11","APRIL","8","1","12671","JULY","11","APRIL","8","2018-07-19 17:09:20","493975"
"A6SKM7JAK74D5","cs_wg_full_v4_conf_pilot1","345LHZDEDXTJUDKQ34FKAHCC5WP3UD","15",NULL,"NOVEMBER","6","DECEMBER","4","0","2536","nov","6","Dec","4","2018-07-19 17:09:21","493976"
"A1VV2UWNLV3WC1","cs_wg_full_v4_conf_pilot1","3Z3ZLGNNSIVR2KD9MVVF0GFN2BJ3Q8","8",NULL,"SEPTEMBER","6","APRIL","2","1","10790","SEPTEMBER","6","april","2","2018-07-19 17:09:24","493977"
"A2OC2MOL9TJ8BN","cs_wg_full_v4_conf_pilot1","37FMASSAYCSJOHT3OG5C9XMDZTFBI4","42",NULL,"DECEMBER","6","NOVEMBER","5","0","1073","December","6","November","5","2018-07-19 17:09:30","493978"
"AA05GDUNJHJ2Z","cs_wg_full_v4_conf_pilot1","3M0BCWMB8VX1PCD8DX9RAOVLE4CWBV","1",NULL,"JUNE","1","DECEMBER","4","1","6891","JUNE","1","DECEMBER","4","2018-07-19 17:09:30","493979"
"A1UXNE9W0BVXIG","cs_wg_full_v4_conf_pilot1","38JBBYETQOBNND68DI5YG4IFX8RE4S","3",NULL,"OCTOBER","11","APRIL","6","0","2806","OCTOBER","11","APRIL","6","2018-07-19 17:09:33","493980"
"A2OC2MOL9TJ8BN","cs_wg_full_v4_conf_pilot1","37FMASSAYCSJOHT3OG5C9XMDZTFBI4","43",NULL,"AUGUST","10","MAY","3","0","1819","August","10","May","3","2018-07-19 17:09:42","493981"
"A1VV2UWNLV3WC1","cs_wg_full_v4_conf_pilot1","3Z3ZLGNNSIVR2KD9MVVF0GFN2BJ3Q8","9",NULL,"JUNE","8","OCTOBER","7","1","2853","june","8","october","7","2018-07-19 17:09:46","493982"
"A2CTMNZN9I1MHR","cs_wg_full_v4_conf_pilot1","37TRT2X24QSFJSD96YQCLY1DC84BJG","2",NULL,"JULY","11","DECEMBER","2","0","6986","JULY","11","DECEMBER","2","2018-07-19 17:09:50","493983"
"A1FTTOECAA04JO","cs_wg_full_v4_conf_pilot1","3SUWZRL0MYE120AMW6YDD22TTZX6E5","8",NULL,"JUNE","12","JANUARY","10","0","18005","JUNE","12","JANUARY","10","2018-07-19 17:09:52","493984"
"A6SKM7JAK74D5","cs_wg_full_v4_conf_pilot1","345LHZDEDXTJUDKQ34FKAHCC5WP3UD","16",NULL,"AUGUST","1","MAY","9","1","3017","aug","1","May","9","2018-07-19 17:09:52","493985"
"A2OC2MOL9TJ8BN","cs_wg_full_v4_conf_pilot1","37FMASSAYCSJOHT3OG5C9XMDZTFBI4","44",NULL,"SEPTEMBER","8","MARCH","12","0","751","September","8","March","12","2018-07-19 17:09:54","493986"
"A1UXNE9W0BVXIG","cs_wg_full_v4_conf_pilot1","38JBBYETQOBNND68DI5YG4IFX8RE4S","4",NULL,"MARCH","8","SEPTEMBER","4","0","3621","MARCH","8","SEPTEMBER","4","2018-07-19 17:09:56","493987"
"A1VV2UWNLV3WC1","cs_wg_full_v4_conf_pilot1","3Z3ZLGNNSIVR2KD9MVVF0GFN2BJ3Q8","10",NULL,"OCTOBER","7","APRIL","2","1","4377","OCTOBER","7","april","2","2018-07-19 17:10:04","493988"
"A2OC2MOL9TJ8BN","cs_wg_full_v4_conf_pilot1","37FMASSAYCSJOHT3OG5C9XMDZTFBI4","45",NULL,"SEPTEMBER","8","FEBRUARY","4","0","3953","September","8","February","4","2018-07-19 17:10:08","493989"
"A1UXNE9W0BVXIG","cs_wg_full_v4_conf_pilot1","38JBBYETQOBNND68DI5YG4IFX8RE4S","5",NULL,"DECEMBER","9","AUGUST","12","0","1796","DECEMBER","9","AUGUST","12","2018-07-19 17:10:17","493990"
"AA05GDUNJHJ2Z","cs_wg_full_v4_conf_pilot1","3M0BCWMB8VX1PCD8DX9RAOVLE4CWBV","2",NULL,"OCTOBER","6","SEPTEMBER","11","1","5904","OCTOBER ","6","SEPTEMBER","11","2018-07-19 17:10:17","493991"
"A2CTMNZN9I1MHR","cs_wg_full_v4_conf_pilot1","37TRT2X24QSFJSD96YQCLY1DC84BJG","3",NULL,"APRIL","8","DECEMBER","2","0","10697","APRIL","8","DECEMBER","2","2018-07-19 17:10:19","493992"
"A2OC2MOL9TJ8BN","cs_wg_full_v4_conf_pilot1","37FMASSAYCSJOHT3OG5C9XMDZTFBI4","46",NULL,"NOVEMBER","5","APRIL","11","0","763","November","5","April","11","2018-07-19 17:10:19","493993"
"A6SKM7JAK74D5","cs_wg_full_v4_conf_pilot1","345LHZDEDXTJUDKQ34FKAHCC5WP3UD","17",NULL,"AUGUST","1","MARCH","10","1","14706","aug","1","mar","10","2018-07-19 17:10:27","493994"
"A2OC2MOL9TJ8BN","cs_wg_full_v4_conf_pilot1","37FMASSAYCSJOHT3OG5C9XMDZTFBI4","47",NULL,"JANUARY","9","FEBRUARY","4","1","2543","January","9","February","4","2018-07-19 17:10:32","493995"
"A1UXNE9W0BVXIG","cs_wg_full_v4_conf_pilot1","38JBBYETQOBNND68DI5YG4IFX8RE4S","6",NULL,"APRIL","6","AUGUST","12","0","1835","APRIL","6","AUGUST","12","2018-07-19 17:10:36","493996"
"A1VV2UWNLV3WC1","cs_wg_full_v4_conf_pilot1","3Z3ZLGNNSIVR2KD9MVVF0GFN2BJ3Q8","11",NULL,"JANUARY","5","NOVEMBER","1","0","2395","janurary","5","april","1","2018-07-19 17:10:44","493997"
"A2OC2MOL9TJ8BN","cs_wg_full_v4_conf_pilot1","37FMASSAYCSJOHT3OG5C9XMDZTFBI4","48",NULL,"APRIL","11","NOVEMBER","5","0","2420","April","11","November","5","2018-07-19 17:10:45","493998"
"A3AV0VB57J8RXD","cs_wg_full_v4_conf_pilot1","33F859I566EJSMIJIYNR9LLYZG0BHB","14",NULL,"OCTOBER","9","SEPTEMBER","4","1","3125","october","9","september","4","2018-07-19 17:10:49","493999"
"A1FTTOECAA04JO","cs_wg_full_v4_conf_pilot1","3SUWZRL0MYE120AMW6YDD22TTZX6E5","9",NULL,"OCTOBER","8","AUGUST","4","0","23701","OCTOBER","8","AUGUST","4","2018-07-19 17:10:50","494000"
"A1UXNE9W0BVXIG","cs_wg_full_v4_conf_pilot1","38JBBYETQOBNND68DI5YG4IFX8RE4S","7",NULL,"JUNE","1","MARCH","8","0","2291","JUNE","1","MARCH","8","2018-07-19 17:10:54","494001"
"A2OC2MOL9TJ8BN","cs_wg_full_v4_conf_pilot1","37FMASSAYCSJOHT3OG5C9XMDZTFBI4","49",NULL,"JANUARY","9","DECEMBER","6","0","952","January","9","December","6","2018-07-19 17:10:56","494002"
"AA05GDUNJHJ2Z","cs_wg_full_v4_conf_pilot1","3M0BCWMB8VX1PCD8DX9RAOVLE4CWBV","3",NULL,"SEPTEMBER","11","NOVEMBER","3","1","3947","SEPTEMBER","11","NOVEMBER","3","2018-07-19 17:11:04","494003"
"A3AV0VB57J8RXD","cs_wg_full_v4_conf_pilot1","33F859I566EJSMIJIYNR9LLYZG0BHB","15",NULL,"DECEMBER","8","MARCH","6","0","3348","december","8","march","6","2018-07-19 17:11:07","494004"
"A2OC2MOL9TJ8BN","cs_wg_full_v4_conf_pilot1","37FMASSAYCSJOHT3OG5C9XMDZTFBI4","50",NULL,"MARCH","12","JANUARY","9","0","1512","March","12","January","9","2018-07-19 17:11:08","494005"
"A1VV2UWNLV3WC1","cs_wg_full_v4_conf_pilot1","3Z3ZLGNNSIVR2KD9MVVF0GFN2BJ3Q8","12",NULL,"AUGUST","3","NOVEMBER","1","1","7318","august","15","november","2","2018-07-19 17:11:08","494006"
"A6SKM7JAK74D5","cs_wg_full_v4_conf_pilot1","345LHZDEDXTJUDKQ34FKAHCC5WP3UD","18",NULL,"FEBRUARY","3","OCTOBER","12","1","16793","feb","3","OCT","10","2018-07-19 17:11:08","494007"
"A2CTMNZN9I1MHR","cs_wg_full_v4_conf_pilot1","37TRT2X24QSFJSD96YQCLY1DC84BJG","4",NULL,"FEBRUARY","12","JUNE","9","1","6798","FEBRUARY","12","JUNE","2","2018-07-19 17:11:10","494008"
"A1UXNE9W0BVXIG","cs_wg_full_v4_conf_pilot1","38JBBYETQOBNND68DI5YG4IFX8RE4S","8",NULL,"APRIL","6","FEBRUARY","5","0","1937","APRIL","6","FEBRUARY","5","2018-07-19 17:11:13","494009"
"A1FTTOECAA04JO","cs_wg_full_v4_conf_pilot1","3SUWZRL0MYE120AMW6YDD22TTZX6E5","10",NULL,"AUGUST","4","JANUARY","10","1","15965","AUGUST","4","JANUARY","10","2018-07-19 17:11:18","494010"
"A2OC2MOL9TJ8BN","cs_wg_full_v4_conf_pilot1","37FMASSAYCSJOHT3OG5C9XMDZTFBI4","51",NULL,"MAY","3","AUGUST","10","0","761","May","3","August","10","2018-07-19 17:11:18","494011"
"A1VV2UWNLV3WC1","cs_wg_full_v4_conf_pilot1","3Z3ZLGNNSIVR2KD9MVVF0GFN2BJ3Q8","13",NULL,"AUGUST","3","MAY","4","0","3684","august","5","may","4","2018-07-19 17:11:24","494012"
"A3AV0VB57J8RXD","cs_wg_full_v4_conf_pilot1","33F859I566EJSMIJIYNR9LLYZG0BHB","16",NULL,"JUNE","12","APRIL","10","1","2951","june","12","april ","10","2018-07-19 17:11:25","494013"
"A1UXNE9W0BVXIG","cs_wg_full_v4_conf_pilot1","38JBBYETQOBNND68DI5YG4IFX8RE4S","9",NULL,"FEBRUARY","5","JULY","2","0","1872","FEBRAURY","5","JULY","2","2018-07-19 17:11:29","494014"
"A2OC2MOL9TJ8BN","cs_wg_full_v4_conf_pilot1","37FMASSAYCSJOHT3OG5C9XMDZTFBI4","52",NULL,"OCTOBER","1","MAY","3","1","1539","October","1","May","3","2018-07-19 17:11:30","494015"
"AA05GDUNJHJ2Z","cs_wg_full_v4_conf_pilot1","3M0BCWMB8VX1PCD8DX9RAOVLE4CWBV","4",NULL,"AUGUST","2","MAY","8","1","4335","AUGUST","2","MAY","8","2018-07-19 17:11:31","494016"
"A6SKM7JAK74D5","cs_wg_full_v4_conf_pilot1","345LHZDEDXTJUDKQ34FKAHCC5WP3UD","19",NULL,"DECEMBER","4","FEBRUARY","3","1","11178","dec","4","feb","3","2018-07-19 17:11:34","494017"
"A2CTMNZN9I1MHR","cs_wg_full_v4_conf_pilot1","37TRT2X24QSFJSD96YQCLY1DC84BJG","5",NULL,"APRIL","8","JULY","11","0","5438","APRIL","8","JULY","11","2018-07-19 17:11:36","494018"
"A3AV0VB57J8RXD","cs_wg_full_v4_conf_pilot1","33F859I566EJSMIJIYNR9LLYZG0BHB","17",NULL,"JUNE","12","MARCH","6","0","2654","june","12","march","6","2018-07-19 17:11:42","494019"
"A2OC2MOL9TJ8BN","cs_wg_full_v4_conf_pilot1","37FMASSAYCSJOHT3OG5C9XMDZTFBI4","53",NULL,"JANUARY","9","NOVEMBER","5","0","844","January","9","November","5","2018-07-19 17:11:43","494020"
"A1FTTOECAA04JO","cs_wg_full_v4_conf_pilot1","3SUWZRL0MYE120AMW6YDD22TTZX6E5","11",NULL,"MARCH","5","JULY","2","1","12357","MARCH","5","JULY","2","2018-07-19 17:11:43","494021"
"A1UXNE9W0BVXIG","cs_wg_full_v4_conf_pilot1","38JBBYETQOBNND68DI5YG4IFX8RE4S","10",NULL,"DECEMBER","9","APRIL","6","0","1818","DECEMBER","9","APRIL","6","2018-07-19 17:11:47","494022"
"A2OC2MOL9TJ8BN","cs_wg_full_v4_conf_pilot1","37FMASSAYCSJOHT3OG5C9XMDZTFBI4","54",NULL,"JUNE","2","SEPTEMBER","8","0","839","June","2","September","8","2018-07-19 17:11:54","494023"
"A1VV2UWNLV3WC1","cs_wg_full_v4_conf_pilot1","3Z3ZLGNNSIVR2KD9MVVF0GFN2BJ3Q8","14",NULL,"JANUARY","5","FEBRUARY","10","0","9187","jaunary","10","FEBRUARY

FEBRUARY

feburary","10","2018-07-19 17:11:55","494024"
"AA05GDUNJHJ2Z","cs_wg_full_v4_conf_pilot1","3M0BCWMB8VX1PCD8DX9RAOVLE4CWBV","5",NULL,"NOVEMBER","3","JULY","7","1","1915","NOVERMBER","3","JULY","7","2018-07-19 17:11:58","494025"
"A3AV0VB57J8RXD","cs_wg_full_v4_conf_pilot1","33F859I566EJSMIJIYNR9LLYZG0BHB","18",NULL,"JULY","11","DECEMBER","8","0","2352","july","11","december","8","2018-07-19 17:12:00","494026"
"A6SKM7JAK74D5","cs_wg_full_v4_conf_pilot1","345LHZDEDXTJUDKQ34FKAHCC5WP3UD","20",NULL,"MARCH","10","APRIL","7","1","6679","mar","10","apr","6","2018-07-19 17:12:01","494027"
"A2OC2MOL9TJ8BN","cs_wg_full_v4_conf_pilot1","37FMASSAYCSJOHT3OG5C9XMDZTFBI4","55",NULL,"APRIL","11","OCTOBER","1","0","1207","April","11","October","1","2018-07-19 17:12:05","494028"
"A1UXNE9W0BVXIG","cs_wg_full_v4_conf_pilot1","38JBBYETQOBNND68DI5YG4IFX8RE4S","11",NULL,"DECEMBER","9","MARCH","8","0","1552","DECEMBER","9","MARCH","8","2018-07-19 17:12:11","494029"
"A2OC2MOL9TJ8BN","cs_wg_full_v4_conf_pilot1","37FMASSAYCSJOHT3OG5C9XMDZTFBI4","56",NULL,"FEBRUARY","4","JUNE","2","0","3090","February","4","June","2","2018-07-19 17:12:17","494030"
"A3AV0VB57J8RXD","cs_wg_full_v4_conf_pilot1","33F859I566EJSMIJIYNR9LLYZG0BHB","19",NULL,"APRIL","10","JUNE","12","1","2818","april","10","june ","12","2018-07-19 17:12:19","494031"
"A2CTMNZN9I1MHR","cs_wg_full_v4_conf_pilot1","37TRT2X24QSFJSD96YQCLY1DC84BJG","6",NULL,"JANUARY","7","FEBRUARY","12","0","19312","JANUARY","7","FEBRUARY","12","2018-07-19 17:12:19","494032"
"AA05GDUNJHJ2Z","cs_wg_full_v4_conf_pilot1","3M0BCWMB8VX1PCD8DX9RAOVLE4CWBV","6",NULL,"MARCH","10","NOVEMBER","3","1","1820","MARCH","10","NOVOMBER","3","2018-07-19 17:12:24","494033"
"A2OC2MOL9TJ8BN","cs_wg_full_v4_conf_pilot1","37FMASSAYCSJOHT3OG5C9XMDZTFBI4","57",NULL,"MAY","3","OCTOBER","1","0","836","May","3","October","1","2018-07-19 17:12:27","494034"
"A1UXNE9W0BVXIG","cs_wg_full_v4_conf_pilot1","38JBBYETQOBNND68DI5YG4IFX8RE4S","12",NULL,"SEPTEMBER","4","JANUARY","10","0","1776","SEPTEMBER","4","JANUARY","10","2018-07-19 17:12:29","494035"
"A1VV2UWNLV3WC1","cs_wg_full_v4_conf_pilot1","3Z3ZLGNNSIVR2KD9MVVF0GFN2BJ3Q8","15",NULL,"DECEMBER","12","OCTOBER","7","1","6644","december","17","november","6","2018-07-19 17:12:31","494036"
"A1FTTOECAA04JO","cs_wg_full_v4_conf_pilot1","3SUWZRL0MYE120AMW6YDD22TTZX6E5","12",NULL,"JULY","2","FEBRUARY","6","1","13463","JULY","2","February","6","2018-07-19 17:12:35","494037"
"A6SKM7JAK74D5","cs_wg_full_v4_conf_pilot1","345LHZDEDXTJUDKQ34FKAHCC5WP3UD","21",NULL,"NOVEMBER","6","OCTOBER","12","1","3537","nov","6","mar","1","2018-07-19 17:12:36","494038"
"A2OC2MOL9TJ8BN","cs_wg_full_v4_conf_pilot1","37FMASSAYCSJOHT3OG5C9XMDZTFBI4","58",NULL,"FEBRUARY","4","AUGUST","10","0","1184","Feburary","4","October","10","2018-07-19 17:12:39","494039"
"A2CTMNZN9I1MHR","cs_wg_full_v4_conf_pilot1","37TRT2X24QSFJSD96YQCLY1DC84BJG","7",NULL,"FEBRUARY","12","APRIL","8","0","5307","FEBRUARY","12","APRIL","8","2018-07-19 17:12:42","494040"
"A3EWR58W0SA885","cs_wg_full_v4_conf_pilot1","3NG53N1RLVKS35I0YZBMRSXOD1P8PE","0",NULL,"FEBRUARY","7","OCTOBER","11","1","4015","Februrary","7","october","11","2018-07-19 17:12:44","494041"
"A1UXNE9W0BVXIG","cs_wg_full_v4_conf_pilot1","38JBBYETQOBNND68DI5YG4IFX8RE4S","13",NULL,"APRIL","6","NOVEMBER","3","0","1653","APRIL","6","NOVEMBER","3","2018-07-19 17:12:46","494042"
"A2OC2MOL9TJ8BN","cs_wg_full_v4_conf_pilot1","37FMASSAYCSJOHT3OG5C9XMDZTFBI4","59",NULL,"DECEMBER","6","OCTOBER","1","0","1120","December","6","October","1","2018-07-19 17:12:51","494043"
"AA05GDUNJHJ2Z","cs_wg_full_v4_conf_pilot1","3M0BCWMB8VX1PCD8DX9RAOVLE4CWBV","7",NULL,"APRIL","9","JUNE","1","1","2477","APRIL","9","JUNE","1","2018-07-19 17:12:51","494044"
"A1VV2UWNLV3WC1","cs_wg_full_v4_conf_pilot1","3Z3ZLGNNSIVR2KD9MVVF0GFN2BJ3Q8","16",NULL,"OCTOBER","7","JANUARY","5","1","4406","jaunary","5","october","7","2018-07-19 17:12:54","494045"
"A1FTTOECAA04JO","cs_wg_full_v4_conf_pilot1","3SUWZRL0MYE120AMW6YDD22TTZX6E5","13",NULL,"FEBRUARY","6","DECEMBER","9","1","4942","FEBRUARY","6","DECEMBER","9","2018-07-19 17:12:57","494046"
"A2OC2MOL9TJ8BN","cs_wg_full_v4_conf_pilot1","37FMASSAYCSJOHT3OG5C9XMDZTFBI4","60",NULL,"AUGUST","10","OCTOBER","1","0","2771","August","10","October","1","2018-07-19 17:13:04","494047"
"A1UXNE9W0BVXIG","cs_wg_full_v4_conf_pilot1","38JBBYETQOBNND68DI5YG4IFX8RE4S","14",NULL,"MARCH","8","APRIL","6","0","2202","MARCH","8","APRIL","6","2018-07-19 17:13:05","494048"
"A2CTMNZN9I1MHR","cs_wg_full_v4_conf_pilot1","37TRT2X24QSFJSD96YQCLY1DC84BJG","8",NULL,"DECEMBER","2","SEPTEMBER","6","0","4528","DECEMBER","2","SEPTEMBER","6","2018-07-19 17:13:06","494049"
"A3EWR58W0SA885","cs_wg_full_v4_conf_pilot1","3NG53N1RLVKS35I0YZBMRSXOD1P8PE","1",NULL,"OCTOBER","11","SEPTEMBER","6","0","4994","October","11","September","6","2018-07-19 17:13:06","494050"
"A1VV2UWNLV3WC1","cs_wg_full_v4_conf_pilot1","3Z3ZLGNNSIVR2KD9MVVF0GFN2BJ3Q8","17",NULL,"MAY","4","APRIL","2","0","2829","may","4","april","2","2018-07-19 17:13:07","494051"
"A6SKM7JAK74D5","cs_wg_full_v4_conf_pilot1","345LHZDEDXTJUDKQ34FKAHCC5WP3UD","22",NULL,"MARCH","10","MAY","9","0","5354","mar","10","may","9","2018-07-19 17:13:12","494052"
"A2OC2MOL9TJ8BN","cs_wg_full_v4_conf_pilot1","37FMASSAYCSJOHT3OG5C9XMDZTFBI4","61",NULL,"JULY","7","MAY","3","0","891","July","7","May","3","2018-07-19 17:13:15","494053"
"AA05GDUNJHJ2Z","cs_wg_full_v4_conf_pilot1","3M0BCWMB8VX1PCD8DX9RAOVLE4CWBV","8",NULL,"APRIL","9","FEBRUARY","5","0","1452","APRIL","9","FEBRUARY","5","2018-07-19 17:13:20","494054"
"A1FTTOECAA04JO","cs_wg_full_v4_conf_pilot1","3SUWZRL0MYE120AMW6YDD22TTZX6E5","14",NULL,"AUGUST","4","JULY","2","0","15516","AUGUST","4","JULY","2","2018-07-19 17:13:23","494055"
"A3EWR58W0SA885","cs_wg_full_v4_conf_pilot1","3NG53N1RLVKS35I0YZBMRSXOD1P8PE","2",NULL,"SEPTEMBER","6","JANUARY","2","1","3453","September","6","January","2","2018-07-19 17:13:24","494056"
"A1UXNE9W0BVXIG","cs_wg_full_v4_conf_pilot1","38JBBYETQOBNND68DI5YG4IFX8RE4S","15",NULL,"DECEMBER","9","FEBRUARY","5","0","1286","DECEMBER","9","FEBRAURY","5","2018-07-19 17:13:24","494057"
"A1VV2UWNLV3WC1","cs_wg_full_v4_conf_pilot1","3Z3ZLGNNSIVR2KD9MVVF0GFN2BJ3Q8","18",NULL,"DECEMBER","12","JULY","11","0","3037","december","12","july","11","2018-07-19 17:13:24","494058"
"A2OC2MOL9TJ8BN","cs_wg_full_v4_conf_pilot1","37FMASSAYCSJOHT3OG5C9XMDZTFBI4","62",NULL,"JULY","7","SEPTEMBER","8","0","682","July","7","September","8","2018-07-19 17:13:26","494059"
"A1FTTOECAA04JO","cs_wg_full_v4_conf_pilot1","3SUWZRL0MYE120AMW6YDD22TTZX6E5","15",NULL,"JUNE","12","MAY","11","0","5541","JUNE","12","MAY","11","2018-07-19 17:13:39","494060"
"A2OC2MOL9TJ8BN","cs_wg_full_v4_conf_pilot1","37FMASSAYCSJOHT3OG5C9XMDZTFBI4","63",NULL,"AUGUST","10","FEBRUARY","4","0","1032","August ","10","February","4","2018-07-19 17:13:40","494061"
"A3EWR58W0SA885","cs_wg_full_v4_conf_pilot1","3NG53N1RLVKS35I0YZBMRSXOD1P8PE","3",NULL,"SEPTEMBER","6","FEBRUARY","7","1","4399","September","6","February","7","2018-07-19 17:13:40","494062"
"AA05GDUNJHJ2Z","cs_wg_full_v4_conf_pilot1","3M0BCWMB8VX1PCD8DX9RAOVLE4CWBV","9",NULL,"JUNE","1","MARCH","10","1","2271","JUNE","1","MARCH","10","2018-07-19 17:13:44","494063"
"A1UXNE9W0BVXIG","cs_wg_full_v4_conf_pilot1","38JBBYETQOBNND68DI5YG4IFX8RE4S","16",NULL,"MAY","7","FEBRUARY","5","0","1455","MARY","7","FEBRAURY","5","2018-07-19 17:13:44","494064"
"A2CTMNZN9I1MHR","cs_wg_full_v4_conf_pilot1","37TRT2X24QSFJSD96YQCLY1DC84BJG","9",NULL,"JANUARY","7","NOVEMBER","1","1","9289","JANUARY","7","NOVEMBER ","1","2018-07-19 17:13:46","494065"
"A1VV2UWNLV3WC1","cs_wg_full_v4_conf_pilot1","3Z3ZLGNNSIVR2KD9MVVF0GFN2BJ3Q8","19",NULL,"MARCH","9","APRIL","2","0","3151","march","9","april","2","2018-07-19 17:13:46","494066"
"A6SKM7JAK74D5","cs_wg_full_v4_conf_pilot1","345LHZDEDXTJUDKQ34FKAHCC5WP3UD","23",NULL,"JUNE","11","MARCH","10","1","12453","jun","11","mar","10","2018-07-19 17:13:49","494067"
"A3AV0VB57J8RXD","cs_wg_full_v4_conf_pilot1","33F859I566EJSMIJIYNR9LLYZG0BHB","20",NULL,"SEPTEMBER","4","JULY","11","1","72219","september","4","july","11","2018-07-19 17:13:50","494068"
"A2OC2MOL9TJ8BN","cs_wg_full_v4_conf_pilot1","37FMASSAYCSJOHT3OG5C9XMDZTFBI4","64",NULL,"OCTOBER","1","JULY","7","0","1335","October","1","July","7","2018-07-19 17:13:52","494069"
"A3EWR58W0SA885","cs_wg_full_v4_conf_pilot1","3NG53N1RLVKS35I0YZBMRSXOD1P8PE","4",NULL,"MARCH","10","JANUARY","2","0","2232","March","10","January","2","2018-07-19 17:13:55","494070"
"A8V6H7P6J8S0U","cs_wg_full_v4_conf_pilot1","3TMFV4NEP8FINEF1ALPHJM5K6YRW8W","0",NULL,"JANUARY","7","OCTOBER","9","1","2683","JANUARY","7","OCTOBER","9","2018-07-19 17:13:58","494071"
"A1VV2UWNLV3WC1","cs_wg_full_v4_conf_pilot1","3Z3ZLGNNSIVR2KD9MVVF0GFN2BJ3Q8","20",NULL,"NOVEMBER","1","APRIL","2","0","3805","november","2","april","1","2018-07-19 17:14:01","494072"
"A2OC2MOL9TJ8BN","cs_wg_full_v4_conf_pilot1","37FMASSAYCSJOHT3OG5C9XMDZTFBI4","65",NULL,"DECEMBER","6","MAY","3","0","1020","December","6","May","3","2018-07-19 17:14:03","494073"
"A3AV0VB57J8RXD","cs_wg_full_v4_conf_pilot1","33F859I566EJSMIJIYNR9LLYZG0BHB","21",NULL,"MAY","5","NOVEMBER","2","1","2443","may","5","november","2","2018-07-19 17:14:03","494074"
"A1UXNE9W0BVXIG","cs_wg_full_v4_conf_pilot1","38JBBYETQOBNND68DI5YG4IFX8RE4S","17",NULL,"OCTOBER","11","NOVEMBER","3","0","2141","OCTOBER","11","NOVEMBER","3","2018-07-19 17:14:04","494075"
"A1FTTOECAA04JO","cs_wg_full_v4_conf_pilot1","3SUWZRL0MYE120AMW6YDD22TTZX6E5","16",NULL,"JUNE","12","APRIL","7","0","3879","JUNE","12","APRIL","7","2018-07-19 17:14:11","494076"
"A6SKM7JAK74D5","cs_wg_full_v4_conf_pilot1","345LHZDEDXTJUDKQ34FKAHCC5WP3UD","24",NULL,"APRIL","7","SEPTEMBER","8","0","6210","apr","7","sept","8","2018-07-19 17:14:12","494077"
"AQ9Y6WD8O72ZC","cs_wg_full_v4_conf_pilot1","34MAJL3QP4OKDFQBOYO2XDEI6J143R","0",NULL,"JULY","1","MARCH","12","0","6278","june","1","march","12","2018-07-19 17:14:16","494078"
"A1VV2UWNLV3WC1","cs_wg_full_v4_conf_pilot1","3Z3ZLGNNSIVR2KD9MVVF0GFN2BJ3Q8","21",NULL,"MARCH","9","OCTOBER","7","0","2342","march","9","april","7","2018-07-19 17:14:16","494079"
"A2OC2MOL9TJ8BN","cs_wg_full_v4_conf_pilot1","37FMASSAYCSJOHT3OG5C9XMDZTFBI4","66",NULL,"MAY","3","MARCH","12","1","2066","May","3","March","12","2018-07-19 17:14:16","494080"
"A3AV0VB57J8RXD","cs_wg_full_v4_conf_pilot1","33F859I566EJSMIJIYNR9LLYZG0BHB","22",NULL,"FEBRUARY","1","MAY","5","0","3119","february","1","may","5","2018-07-19 17:14:17","494081"
"AA05GDUNJHJ2Z","cs_wg_full_v4_conf_pilot1","3M0BCWMB8VX1PCD8DX9RAOVLE4CWBV","10",NULL,"OCTOBER","6","DECEMBER","4","0","1812","OCTOBER","6","DECEMBER","4","2018-07-19 17:14:17","494082"
"A1UXNE9W0BVXIG","cs_wg_full_v4_conf_pilot1","38JBBYETQOBNND68DI5YG4IFX8RE4S","18",NULL,"AUGUST","12","DECEMBER","9","0","1712","AUGUST","12","DECEMBER","9","2018-07-19 17:14:21","494083"
"A6SKM7JAK74D5","cs_wg_full_v4_conf_pilot1","345LHZDEDXTJUDKQ34FKAHCC5WP3UD","25",NULL,"FEBRUARY","3","APRIL","7","1","2693","feb","3","apr","7","2018-07-19 17:14:27","494084"
"A3AV0VB57J8RXD","cs_wg_full_v4_conf_pilot1","33F859I566EJSMIJIYNR9LLYZG0BHB","23",NULL,"SEPTEMBER","4","MARCH","6","1","4886","september","4","march","6","2018-07-19 17:14:33","494085"
"A2OC2MOL9TJ8BN","cs_wg_full_v4_conf_pilot1","37FMASSAYCSJOHT3OG5C9XMDZTFBI4","67",NULL,"SEPTEMBER","8","DECEMBER","6","0","7643","September","8","December","6","2018-07-19 17:14:35","494086"
"A1VV2UWNLV3WC1","cs_wg_full_v4_conf_pilot1","3Z3ZLGNNSIVR2KD9MVVF0GFN2BJ3Q8","22",NULL,"JULY","11","MAY","4","0","3460","july","11","may","7","2018-07-19 17:14:36","494087"
"A1UXNE9W0BVXIG","cs_wg_full_v4_conf_pilot1","38JBBYETQOBNND68DI5YG4IFX8RE4S","19",NULL,"SEPTEMBER","4","FEBRUARY","5","0","1738","SEPTEMBER","4","FEBRAURY","5","2018-07-19 17:14:40","494088"
"AQ9Y6WD8O72ZC","cs_wg_full_v4_conf_pilot1","34MAJL3QP4OKDFQBOYO2XDEI6J143R","1",NULL,"OCTOBER","3","MAY","11","0","5217","october","3","may","11","2018-07-19 17:14:41","494089"
"A6SKM7JAK74D5","cs_wg_full_v4_conf_pilot1","345LHZDEDXTJUDKQ34FKAHCC5WP3UD","26",NULL,"JANUARY","5","MAY","9","1","2353","jan","5","may","7","2018-07-19 17:14:43","494090"
"A2OC2MOL9TJ8BN","cs_wg_full_v4_conf_pilot1","37FMASSAYCSJOHT3OG5C9XMDZTFBI4","68",NULL,"JUNE","2","DECEMBER","6","0","1134","June","2","December","6","2018-07-19 17:14:46","494091"
"A1FTTOECAA04JO","cs_wg_full_v4_conf_pilot1","3SUWZRL0MYE120AMW6YDD22TTZX6E5","17",NULL,"OCTOBER","8","SEPTEMBER","1","0","12503","october","8","september","1","2018-07-19 17:14:49","494092"
"A3AV0VB57J8RXD","cs_wg_full_v4_conf_pilot1","33F859I566EJSMIJIYNR9LLYZG0BHB","24",NULL,"JANUARY","3","DECEMBER","8","1","3332","january","3","december","8","2018-07-19 17:14:53","494093"
"A8V6H7P6J8S0U","cs_wg_full_v4_conf_pilot1","3TMFV4NEP8FINEF1ALPHJM5K6YRW8W","1",NULL,"APRIL","11","OCTOBER","9","1","11084","APRIL","11","OCTOBER","9","2018-07-19 17:14:54","494094"
"AA05GDUNJHJ2Z","cs_wg_full_v4_conf_pilot1","3M0BCWMB8VX1PCD8DX9RAOVLE4CWBV","11",NULL,"JANUARY","12","NOVEMBER","3","1","8403","JANUARY","12","NOVOMBER","3","2018-07-19 17:14:54","494095"
"A2OC2MOL9TJ8BN","cs_wg_full_v4_conf_pilot1","37FMASSAYCSJOHT3OG5C9XMDZTFBI4","69",NULL,"DECEMBER","6","SEPTEMBER","8","0","1436","December","6","September","8","2018-07-19 17:14:58","494096"
"A6SKM7JAK74D5","cs_wg_full_v4_conf_pilot1","345LHZDEDXTJUDKQ34FKAHCC5WP3UD","27",NULL,"JANUARY","5","DECEMBER","4","1","3956","jan","5","DEC","7","2018-07-19 17:15:03","494097"
"A1UXNE9W0BVXIG","cs_wg_full_v4_conf_pilot1","38JBBYETQOBNND68DI5YG4IFX8RE4S","20",NULL,"APRIL","6","DECEMBER","9","0","1819","APRIL","6","DECEMBER","9","2018-07-19 17:15:04","494098"
"AQ9Y6WD8O72ZC","cs_wg_full_v4_conf_pilot1","34MAJL3QP4OKDFQBOYO2XDEI6J143R","2",NULL,"NOVEMBER","4","OCTOBER","3","0","7704","november","4","october","3","2018-07-19 17:15:08","494099"
"A3AV0VB57J8RXD","cs_wg_full_v4_conf_pilot1","33F859I566EJSMIJIYNR9LLYZG0BHB","25",NULL,"DECEMBER","8","JULY","11","0","2660","december","8","july","11","2018-07-19 17:15:08","494100"
"A1VV2UWNLV3WC1","cs_wg_full_v4_conf_pilot1","3Z3ZLGNNSIVR2KD9MVVF0GFN2BJ3Q8","23",NULL,"FEBRUARY","10","AUGUST","3","0","14806","febuary","10","august","3","2018-07-19 17:15:11","494101"
"A2OC2MOL9TJ8BN","cs_wg_full_v4_conf_pilot1","37FMASSAYCSJOHT3OG5C9XMDZTFBI4","70",NULL,"APRIL","11","JUNE","2","0","1539","April","11","June","2","2018-07-19 17:15:11","494102"
"A3JM2BJIOZAGM7","cs_wg_full_v4_conf_pilot1","37U1UTWH9VNDFIYFBRFBWNX3EJD8R6","0",NULL,"APRIL","10","JULY","2","0","3298","april","10","july","2","2018-07-19 17:15:12","494103"
"A1UXNE9W0BVXIG","cs_wg_full_v4_conf_pilot1","38JBBYETQOBNND68DI5YG4IFX8RE4S","21",NULL,"JULY","2","DECEMBER","9","0","2199","JULY","2","DECEMBER","9","2018-07-19 17:15:22","494104"
"A2OC2MOL9TJ8BN","cs_wg_full_v4_conf_pilot1","37FMASSAYCSJOHT3OG5C9XMDZTFBI4","71",NULL,"MARCH","12","AUGUST","10","0","1410","March","12","August","10","2018-07-19 17:15:24","494105"
"A3JM2BJIOZAGM7","cs_wg_full_v4_conf_pilot1","37U1UTWH9VNDFIYFBRFBWNX3EJD8R6","1",NULL,"OCTOBER","5","JULY","2","0","3011","october","5","july","2","2018-07-19 17:15:26","494106"
"AA05GDUNJHJ2Z","cs_wg_full_v4_conf_pilot1","3M0BCWMB8VX1PCD8DX9RAOVLE4CWBV","12",NULL,"AUGUST","2","JULY","7","1","3860","AUGUST","2","JULY","7","2018-07-19 17:15:28","494107"
"A6SKM7JAK74D5","cs_wg_full_v4_conf_pilot1","345LHZDEDXTJUDKQ34FKAHCC5WP3UD","28",NULL,"MAY","9","NOVEMBER","6","0","7884","may","9","nov","6","2018-07-19 17:15:28","494108"
"AQ9Y6WD8O72ZC","cs_wg_full_v4_conf_pilot1","34MAJL3QP4OKDFQBOYO2XDEI6J143R","3",NULL,"MARCH","12","NOVEMBER","4","0","5724","march","12","november","4","2018-07-19 17:15:29","494109"
"A1VV2UWNLV3WC1","cs_wg_full_v4_conf_pilot1","3Z3ZLGNNSIVR2KD9MVVF0GFN2BJ3Q8","24",NULL,"FEBRUARY","10","SEPTEMBER","6","0","6093","feburary","10","steptember","6","2018-07-19 17:15:36","494110"
"A2OC2MOL9TJ8BN","cs_wg_full_v4_conf_pilot1","37FMASSAYCSJOHT3OG5C9XMDZTFBI4","72",NULL,"JULY","7","APRIL","11","0","1108","July","7","April","11","2018-07-19 17:15:37","494111"
"A1FTTOECAA04JO","cs_wg_full_v4_conf_pilot1","3SUWZRL0MYE120AMW6YDD22TTZX6E5","18",NULL,"MARCH","5","DECEMBER","9","0","7902","MARCH","5","DECEMBER","9","2018-07-19 17:15:37","494112"
"A1UXNE9W0BVXIG","cs_wg_full_v4_conf_pilot1","38JBBYETQOBNND68DI5YG4IFX8RE4S","22",NULL,"MARCH","8","JANUARY","10","0","1649","MARCH","8","JANUARY","10","2018-07-19 17:15:40","494113"
"A8V6H7P6J8S0U","cs_wg_full_v4_conf_pilot1","3TMFV4NEP8FINEF1ALPHJM5K6YRW8W","2",NULL,"APRIL","11","JUNE","1","0","6017","APRIL","11","JUNE","1","2018-07-19 17:15:41","494114"
"A3JM2BJIOZAGM7","cs_wg_full_v4_conf_pilot1","37U1UTWH9VNDFIYFBRFBWNX3EJD8R6","2",NULL,"MAY","12","JUNE","8","0","7081","may","12","june","8","2018-07-19 17:15:45","494115"
"AQ9Y6WD8O72ZC","cs_wg_full_v4_conf_pilot1","34MAJL3QP4OKDFQBOYO2XDEI6J143R","4",NULL,"AUGUST","2","OCTOBER","3","0","2765","auguts","2","october","3","2018-07-19 17:15:46","494116"
"A2OC2MOL9TJ8BN","cs_wg_full_v4_conf_pilot1","37FMASSAYCSJOHT3OG5C9XMDZTFBI4","73",NULL,"MARCH","12","MAY","3","0","1131","March","12","May","3","2018-07-19 17:15:48","494117"
"A6SKM7JAK74D5","cs_wg_full_v4_conf_pilot1","345LHZDEDXTJUDKQ34FKAHCC5WP3UD","29",NULL,"JUNE","11","MAY","9","1","5198","june","11","MAY","9","2018-07-19 17:15:49","494118"
"AA05GDUNJHJ2Z","cs_wg_full_v4_conf_pilot1","3M0BCWMB8VX1PCD8DX9RAOVLE4CWBV","13",NULL,"OCTOBER","6","JUNE","1","0","3216","OCTOBER","6","JUNE","1","2018-07-19 17:15:51","494119"
"A1VV2UWNLV3WC1","cs_wg_full_v4_conf_pilot1","3Z3ZLGNNSIVR2KD9MVVF0GFN2BJ3Q8","25",NULL,"AUGUST","3","JANUARY","5","0","3807","august","3","jaunary","4","2018-07-19 17:15:53","494120"
"A1UXNE9W0BVXIG","cs_wg_full_v4_conf_pilot1","38JBBYETQOBNND68DI5YG4IFX8RE4S","23",NULL,"NOVEMBER","3","JANUARY","10","0","1630","NOVEMBER","3","JANUARY","10","2018-07-19 17:16:00","494121"
"A2OC2MOL9TJ8BN","cs_wg_full_v4_conf_pilot1","37FMASSAYCSJOHT3OG5C9XMDZTFBI4","74",NULL,"OCTOBER","1","APRIL","11","0","5302","October","1","April","11","2018-07-19 17:16:04","494122"
"A6SKM7JAK74D5","cs_wg_full_v4_conf_pilot1","345LHZDEDXTJUDKQ34FKAHCC5WP3UD","30",NULL,"AUGUST","1","JULY","2","1","3816","aug","1","jul","2","2018-07-19 17:16:04","494123"
"A3JM2BJIOZAGM7","cs_wg_full_v4_conf_pilot1","37U1UTWH9VNDFIYFBRFBWNX3EJD8R6","3",NULL,"OCTOBER","5","JUNE","8","1","5582","october","5","june","8","2018-07-19 17:16:06","494124"
"AA05GDUNJHJ2Z","cs_wg_full_v4_conf_pilot1","3M0BCWMB8VX1PCD8DX9RAOVLE4CWBV","14",NULL,"JUNE","1","MAY","8","0","3406","JUNE","1","MAY","8","2018-07-19 17:16:09","494125"
"A1FTTOECAA04JO","cs_wg_full_v4_conf_pilot1","3SUWZRL0MYE120AMW6YDD22TTZX6E5","19",NULL,"SEPTEMBER","1","FEBRUARY","6","0","8054","SEPTMEBER","1","FEBRUARY","6","2018-07-19 17:16:14","494126"
"A2OC2MOL9TJ8BN","cs_wg_full_v4_conf_pilot1","37FMASSAYCSJOHT3OG5C9XMDZTFBI4","75",NULL,"JUNE","2","NOVEMBER","5","0","922","June","2","November","5","2018-07-19 17:16:14","494127"
"AQ9Y6WD8O72ZC","cs_wg_full_v4_conf_pilot1","34MAJL3QP4OKDFQBOYO2XDEI6J143R","5",NULL,"AUGUST","2","JANUARY","5","1","5557","august","2","january ","5","2018-07-19 17:16:17","494128"
"A1UXNE9W0BVXIG","cs_wg_full_v4_conf_pilot1","38JBBYETQOBNND68DI5YG4IFX8RE4S","24",NULL,"JUNE","1","SEPTEMBER","4","0","1824","JUNE","1","SEPTEMBER","4","2018-07-19 17:16:18","494129"
"A3JM2BJIOZAGM7","cs_wg_full_v4_conf_pilot1","37U1UTWH9VNDFIYFBRFBWNX3EJD8R6","4",NULL,"JANUARY","7","NOVEMBER","3","0","2928","january","7","november","3","2018-07-19 17:16:20","494130"
"A1VV2UWNLV3WC1","cs_wg_full_v4_conf_pilot1","3Z3ZLGNNSIVR2KD9MVVF0GFN2BJ3Q8","26",NULL,"OCTOBER","7","JULY","11","0","3766","OCTOBER","11","july","9","2018-07-19 17:16:22","494131"
"A6SKM7JAK74D5","cs_wg_full_v4_conf_pilot1","345LHZDEDXTJUDKQ34FKAHCC5WP3UD","31",NULL,"SEPTEMBER","8","MARCH","10","0","6167","sept","8","mar","10","2018-07-19 17:16:23","494132"
"A8V6H7P6J8S0U","cs_wg_full_v4_conf_pilot1","3TMFV4NEP8FINEF1ALPHJM5K6YRW8W","3",NULL,"JULY","5","JANUARY","7","1","8862","JULY","5","JANUARY","7","2018-07-19 17:16:25","494133"
"A2OC2MOL9TJ8BN","cs_wg_full_v4_conf_pilot1","37FMASSAYCSJOHT3OG5C9XMDZTFBI4","76",NULL,"JANUARY","9","JUNE","2","0","1038","January","9","June","2","2018-07-19 17:16:27","494134"
"A3JM2BJIOZAGM7","cs_wg_full_v4_conf_pilot1","37U1UTWH9VNDFIYFBRFBWNX3EJD8R6","5",NULL,"JUNE","8","SEPTEMBER","4","0","3162","june","8","september","4","2018-07-19 17:16:34","494135"
"A2OC2MOL9TJ8BN","cs_wg_full_v4_conf_pilot1","37FMASSAYCSJOHT3OG5C9XMDZTFBI4","77",NULL,"AUGUST","10","JANUARY","9","0","1047","August","10","January","9","2018-07-19 17:16:40","494136"
"A6SKM7JAK74D5","cs_wg_full_v4_conf_pilot1","345LHZDEDXTJUDKQ34FKAHCC5WP3UD","32",NULL,"DECEMBER","4","APRIL","7","1","5401","dec","4","apr","7","2018-07-19 17:16:40","494137"
"AQ9Y6WD8O72ZC","cs_wg_full_v4_conf_pilot1","34MAJL3QP4OKDFQBOYO2XDEI6J143R","6",NULL,"JUNE","8","JULY","1","1","4093","june","8","july","1","2018-07-19 17:16:41","494138"
"AA05GDUNJHJ2Z","cs_wg_full_v4_conf_pilot1","3M0BCWMB8VX1PCD8DX9RAOVLE4CWBV","15",NULL,"NOVEMBER","3","FEBRUARY","5","0","4746","NOVEMBER","3","FEBRUARY","5","2018-07-19 17:16:42","494139"
"A1UXNE9W0BVXIG","cs_wg_full_v4_conf_pilot1","38JBBYETQOBNND68DI5YG4IFX8RE4S","25",NULL,"NOVEMBER","3","APRIL","6","0","1306","NOVEMBER","3","APRIL","6","2018-07-19 17:16:44","494140"
"A3AV0VB57J8RXD","cs_wg_full_v4_conf_pilot1","33F859I566EJSMIJIYNR9LLYZG0BHB","26",NULL,"MARCH","6","OCTOBER","9","1","81942","march","6","october","9","2018-07-19 17:16:44","494141"
"A1VV2UWNLV3WC1","cs_wg_full_v4_conf_pilot1","3Z3ZLGNNSIVR2KD9MVVF0GFN2BJ3Q8","27",NULL,"AUGUST","3","APRIL","2","0","7449","august","3","april","2","2018-07-19 17:16:45","494142"
"A3JM2BJIOZAGM7","cs_wg_full_v4_conf_pilot1","37U1UTWH9VNDFIYFBRFBWNX3EJD8R6","6",NULL,"AUGUST","11","APRIL","10","1","3635","august","11","april","10","2018-07-19 17:16:50","494143"
"A6SKM7JAK74D5","cs_wg_full_v4_conf_pilot1","345LHZDEDXTJUDKQ34FKAHCC5WP3UD","33",NULL,"APRIL","7","DECEMBER","4","0","4819","apr","7","dec","4","2018-07-19 17:16:57","494144"
"AQ9Y6WD8O72ZC","cs_wg_full_v4_conf_pilot1","34MAJL3QP4OKDFQBOYO2XDEI6J143R","7",NULL,"JANUARY","5","MARCH","12","1","3418","january","5","march","12","2018-07-19 17:16:59","494145"
"A3AV0VB57J8RXD","cs_wg_full_v4_conf_pilot1","33F859I566EJSMIJIYNR9LLYZG0BHB","27",NULL,"DECEMBER","8","MAY","5","0","3143","december","8","may","5","2018-07-19 17:16:59","494146"
"AA05GDUNJHJ2Z","cs_wg_full_v4_conf_pilot1","3M0BCWMB8VX1PCD8DX9RAOVLE4CWBV","16",NULL,"JUNE","1","APRIL","9","1","2722","JUNE","1","APRIL","9","2018-07-19 17:17:00","494147"
"A3JM2BJIOZAGM7","cs_wg_full_v4_conf_pilot1","37U1UTWH9VNDFIYFBRFBWNX3EJD8R6","7",NULL,"FEBRUARY","1","OCTOBER","5","0","1739","february","1","october","5","2018-07-19 17:17:02","494148"
"A1VV2UWNLV3WC1","cs_wg_full_v4_conf_pilot1","3Z3ZLGNNSIVR2KD9MVVF0GFN2BJ3Q8","28",NULL,"JUNE","8","NOVEMBER","1","0","5596","june","8","november","1","2018-07-19 17:17:02","494149"
"A2OC2MOL9TJ8BN","cs_wg_full_v4_conf_pilot1","37FMASSAYCSJOHT3OG5C9XMDZTFBI4","78",NULL,"DECEMBER","6","MARCH","12","1","1890","December","6","March","12","2018-07-19 17:17:07","494150"
"A3JM2BJIOZAGM7","cs_wg_full_v4_conf_pilot1","37U1UTWH9VNDFIYFBRFBWNX3EJD8R6","8",NULL,"APRIL","10","FEBRUARY","1","0","2151","april","10","february","1","2018-07-19 17:17:13","494151"
"AQ9Y6WD8O72ZC","cs_wg_full_v4_conf_pilot1","34MAJL3QP4OKDFQBOYO2XDEI6J143R","8",NULL,"MARCH","12","FEBRUARY","7","0","2644","march","12","february","7","2018-07-19 17:17:17","494152"
"A3AV0VB57J8RXD","cs_wg_full_v4_conf_pilot1","33F859I566EJSMIJIYNR9LLYZG0BHB","28",NULL,"FEBRUARY","1","MARCH","6","0","5413","february","1","march","6","2018-07-19 17:17:18","494153"
"A8V6H7P6J8S0U","cs_wg_full_v4_conf_pilot1","3TMFV4NEP8FINEF1ALPHJM5K6YRW8W","4",NULL,"JUNE","1","JANUARY","7","1","12282","JUNE","1","JANUARY","7","2018-07-19 17:17:18","494154"
"A2OC2MOL9TJ8BN","cs_wg_full_v4_conf_pilot1","37FMASSAYCSJOHT3OG5C9XMDZTFBI4","79",NULL,"JULY","7","FEBRUARY","4","0","801","July","7","February","4","2018-07-19 17:17:19","494155"
"A1FTTOECAA04JO","cs_wg_full_v4_conf_pilot1","3SUWZRL0MYE120AMW6YDD22TTZX6E5","20",NULL,"AUGUST","4","OCTOBER","8","0","31111","AUGUST","4","OCTOBER","8","2018-07-19 17:17:21","494156"
"A1VV2UWNLV3WC1","cs_wg_full_v4_conf_pilot1","3Z3ZLGNNSIVR2KD9MVVF0GFN2BJ3Q8","29",NULL,"DECEMBER","12","AUGUST","3","0","1528","december","12","november","2","2018-07-19 17:17:22","494157"
"A6SKM7JAK74D5","cs_wg_full_v4_conf_pilot1","345LHZDEDXTJUDKQ34FKAHCC5WP3UD","34",NULL,"FEBRUARY","3","JANUARY","5","1","12079","feb","3","jan","5","2018-07-19 17:17:23","494158"
"A3JM2BJIOZAGM7","cs_wg_full_v4_conf_pilot1","37U1UTWH9VNDFIYFBRFBWNX3EJD8R6","9",NULL,"APRIL","10","JANUARY","7","0","3279","april","10","january","7","2018-07-19 17:17:27","494159"
"A2OC2MOL9TJ8BN","cs_wg_full_v4_conf_pilot1","37FMASSAYCSJOHT3OG5C9XMDZTFBI4","80",NULL,"NOVEMBER","5","JUNE","2","0","2299","November","5","June","2","2018-07-19 17:17:32","494160"
"AA05GDUNJHJ2Z","cs_wg_full_v4_conf_pilot1","3M0BCWMB8VX1PCD8DX9RAOVLE4CWBV","17",NULL,"JULY","7","JANUARY","12","0","4844","JUNE","7","JANUARY","12","2018-07-19 17:17:33","494161"
"A6SKM7JAK74D5","cs_wg_full_v4_conf_pilot1","345LHZDEDXTJUDKQ34FKAHCC5WP3UD","35",NULL,"AUGUST","1","NOVEMBER","6","1","7299","aug","1","nov","11","2018-07-19 17:17:42","494162"
"A3JM2BJIOZAGM7","cs_wg_full_v4_conf_pilot1","37U1UTWH9VNDFIYFBRFBWNX3EJD8R6","10",NULL,"AUGUST","11","JULY","2","0","6444","august","11","july","2","2018-07-19 17:17:44","494163"
"AQ9Y6WD8O72ZC","cs_wg_full_v4_conf_pilot1","34MAJL3QP4OKDFQBOYO2XDEI6J143R","9",NULL,"SEPTEMBER","9","DECEMBER","6","1","3414","september","9","december","6","2018-07-19 17:17:44","494164"
"A2OC2MOL9TJ8BN","cs_wg_full_v4_conf_pilot1","37FMASSAYCSJOHT3OG5C9XMDZTFBI4","81",NULL,"FEBRUARY","4","SEPTEMBER","8","1","2177","February","4","September","8","2018-07-19 17:17:46","494165"
"A3AV0VB57J8RXD","cs_wg_full_v4_conf_pilot1","33F859I566EJSMIJIYNR9LLYZG0BHB","29",NULL,"JULY","11","NOVEMBER","2","0","3624","july","11","november","2","2018-07-19 17:17:47","494166"
"AA05GDUNJHJ2Z","cs_wg_full_v4_conf_pilot1","3M0BCWMB8VX1PCD8DX9RAOVLE4CWBV","18",NULL,"JUNE","1","AUGUST","2","1","3084","JUNE","1","AUGUST","2","2018-07-19 17:17:52","494167"
"A3JM2BJIOZAGM7","cs_wg_full_v4_conf_pilot1","37U1UTWH9VNDFIYFBRFBWNX3EJD8R6","11",NULL,"JANUARY","7","APRIL","10","1","2187","january","7","april","10","2018-07-19 17:17:56","494168"
"A6SKM7JAK74D5","cs_wg_full_v4_conf_pilot1","345LHZDEDXTJUDKQ34FKAHCC5WP3UD","36",NULL,"AUGUST","1","OCTOBER","12","1","3211","aug","1","oct","11","2018-07-19 17:17:57","494169"
"A2OC2MOL9TJ8BN","cs_wg_full_v4_conf_pilot1","37FMASSAYCSJOHT3OG5C9XMDZTFBI4","82",NULL,"APRIL","11","MARCH","12","0","987","April","11","March","12","2018-07-19 17:17:58","494170"
"A1VV2UWNLV3WC1","cs_wg_full_v4_conf_pilot1","3Z3ZLGNNSIVR2KD9MVVF0GFN2BJ3Q8","30",NULL,"MARCH","9","JULY","11","0","3481","march","9","july","7","2018-07-19 17:17:58","494171"
"AQ9Y6WD8O72ZC","cs_wg_full_v4_conf_pilot1","34MAJL3QP4OKDFQBOYO2XDEI6J143R","10",NULL,"MARCH","12","DECEMBER","6","0","3128","march","12","december","6","2018-07-19 17:18:01","494172"
"A3AV0VB57J8RXD","cs_wg_full_v4_conf_pilot1","33F859I566EJSMIJIYNR9LLYZG0BHB","30",NULL,"APRIL","10","OCTOBER","9","0","4147","april","10","october","9","2018-07-19 17:18:03","494173"
"A2OC2MOL9TJ8BN","cs_wg_full_v4_conf_pilot1","37FMASSAYCSJOHT3OG5C9XMDZTFBI4","83",NULL,"MAY","3","FEBRUARY","4","0","726","May","3","February","4","2018-07-19 17:18:08","494174"
"A6SKM7JAK74D5","cs_wg_full_v4_conf_pilot1","345LHZDEDXTJUDKQ34FKAHCC5WP3UD","37",NULL,"NOVEMBER","6","SEPTEMBER","8","0","3572","nov","6","sep","8","2018-07-19 17:18:14","494175"
"A3JM2BJIOZAGM7","cs_wg_full_v4_conf_pilot1","37U1UTWH9VNDFIYFBRFBWNX3EJD8R6","12",NULL,"JUNE","8","MARCH","6","0","10647","june","8","march","6","2018-07-19 17:18:16","494176"
"A1VV2UWNLV3WC1","cs_wg_full_v4_conf_pilot1","3Z3ZLGNNSIVR2KD9MVVF0GFN2BJ3Q8","31",NULL,"JUNE","8","JANUARY","5","0","2526","june","8","JANUARY","5","2018-07-19 17:18:17","494177"
"A3AV0VB57J8RXD","cs_wg_full_v4_conf_pilot1","33F859I566EJSMIJIYNR9LLYZG0BHB","31",NULL,"JUNE","12","AUGUST","7","0","2096","june","12","august","7","2018-07-19 17:18:18","494178"
"A1FTTOECAA04JO","cs_wg_full_v4_conf_pilot1","3SUWZRL0MYE120AMW6YDD22TTZX6E5","21",NULL,"NOVEMBER","3","JUNE","12","0","41773","NOVEMBER","3","JUNE","12","2018-07-19 17:18:18","494179"
"A2OC2MOL9TJ8BN","cs_wg_full_v4_conf_pilot1","37FMASSAYCSJOHT3OG5C9XMDZTFBI4","84",NULL,"SEPTEMBER","8","OCTOBER","1","0","810","September","8","August","1","2018-07-19 17:18:20","494180"
"AQ9Y6WD8O72ZC","cs_wg_full_v4_conf_pilot1","34MAJL3QP4OKDFQBOYO2XDEI6J143R","11",NULL,"JULY","1","AUGUST","2","1","4957","july","1","august","2","2018-07-19 17:18:21","494181"
"AA05GDUNJHJ2Z","cs_wg_full_v4_conf_pilot1","3M0BCWMB8VX1PCD8DX9RAOVLE4CWBV","19",NULL,"JULY","7","DECEMBER","4","1","3479","JULY","7","AUGUST","4","2018-07-19 17:18:25","494182"
"A8V6H7P6J8S0U","cs_wg_full_v4_conf_pilot1","3TMFV4NEP8FINEF1ALPHJM5K6YRW8W","5",NULL,"DECEMBER","2","NOVEMBER","8","0","10817","DECEMBER","2","NOVEMBER","8","2018-07-19 17:18:27","494183"
"A6SKM7JAK74D5","cs_wg_full_v4_conf_pilot1","345LHZDEDXTJUDKQ34FKAHCC5WP3UD","38",NULL,"SEPTEMBER","8","JULY","2","0","2988","sept","8","jul","2","2018-07-19 17:18:28","494184"
"A3AV0VB57J8RXD","cs_wg_full_v4_conf_pilot1","33F859I566EJSMIJIYNR9LLYZG0BHB","32",NULL,"JULY","11","MARCH","6","0","1801","july","11","march","6","2018-07-19 17:18:30","494185"
"A2OC2MOL9TJ8BN","cs_wg_full_v4_conf_pilot1","37FMASSAYCSJOHT3OG5C9XMDZTFBI4","85",NULL,"JULY","7","NOVEMBER","5","0","830","July","7","November","5","2018-07-19 17:18:31","494186"
"A1VV2UWNLV3WC1","cs_wg_full_v4_conf_pilot1","3Z3ZLGNNSIVR2KD9MVVF0GFN2BJ3Q8","32",NULL,"JUNE","8","MAY","4","0","3820","JUNE","8","MAY","4","2018-07-19 17:18:34","494187"
"A3JM2BJIOZAGM7","cs_wg_full_v4_conf_pilot1","37U1UTWH9VNDFIYFBRFBWNX3EJD8R6","13",NULL,"MARCH","6","JANUARY","7","0","8362","march","6","january","7","2018-07-19 17:18:40","494188"
"A2OC2MOL9TJ8BN","cs_wg_full_v4_conf_pilot1","37FMASSAYCSJOHT3OG5C9XMDZTFBI4","86",NULL,"OCTOBER","1","JANUARY","9","0","821","October","1","January","9","2018-07-19 17:18:42","494189"
"A6SKM7JAK74D5","cs_wg_full_v4_conf_pilot1","345LHZDEDXTJUDKQ34FKAHCC5WP3UD","39",NULL,"AUGUST","1","JANUARY","5","0","4164","aug","1","jan","5","2018-07-19 17:18:43","494190"
"A1FTTOECAA04JO","cs_wg_full_v4_conf_pilot1","3SUWZRL0MYE120AMW6YDD22TTZX6E5","22",NULL,"MAY","11","OCTOBER","8","1","6878","MAY","11","OCTOBER","8","2018-07-19 17:18:45","494191"
"A3AV0VB57J8RXD","cs_wg_full_v4_conf_pilot1","33F859I566EJSMIJIYNR9LLYZG0BHB","33",NULL,"JUNE","12","JULY","11","1","2369","june","12","july","11","2018-07-19 17:18:46","494192"
"AQ9Y6WD8O72ZC","cs_wg_full_v4_conf_pilot1","34MAJL3QP4OKDFQBOYO2XDEI6J143R","12",NULL,"FEBRUARY","7","JUNE","8","1","4272","february","7","june","8","2018-07-19 17:18:47","494193"
"AA05GDUNJHJ2Z","cs_wg_full_v4_conf_pilot1","3M0BCWMB8VX1PCD8DX9RAOVLE4CWBV","20",NULL,"OCTOBER","6","JULY","7","0","4502","OCTOBER","6","JULY","7","2018-07-19 17:18:50","494194"
"A2OC2MOL9TJ8BN","cs_wg_full_v4_conf_pilot1","37FMASSAYCSJOHT3OG5C9XMDZTFBI4","87",NULL,"FEBRUARY","4","APRIL","11","1","1558","February","4","April","11","2018-07-19 17:18:54","494195"
"A6SKM7JAK74D5","cs_wg_full_v4_conf_pilot1","345LHZDEDXTJUDKQ34FKAHCC5WP3UD","40",NULL,"AUGUST","1","SEPTEMBER","8","1","2428","aug","1","sept","8","2018-07-19 17:18:55","494196"
"A3JM2BJIOZAGM7","cs_wg_full_v4_conf_pilot1","37U1UTWH9VNDFIYFBRFBWNX3EJD8R6","14",NULL,"DECEMBER","9","NOVEMBER","3","1","6316","december ","9","november","3","2018-07-19 17:18:56","494197"
"A1VV2UWNLV3WC1","cs_wg_full_v4_conf_pilot1","3Z3ZLGNNSIVR2KD9MVVF0GFN2BJ3Q8","33",NULL,"APRIL","2","SEPTEMBER","6","0","2323","APRIL","2","SEPTEMBER","2","2018-07-19 17:18:58","494198"
"A3AV0VB57J8RXD","cs_wg_full_v4_conf_pilot1","33F859I566EJSMIJIYNR9LLYZG0BHB","34",NULL,"JANUARY","3","SEPTEMBER","4","0","2738","january","3","september","4","2018-07-19 17:19:05","494199"
"A2OC2MOL9TJ8BN","cs_wg_full_v4_conf_pilot1","37FMASSAYCSJOHT3OG5C9XMDZTFBI4","88",NULL,"NOVEMBER","5","SEPTEMBER","8","1","1578","November","5","September","8","2018-07-19 17:19:05","494200"
"A1FTTOECAA04JO","cs_wg_full_v4_conf_pilot1","3SUWZRL0MYE120AMW6YDD22TTZX6E5","23",NULL,"JUNE","12","AUGUST","4","0","11415","june","12","august","4","2018-07-19 17:19:11","494201"
"A8V6H7P6J8S0U","cs_wg_full_v4_conf_pilot1","3TMFV4NEP8FINEF1ALPHJM5K6YRW8W","6",NULL,"MAY","6","NOVEMBER","8","1","5136","MAY","6","NOVEMBER","8","2018-07-19 17:19:11","494202"
"AA05GDUNJHJ2Z","cs_wg_full_v4_conf_pilot1","3M0BCWMB8VX1PCD8DX9RAOVLE4CWBV","21",NULL,"MARCH","10","JUNE","1","1","2506","MARCH","10","JUNE","1","2018-07-19 17:19:12","494203"
"A3JM2BJIOZAGM7","cs_wg_full_v4_conf_pilot1","37U1UTWH9VNDFIYFBRFBWNX3EJD8R6","15",NULL,"MARCH","6","FEBRUARY","1","0","1792","march","6","february","1","2018-07-19 17:19:12","494204"
"A6SKM7JAK74D5","cs_wg_full_v4_conf_pilot1","345LHZDEDXTJUDKQ34FKAHCC5WP3UD","41",NULL,"APRIL","7","MARCH","10","0","6946","apr","7","mar","10","2018-07-19 17:19:17","494205"
"AQ9Y6WD8O72ZC","cs_wg_full_v4_conf_pilot1","34MAJL3QP4OKDFQBOYO2XDEI6J143R","13",NULL,"JANUARY","5","NOVEMBER","4","1","3224","january","5","november","4","2018-07-19 17:19:18","494206"
"A2OC2MOL9TJ8BN","cs_wg_full_v4_conf_pilot1","37FMASSAYCSJOHT3OG5C9XMDZTFBI4","89",NULL,"OCTOBER","1","DECEMBER","6","1","3002","October","1","December","6","2018-07-19 17:19:18","494207"
"A1VV2UWNLV3WC1","cs_wg_full_v4_conf_pilot1","3Z3ZLGNNSIVR2KD9MVVF0GFN2BJ3Q8","34",NULL,"NOVEMBER","1","SEPTEMBER","6","0","2292","NOVEMBER","7","SEPTEMBER","6","2018-07-19 17:19:23","494208"
"A3AV0VB57J8RXD","cs_wg_full_v4_conf_pilot1","33F859I566EJSMIJIYNR9LLYZG0BHB","35",NULL,"MARCH","6","JANUARY","3","1","5739","march","6","january","3","2018-07-19 17:19:25","494209"
"AA05GDUNJHJ2Z","cs_wg_full_v4_conf_pilot1","3M0BCWMB8VX1PCD8DX9RAOVLE4CWBV","22",NULL,"MAY","8","OCTOBER","6","1","2260","MAY","8","OCTOBER","6","2018-07-19 17:19:30","494210"
"A2OC2MOL9TJ8BN","cs_wg_full_v4_conf_pilot1","37FMASSAYCSJOHT3OG5C9XMDZTFBI4","90",NULL,"APRIL","11","SEPTEMBER","8","0","1504","April","11","September","8","2018-07-19 17:19:31","494211"
"A1UXNE9W0BVXIG","cs_wg_full_v4_conf_pilot1","38JBBYETQOBNND68DI5YG4IFX8RE4S","26",NULL,"JULY","2","FEBRUARY","5","0","1567","JULY","2","FEBRAURY","5","2018-07-19 17:19:35","494212"
"A3JM2BJIOZAGM7","cs_wg_full_v4_conf_pilot1","37U1UTWH9VNDFIYFBRFBWNX3EJD8R6","16",NULL,"FEBRUARY","1","DECEMBER","9","0","3989","february","1","december","9","2018-07-19 17:19:38","494213"
"A3AV0VB57J8RXD","cs_wg_full_v4_conf_pilot1","33F859I566EJSMIJIYNR9LLYZG0BHB","36",NULL,"MAY","5","JANUARY","3","0","3447","may","5","january","3","2018-07-19 17:19:40","494214"
"AQ9Y6WD8O72ZC","cs_wg_full_v4_conf_pilot1","34MAJL3QP4OKDFQBOYO2XDEI6J143R","14",NULL,"AUGUST","2","APRIL","10","1","2668","august","2","april","10","2018-07-19 17:19:41","494215"
"A6SKM7JAK74D5","cs_wg_full_v4_conf_pilot1","345LHZDEDXTJUDKQ34FKAHCC5WP3UD","42",NULL,"MAY","9","APRIL","7","1","5877","may","9","apr","7","2018-07-19 17:19:41","494216"
"A2OC2MOL9TJ8BN","cs_wg_full_v4_conf_pilot1","37FMASSAYCSJOHT3OG5C9XMDZTFBI4","91",NULL,"APRIL","11","JANUARY","9","0","977","April","11","January","9","2018-07-19 17:19:42","494217"
"A1VV2UWNLV3WC1","cs_wg_full_v4_conf_pilot1","3Z3ZLGNNSIVR2KD9MVVF0GFN2BJ3Q8","35",NULL,"SEPTEMBER","6","DECEMBER","12","0","2876","OCTOBER","12","DECEMBER","12","2018-07-19 17:19:45","494218"
"AA05GDUNJHJ2Z","cs_wg_full_v4_conf_pilot1","3M0BCWMB8VX1PCD8DX9RAOVLE4CWBV","23",NULL,"JULY","7","APRIL","9","0","2088","JULY","7","APRIL","9","2018-07-19 17:19:49","494219"
"A8V6H7P6J8S0U","cs_wg_full_v4_conf_pilot1","3TMFV4NEP8FINEF1ALPHJM5K6YRW8W","7",NULL,"NOVEMBER","8","DECEMBER","2","1","2278","NOVEMBER","8","DECEMBER","2","2018-07-19 17:19:49","494220"
"A3JM2BJIOZAGM7","cs_wg_full_v4_conf_pilot1","37U1UTWH9VNDFIYFBRFBWNX3EJD8R6","17",NULL,"APRIL","10","DECEMBER","9","1","2629","april","10","december","9","2018-07-19 17:19:50","494221"
"A6SKM7JAK74D5","cs_wg_full_v4_conf_pilot1","345LHZDEDXTJUDKQ34FKAHCC5WP3UD","43",NULL,"SEPTEMBER","8","DECEMBER","4","0","2202","sept","8","dec","4","2018-07-19 17:19:51","494222"
"A1UXNE9W0BVXIG","cs_wg_full_v4_conf_pilot1","38JBBYETQOBNND68DI5YG4IFX8RE4S","27",NULL,"AUGUST","12","MAY","7","0","1586","AUGUST","12","MAY","7","2018-07-19 17:19:52","494223"
"A2OC2MOL9TJ8BN","cs_wg_full_v4_conf_pilot1","37FMASSAYCSJOHT3OG5C9XMDZTFBI4","92",NULL,"NOVEMBER","5","FEBRUARY","4","0","1533","November","5","February","4","2018-07-19 17:19:54","494224"
"A3AV0VB57J8RXD","cs_wg_full_v4_conf_pilot1","33F859I566EJSMIJIYNR9LLYZG0BHB","37",NULL,"DECEMBER","8","JANUARY","3","0","3285","december","8","january","3","2018-07-19 17:19:55","494225"
"AQ9Y6WD8O72ZC","cs_wg_full_v4_conf_pilot1","34MAJL3QP4OKDFQBOYO2XDEI6J143R","15",NULL,"MARCH","12","APRIL","10","0","2625","march","12","april","10","2018-07-19 17:19:56","494226"
"A2OC2MOL9TJ8BN","cs_wg_full_v4_conf_pilot1","37FMASSAYCSJOHT3OG5C9XMDZTFBI4","93",NULL,"DECEMBER","6","FEBRUARY","4","0","2167","December","6","February","4","2018-07-19 17:20:06","494227"
"A6SKM7JAK74D5","cs_wg_full_v4_conf_pilot1","345LHZDEDXTJUDKQ34FKAHCC5WP3UD","44",NULL,"SEPTEMBER","8","FEBRUARY","3","0","3622","sept","8","feb","4","2018-07-19 17:20:07","494228"
"A3JM2BJIOZAGM7","cs_wg_full_v4_conf_pilot1","37U1UTWH9VNDFIYFBRFBWNX3EJD8R6","18",NULL,"NOVEMBER","3","FEBRUARY","1","1","9881","november","3","february","1","2018-07-19 17:20:10","494229"
"AA05GDUNJHJ2Z","cs_wg_full_v4_conf_pilot1","3M0BCWMB8VX1PCD8DX9RAOVLE4CWBV","24",NULL,"MAY","8","NOVEMBER","3","0","3361","MAY","8","NOVOMBER","3","2018-07-19 17:20:11","494230"
"AQ9Y6WD8O72ZC","cs_wg_full_v4_conf_pilot1","34MAJL3QP4OKDFQBOYO2XDEI6J143R","16",NULL,"JUNE","8","SEPTEMBER","9","1","3044","june","8","september","9","2018-07-19 17:20:14","494231"
"A1FTTOECAA04JO","cs_wg_full_v4_conf_pilot1","3SUWZRL0MYE120AMW6YDD22TTZX6E5","24",NULL,"JULY","2","DECEMBER","9","0","38447","JULY","2","DECEMBER","9","2018-07-19 17:20:14","494232"
"A6SKM7JAK74D5","cs_wg_full_v4_conf_pilot1","345LHZDEDXTJUDKQ34FKAHCC5WP3UD","45",NULL,"OCTOBER","12","FEBRUARY","3","0","2866","oct","11","feb","3","2018-07-19 17:20:22","494233"
"A3JM2BJIOZAGM7","cs_wg_full_v4_conf_pilot1","37U1UTWH9VNDFIYFBRFBWNX3EJD8R6","19",NULL,"MARCH","6","APRIL","10","0","3100","march","6","april","10","2018-07-19 17:20:23","494234"
"A1UXNE9W0BVXIG","cs_wg_full_v4_conf_pilot1","38JBBYETQOBNND68DI5YG4IFX8RE4S","28",NULL,"JANUARY","10","FEBRUARY","5","0","1493","JANUARY","10","FEBRAURY","5","2018-07-19 17:20:27","494235"
"A1FTTOECAA04JO","cs_wg_full_v4_conf_pilot1","3SUWZRL0MYE120AMW6YDD22TTZX6E5","25",NULL,"MARCH","5","FEBRUARY","6","0","3044","march","5","february","6","2018-07-19 17:20:31","494236"
"AA05GDUNJHJ2Z","cs_wg_full_v4_conf_pilot1","3M0BCWMB8VX1PCD8DX9RAOVLE4CWBV","25",NULL,"AUGUST","2","DECEMBER","4","1","2670","AUGUST","2","DECEMBER","4","2018-07-19 17:20:34","494237"
"A8V6H7P6J8S0U","cs_wg_full_v4_conf_pilot1","3TMFV4NEP8FINEF1ALPHJM5K6YRW8W","8",NULL,"NOVEMBER","8","SEPTEMBER","10","1","1471","NOVEMBER","8","SEPTEMBER","10","2018-07-19 17:20:36","494238"
"AQ9Y6WD8O72ZC","cs_wg_full_v4_conf_pilot1","34MAJL3QP4OKDFQBOYO2XDEI6J143R","17",NULL,"JUNE","8","JANUARY","5","0","6409","june","8","january","5","2018-07-19 17:20:37","494239"
"A6SKM7JAK74D5","cs_wg_full_v4_conf_pilot1","345LHZDEDXTJUDKQ34FKAHCC5WP3UD","46",NULL,"SEPTEMBER","8","JANUARY","5","0","2769","sept","5","jan","4","2018-07-19 17:20:37","494240"
"A3JM2BJIOZAGM7","cs_wg_full_v4_conf_pilot1","37U1UTWH9VNDFIYFBRFBWNX3EJD8R6","20",NULL,"AUGUST","11","NOVEMBER","3","0","2551","august","10","november","3","2018-07-19 17:20:40","494241"
"A2OC2MOL9TJ8BN","cs_wg_full_v4_conf_pilot1","37FMASSAYCSJOHT3OG5C9XMDZTFBI4","94",NULL,"JUNE","2","APRIL","11","0","869","June","2","April","11","2018-07-19 17:20:46","494242"
"A1FTTOECAA04JO","cs_wg_full_v4_conf_pilot1","3SUWZRL0MYE120AMW6YDD22TTZX6E5","26",NULL,"NOVEMBER","3","MARCH","5","0","3925","NOVEMBER","3","MARCH","5","2018-07-19 17:20:46","494243"
"A6SKM7JAK74D5","cs_wg_full_v4_conf_pilot1","345LHZDEDXTJUDKQ34FKAHCC5WP3UD","47",NULL,"SEPTEMBER","8","JUNE","11","0","1991","sept","8","jun","11","2018-07-19 17:20:50","494244"
"A1UXNE9W0BVXIG","cs_wg_full_v4_conf_pilot1","38JBBYETQOBNND68DI5YG4IFX8RE4S","29",NULL,"AUGUST","12","FEBRUARY","5","0","4844","AUGUSTY","12","FEBRAURY","5","2018-07-19 17:20:50","494245"
"A3JM2BJIOZAGM7","cs_wg_full_v4_conf_pilot1","37U1UTWH9VNDFIYFBRFBWNX3EJD8R6","21",NULL,"APRIL","10","SEPTEMBER","4","1","722","april","10","september","4","2018-07-19 17:20:50","494246"
"AA05GDUNJHJ2Z","cs_wg_full_v4_conf_pilot1","3M0BCWMB8VX1PCD8DX9RAOVLE4CWBV","26",NULL,"JUNE","1","NOVEMBER","3","1","2618","JUNE","1","NOVOMBER","3","2018-07-19 17:20:54","494247"
"AQ9Y6WD8O72ZC","cs_wg_full_v4_conf_pilot1","34MAJL3QP4OKDFQBOYO2XDEI6J143R","18",NULL,"JANUARY","5","MAY","11","1","2566","january","5","may","11","2018-07-19 17:20:58","494248"
"A2OC2MOL9TJ8BN","cs_wg_full_v4_conf_pilot1","37FMASSAYCSJOHT3OG5C9XMDZTFBI4","95",NULL,"NOVEMBER","5","JULY","7","1","1848","November","5","July","7","2018-07-19 17:20:58","494249"
"A1FTTOECAA04JO","cs_wg_full_v4_conf_pilot1","3SUWZRL0MYE120AMW6YDD22TTZX6E5","27",NULL,"JANUARY","10","FEBRUARY","6","0","3014","JANUARY","10","FEBRUARY","6","2018-07-19 17:20:59","494250"
"A6SKM7JAK74D5","cs_wg_full_v4_conf_pilot1","345LHZDEDXTJUDKQ34FKAHCC5WP3UD","48",NULL,"JULY","2","APRIL","7","1","2414","july","7","apr","2","2018-07-19 17:21:04","494251"
"A1UXNE9W0BVXIG","cs_wg_full_v4_conf_pilot1","38JBBYETQOBNND68DI5YG4IFX8RE4S","30",NULL,"MARCH","8","JULY","2","0","1461","MARCH","10","JULY","2","2018-07-19 17:21:04","494252"
"A1FTTOECAA04JO","cs_wg_full_v4_conf_pilot1","3SUWZRL0MYE120AMW6YDD22TTZX6E5","28",NULL,"JUNE","12","JULY","2","0","3590","JUNE","12","JULY","2","2018-07-19 17:21:11","494253"
"A2OC2MOL9TJ8BN","cs_wg_full_v4_conf_pilot1","37FMASSAYCSJOHT3OG5C9XMDZTFBI4","96",NULL,"AUGUST","10","APRIL","11","0","1540","August","10","April","11","2018-07-19 17:21:12","494254"
"AQ9Y6WD8O72ZC","cs_wg_full_v4_conf_pilot1","34MAJL3QP4OKDFQBOYO2XDEI6J143R","19",NULL,"AUGUST","2","MAY","11","1","2531","august","2","may","11","2018-07-19 17:21:18","494255"
"A1UXNE9W0BVXIG","cs_wg_full_v4_conf_pilot1","38JBBYETQOBNND68DI5YG4IFX8RE4S","31",NULL,"JANUARY","10","MAY","7","0","1444","JANUARY","10","MAY","7","2018-07-19 17:21:18","494256"
"A8V6H7P6J8S0U","cs_wg_full_v4_conf_pilot1","3TMFV4NEP8FINEF1ALPHJM5K6YRW8W","9",NULL,"DECEMBER","2","JULY","5","1","1724","DECEMBER","2","JULY","5","2018-07-19 17:21:19","494257"
"AA05GDUNJHJ2Z","cs_wg_full_v4_conf_pilot1","3M0BCWMB8VX1PCD8DX9RAOVLE4CWBV","27",NULL,"MARCH","10","SEPTEMBER","11","1","3857","MARCH","10","SEPTEMBER","11","2018-07-19 17:21:25","494258"
"A1FTTOECAA04JO","cs_wg_full_v4_conf_pilot1","3SUWZRL0MYE120AMW6YDD22TTZX6E5","29",NULL,"JANUARY","10","JULY","2","0","4430","JANUARY","10","JULY","2","2018-07-19 17:21:26","494259"
"A2OC2MOL9TJ8BN","cs_wg_full_v4_conf_pilot1","37FMASSAYCSJOHT3OG5C9XMDZTFBI4","97",NULL,"FEBRUARY","4","JULY","7","1","1277","February ","4","July","7","2018-07-19 17:21:26","494260"
"A6SKM7JAK74D5","cs_wg_full_v4_conf_pilot1","345LHZDEDXTJUDKQ34FKAHCC5WP3UD","49",NULL,"DECEMBER","4","JUNE","11","0","6272","dec","4","june","11","2018-07-19 17:21:27","494261"
"A1UXNE9W0BVXIG","cs_wg_full_v4_conf_pilot1","38JBBYETQOBNND68DI5YG4IFX8RE4S","32",NULL,"JULY","2","MARCH","8","0","1664","JULY","2","MARCH","8","2018-07-19 17:21:32","494262"
"AQ9Y6WD8O72ZC","cs_wg_full_v4_conf_pilot1","34MAJL3QP4OKDFQBOYO2XDEI6J143R","20",NULL,"JUNE","8","DECEMBER","6","1","2259","june ","8","december","6","2018-07-19 17:21:35","494263"
"A2OC2MOL9TJ8BN","cs_wg_full_v4_conf_pilot1","37FMASSAYCSJOHT3OG5C9XMDZTFBI4","98",NULL,"MARCH","12","DECEMBER","6","0","1610","March","12","December","6","2018-07-19 17:21:38","494264"
"A1VV2UWNLV3WC1","cs_wg_full_v4_conf_pilot1","3Z3ZLGNNSIVR2KD9MVVF0GFN2BJ3Q8","36",NULL,"OCTOBER","7","FEBRUARY","10","0","13618","FEBRAVARY

FEBRUARY = 10 points","OCTOBER = 7 points


10","OCTOBER","7","2018-07-19 17:21:41","494265"
"AA05GDUNJHJ2Z","cs_wg_full_v4_conf_pilot1","3M0BCWMB8VX1PCD8DX9RAOVLE4CWBV","28",NULL,"MAY","8","APRIL","9","1","3715","MAY","8","APRIL","9","2018-07-19 17:21:44","494266"
"A6SKM7JAK74D5","cs_wg_full_v4_conf_pilot1","345LHZDEDXTJUDKQ34FKAHCC5WP3UD","50",NULL,"SEPTEMBER","8","AUGUST","1","0","4661","sept","11","aug","1","2018-07-19 17:21:45","494267"
"A1FTTOECAA04JO","cs_wg_full_v4_conf_pilot1","3SUWZRL0MYE120AMW6YDD22TTZX6E5","30",NULL,"NOVEMBER","3","AUGUST","4","0","3807","NOVEMBER","3","AUGUST","4","2018-07-19 17:21:48","494268"
"A1UXNE9W0BVXIG","cs_wg_full_v4_conf_pilot1","38JBBYETQOBNND68DI5YG4IFX8RE4S","33",NULL,"NOVEMBER","3","SEPTEMBER","4","0","1477","NOVEMBER","3","AEPTEMBER","4","2018-07-19 17:21:48","494269"
"A2OC2MOL9TJ8BN","cs_wg_full_v4_conf_pilot1","37FMASSAYCSJOHT3OG5C9XMDZTFBI4","99",NULL,"AUGUST","10","SEPTEMBER","8","0","1286","August","10","September","8","2018-07-19 17:21:51","494270"
"AQ9Y6WD8O72ZC","cs_wg_full_v4_conf_pilot1","34MAJL3QP4OKDFQBOYO2XDEI6J143R","21",NULL,"JUNE","8","FEBRUARY","7","0","3354","june","8","february","7","2018-07-19 17:21:55","494271"
"A3AV0VB57J8RXD","cs_wg_full_v4_conf_pilot1","33F859I566EJSMIJIYNR9LLYZG0BHB","38",NULL,"OCTOBER","9","DECEMBER","8","1","111283","october","9","december","8","2018-07-19 17:21:59","494272"
"A1FTTOECAA04JO","cs_wg_full_v4_conf_pilot1","3SUWZRL0MYE120AMW6YDD22TTZX6E5","31",NULL,"SEPTEMBER","1","AUGUST","4","0","3565","SEPTEMBER","1","AUGUST","4","2018-07-19 17:22:00","494273"
"AA05GDUNJHJ2Z","cs_wg_full_v4_conf_pilot1","3M0BCWMB8VX1PCD8DX9RAOVLE4CWBV","29",NULL,"JULY","7","MARCH","10","1","1839","JULY","7","MARCH","10","2018-07-19 17:22:02","494274"
"A1UXNE9W0BVXIG","cs_wg_full_v4_conf_pilot1","38JBBYETQOBNND68DI5YG4IFX8RE4S","34",NULL,"AUGUST","12","NOVEMBER","3","0","1427","AUGUST","12","SEPTEMBER","3","2018-07-19 17:22:03","494275"
"A2OC2MOL9TJ8BN","cs_wg_full_v4_conf_pilot1","37FMASSAYCSJOHT3OG5C9XMDZTFBI4","100",NULL,"JANUARY","9","SEPTEMBER","8","1","1607","January","9","September","8","2018-07-19 17:22:05","494276"
"A8V6H7P6J8S0U","cs_wg_full_v4_conf_pilot1","3TMFV4NEP8FINEF1ALPHJM5K6YRW8W","10",NULL,"FEBRUARY","3","JULY","5","1","3448","FEBRUARY","3","JULY","5","2018-07-19 17:22:06","494277"
"A6SKM7JAK74D5","cs_wg_full_v4_conf_pilot1","345LHZDEDXTJUDKQ34FKAHCC5WP3UD","51",NULL,"MAY","9","FEBRUARY","3","0","2804","may","9","feb","3","2018-07-19 17:22:06","494278"
"A1FTTOECAA04JO","cs_wg_full_v4_conf_pilot1","3SUWZRL0MYE120AMW6YDD22TTZX6E5","32",NULL,"NOVEMBER","3","JANUARY","10","1","2765","NOVEMBER ","3","JANUARY","10","2018-07-19 17:22:12","494279"
"AQ9Y6WD8O72ZC","cs_wg_full_v4_conf_pilot1","34MAJL3QP4OKDFQBOYO2XDEI6J143R","22",NULL,"MAY","11","AUGUST","2","0","2007","may","11","august","2","2018-07-19 17:22:12","494280"
"A3AV0VB57J8RXD","cs_wg_full_v4_conf_pilot1","33F859I566EJSMIJIYNR9LLYZG0BHB","39",NULL,"DECEMBER","8","AUGUST","7","0","3694","december","8","august","7","2018-07-19 17:22:15","494281"
"A1VV2UWNLV3WC1","cs_wg_full_v4_conf_pilot1","3Z3ZLGNNSIVR2KD9MVVF0GFN2BJ3Q8","37",NULL,"AUGUST","3","MARCH","9","1","16900","AUGUST","3","MARCH","10","2018-07-19 17:22:16","494282"
"A2OC2MOL9TJ8BN","cs_wg_full_v4_conf_pilot1","37FMASSAYCSJOHT3OG5C9XMDZTFBI4","101",NULL,"SEPTEMBER","8","JUNE","2","0","1567","September","8","June","2","2018-07-19 17:22:16","494283"
"A1UXNE9W0BVXIG","cs_wg_full_v4_conf_pilot1","38JBBYETQOBNND68DI5YG4IFX8RE4S","35",NULL,"JULY","2","NOVEMBER","3","0","1510","JULY","2","NOVEMBER","3","2018-07-19 17:22:18","494284"
"A6SKM7JAK74D5","cs_wg_full_v4_conf_pilot1","345LHZDEDXTJUDKQ34FKAHCC5WP3UD","52",NULL,"MARCH","10","SEPTEMBER","8","0","6054","mar","11","sep","8","2018-07-19 17:22:20","494285"
"AA05GDUNJHJ2Z","cs_wg_full_v4_conf_pilot1","3M0BCWMB8VX1PCD8DX9RAOVLE4CWBV","30",NULL,"NOVEMBER","3","MARCH","10","1","1932","NOVOMBER","3","MARCH","10","2018-07-19 17:22:23","494286"
"A1FTTOECAA04JO","cs_wg_full_v4_conf_pilot1","3SUWZRL0MYE120AMW6YDD22TTZX6E5","33",NULL,"NOVEMBER","3","MAY","11","1","2462","NOVEMBER","3","MAY","11","2018-07-19 17:22:27","494287"
"A3AV0VB57J8RXD","cs_wg_full_v4_conf_pilot1","33F859I566EJSMIJIYNR9LLYZG0BHB","40",NULL,"MARCH","6","JULY","11","1","2898","march","6","july","11","2018-07-19 17:22:31","494288"
"A2OC2MOL9TJ8BN","cs_wg_full_v4_conf_pilot1","37FMASSAYCSJOHT3OG5C9XMDZTFBI4","102",NULL,"JANUARY","9","MAY","3","1","4275","January","9","May","3","2018-07-19 17:22:31","494289"
"AQ9Y6WD8O72ZC","cs_wg_full_v4_conf_pilot1","34MAJL3QP4OKDFQBOYO2XDEI6J143R","23",NULL,"APRIL","10","DECEMBER","6","0","3639","april","10","december","6","2018-07-19 17:22:33","494290"
"A1VV2UWNLV3WC1","cs_wg_full_v4_conf_pilot1","3Z3ZLGNNSIVR2KD9MVVF0GFN2BJ3Q8","38",NULL,"MAY","4","MARCH","9","0","5161","MAY","9","MARCH","4","2018-07-19 17:22:34","494291"
"A1UXNE9W0BVXIG","cs_wg_full_v4_conf_pilot1","38JBBYETQOBNND68DI5YG4IFX8RE4S","36",NULL,"APRIL","6","JULY","2","0","1172","APRILY","6","JULY","2","2018-07-19 17:22:37","494292"
"A6SKM7JAK74D5","cs_wg_full_v4_conf_pilot1","345LHZDEDXTJUDKQ34FKAHCC5WP3UD","53",NULL,"OCTOBER","12","MAY","9","0","8485","oct","12","may","9","2018-07-19 17:22:39","494293"
"A1FTTOECAA04JO","cs_wg_full_v4_conf_pilot1","3SUWZRL0MYE120AMW6YDD22TTZX6E5","34",NULL,"JULY","2","APRIL","7","1","3886","JULY","2","APRIL","7","2018-07-19 17:22:40","494294"
"A2OC2MOL9TJ8BN","cs_wg_full_v4_conf_pilot1","37FMASSAYCSJOHT3OG5C9XMDZTFBI4","103",NULL,"SEPTEMBER","8","APRIL","11","1","1237","September","8","April","11","2018-07-19 17:22:43","494295"
"A3AV0VB57J8RXD","cs_wg_full_v4_conf_pilot1","33F859I566EJSMIJIYNR9LLYZG0BHB","41",NULL,"SEPTEMBER","4","AUGUST","7","1","4704","september","4","august","7","2018-07-19 17:22:48","494296"
"A1VV2UWNLV3WC1","cs_wg_full_v4_conf_pilot1","3Z3ZLGNNSIVR2KD9MVVF0GFN2BJ3Q8","39",NULL,"MAY","4","JULY","11","0","4003","MAY","7","JULY","11","2018-07-19 17:22:52","494297"
"AQ9Y6WD8O72ZC","cs_wg_full_v4_conf_pilot1","34MAJL3QP4OKDFQBOYO2XDEI6J143R","24",NULL,"SEPTEMBER","9","MAY","11","1","3011","sepetember","9","may","11","2018-07-19 17:22:53","494298"
"A2OC2MOL9TJ8BN","cs_wg_full_v4_conf_pilot1","37FMASSAYCSJOHT3OG5C9XMDZTFBI4","104",NULL,"OCTOBER","1","SEPTEMBER","8","1","1484","October","1","September","8","2018-07-19 17:22:55","494299"
"AA05GDUNJHJ2Z","cs_wg_full_v4_conf_pilot1","3M0BCWMB8VX1PCD8DX9RAOVLE4CWBV","31",NULL,"MARCH","10","JANUARY","12","1","2080","MARCH","10","JUNUERY","12","2018-07-19 17:22:56","494300"
"A1UXNE9W0BVXIG","cs_wg_full_v4_conf_pilot1","38JBBYETQOBNND68DI5YG4IFX8RE4S","37",NULL,"APRIL","6","OCTOBER","11","0","1754","APRIL","6","SEPTEMBER","11","2018-07-19 17:22:57","494301"
"A6SKM7JAK74D5","cs_wg_full_v4_conf_pilot1","345LHZDEDXTJUDKQ34FKAHCC5WP3UD","54",NULL,"APRIL","7","NOVEMBER","6","1","5626","apr","7","nov","6","2018-07-19 17:22:57","494302"
"A1FTTOECAA04JO","cs_wg_full_v4_conf_pilot1","3SUWZRL0MYE120AMW6YDD22TTZX6E5","35",NULL,"JANUARY","10","NOVEMBER","3","0","2334","JANUARY","10","NOVEMBER","3","2018-07-19 17:22:58","494303"
"A2OC2MOL9TJ8BN","cs_wg_full_v4_conf_pilot1","37FMASSAYCSJOHT3OG5C9XMDZTFBI4","105",NULL,"MARCH","12","SEPTEMBER","8","0","987","March","12","September","8","2018-07-19 17:23:06","494304"
"A8V6H7P6J8S0U","cs_wg_full_v4_conf_pilot1","3TMFV4NEP8FINEF1ALPHJM5K6YRW8W","11",NULL,"SEPTEMBER","10","AUGUST","4","1","4700","SEPTEMBER"," 10","AUGUST","4","2018-07-19 17:23:06","494305"
"A3AV0VB57J8RXD","cs_wg_full_v4_conf_pilot1","33F859I566EJSMIJIYNR9LLYZG0BHB","42",NULL,"SEPTEMBER","4","MAY","5","1","4895","september","4","may","5","2018-07-19 17:23:07","494306"
"AQ9Y6WD8O72ZC","cs_wg_full_v4_conf_pilot1","34MAJL3QP4OKDFQBOYO2XDEI6J143R","25",NULL,"SEPTEMBER","9","JUNE","8","1","4044","september","9","june","8","2018-07-19 17:23:08","494307"
"A1FTTOECAA04JO","cs_wg_full_v4_conf_pilot1","3SUWZRL0MYE120AMW6YDD22TTZX6E5","36",NULL,"AUGUST","4","APRIL","7","0","4127","AUGUST","4","APRIL","7","2018-07-19 17:23:13","494308"
"AA05GDUNJHJ2Z","cs_wg_full_v4_conf_pilot1","3M0BCWMB8VX1PCD8DX9RAOVLE4CWBV","32",NULL,"APRIL","9","JULY","7","1","3965","APRIL","9","JULY","7","2018-07-19 17:23:14","494309"
"A1UXNE9W0BVXIG","cs_wg_full_v4_conf_pilot1","38JBBYETQOBNND68DI5YG4IFX8RE4S","38",NULL,"AUGUST","12","OCTOBER","11","0","1502","AUGUST","12","OCTOBER","3","2018-07-19 17:23:15","494310"
"A2OC2MOL9TJ8BN","cs_wg_full_v4_conf_pilot1","37FMASSAYCSJOHT3OG5C9XMDZTFBI4","106",NULL,"FEBRUARY","4","JANUARY","9","0","1757","February","4","January","9","2018-07-19 17:23:18","494311"
"A6SKM7JAK74D5","cs_wg_full_v4_conf_pilot1","345LHZDEDXTJUDKQ34FKAHCC5WP3UD","55",NULL,"NOVEMBER","6","MAY","9","0","9789","nov","6","may9","9","2018-07-19 17:23:21","494312"
"A3AV0VB57J8RXD","cs_wg_full_v4_conf_pilot1","33F859I566EJSMIJIYNR9LLYZG0BHB","43",NULL,"SEPTEMBER","4","OCTOBER","9","1","2360","september","4","october","9","2018-07-19 17:23:23","494313"
"AQ9Y6WD8O72ZC","cs_wg_full_v4_conf_pilot1","34MAJL3QP4OKDFQBOYO2XDEI6J143R","26",NULL,"AUGUST","2","FEBRUARY","7","0","4660","august","2","february","7","2018-07-19 17:23:28","494314"
"A1FTTOECAA04JO","cs_wg_full_v4_conf_pilot1","3SUWZRL0MYE120AMW6YDD22TTZX6E5","37",NULL,"MARCH","5","NOVEMBER","3","0","2622","MARCH","5","NOVEMBER","3","2018-07-19 17:23:29","494315"
"AA05GDUNJHJ2Z","cs_wg_full_v4_conf_pilot1","3M0BCWMB8VX1PCD8DX9RAOVLE4CWBV","33",NULL,"MAY","8","JULY","7","1","1850","MAY","8","JULY","7","2018-07-19 17:23:30","494316"
"A1UXNE9W0BVXIG","cs_wg_full_v4_conf_pilot1","38JBBYETQOBNND68DI5YG4IFX8RE4S","39",NULL,"JULY","2","AUGUST","12","0","1609","JULY","2","august","12","2018-07-19 17:23:32","494317"
"A2OC2MOL9TJ8BN","cs_wg_full_v4_conf_pilot1","37FMASSAYCSJOHT3OG5C9XMDZTFBI4","107",NULL,"JULY","7","JANUARY","9","0","717","July","7","January","9","2018-07-19 17:23:33","494318"
"A1VV2UWNLV3WC1","cs_wg_full_v4_conf_pilot1","3Z3ZLGNNSIVR2KD9MVVF0GFN2BJ3Q8","40",NULL,"MARCH","9","NOVEMBER","1","0","28541","MARCH","9","NOVEMBER","1","2018-07-19 17:23:38","494319"
"AQ9Y6WD8O72ZC","cs_wg_full_v4_conf_pilot1","34MAJL3QP4OKDFQBOYO2XDEI6J143R","27",NULL,"JUNE","8","MARCH","12","1","2307","june","8","march","12","2018-07-19 17:23:41","494320"
"A3AV0VB57J8RXD","cs_wg_full_v4_conf_pilot1","33F859I566EJSMIJIYNR9LLYZG0BHB","44",NULL,"MAY","5","SEPTEMBER","4","0","4506","may","5","september","4","2018-07-19 17:23:44","494321"
"A1FTTOECAA04JO","cs_wg_full_v4_conf_pilot1","3SUWZRL0MYE120AMW6YDD22TTZX6E5","38",NULL,"FEBRUARY","6","APRIL","7","1","6295","FEBRUARY","6","APRIL","7","2018-07-19 17:23:46","494322"
"A6SKM7JAK74D5","cs_wg_full_v4_conf_pilot1","345LHZDEDXTJUDKQ34FKAHCC5WP3UD","56",NULL,"APRIL","7","FEBRUARY","3","0","6297","APR","7FEB9","feb","9","2018-07-19 17:23:48","494323"
"A1UXNE9W0BVXIG","cs_wg_full_v4_conf_pilot1","38JBBYETQOBNND68DI5YG4IFX8RE4S","40",NULL,"NOVEMBER","3","DECEMBER","9","0","1876","NOVEMBER","3","DECEMBER","9","2018-07-19 17:23:49","494324"
"AA05GDUNJHJ2Z","cs_wg_full_v4_conf_pilot1","3M0BCWMB8VX1PCD8DX9RAOVLE4CWBV","34",NULL,"APRIL","9","NOVEMBER","3","1","2831","APRIL","9","NOVOMBER","3","2018-07-19 17:23:52","494325"
"AQ9Y6WD8O72ZC","cs_wg_full_v4_conf_pilot1","34MAJL3QP4OKDFQBOYO2XDEI6J143R","28",NULL,"MAY","11","FEBRUARY","7","0","2563","may","11","february","7","2018-07-19 17:23:55","494326"
"A1FTTOECAA04JO","cs_wg_full_v4_conf_pilot1","3SUWZRL0MYE120AMW6YDD22TTZX6E5","39",NULL,"DECEMBER","9","JUNE","12","1","3615","DECEMBER","8","JUNE","12","2018-07-19 17:23:59","494327"
"A2OC2MOL9TJ8BN","cs_wg_full_v4_conf_pilot1","37FMASSAYCSJOHT3OG5C9XMDZTFBI4","108",NULL,"JANUARY","9","OCTOBER","1","0","21515","January","9","October","1","2018-07-19 17:24:04","494328"
"AA05GDUNJHJ2Z","cs_wg_full_v4_conf_pilot1","3M0BCWMB8VX1PCD8DX9RAOVLE4CWBV","35",NULL,"MAY","8","MARCH","10","1","1513","MAY","8","MARCH","10","2018-07-19 17:24:08","494329"
"A3AV0VB57J8RXD","cs_wg_full_v4_conf_pilot1","33F859I566EJSMIJIYNR9LLYZG0BHB","45",NULL,"OCTOBER","9","MARCH","6","1","11474","october","9","march","6","2018-07-19 17:24:10","494330"
"AQ9Y6WD8O72ZC","cs_wg_full_v4_conf_pilot1","34MAJL3QP4OKDFQBOYO2XDEI6J143R","29",NULL,"DECEMBER","6","MARCH","12","1","2511","december","6","march","11","2018-07-19 17:24:10","494331"
"A1FTTOECAA04JO","cs_wg_full_v4_conf_pilot1","3SUWZRL0MYE120AMW6YDD22TTZX6E5","40",NULL,"DECEMBER","9","MAY","11","0","3791","DECEMBER","9","MAY","11","2018-07-19 17:24:14","494332"
"A6SKM7JAK74D5","cs_wg_full_v4_conf_pilot1","345LHZDEDXTJUDKQ34FKAHCC5WP3UD","57",NULL,"FEBRUARY","3","JULY","2","0","12551","FEB","3","JUL","2","2018-07-19 17:24:15","494333"
"A2OC2MOL9TJ8BN","cs_wg_full_v4_conf_pilot1","37FMASSAYCSJOHT3OG5C9XMDZTFBI4","109",NULL,"SEPTEMBER","8","NOVEMBER","5","0","1246","September","8","November","5","2018-07-19 17:24:17","494334"
"A8V6H7P6J8S0U","cs_wg_full_v4_conf_pilot1","3TMFV4NEP8FINEF1ALPHJM5K6YRW8W","12",NULL,"JULY","5","FEBRUARY","3","1","1158","JULY","5","FEBRUARY","3","2018-07-19 17:24:22","494335"
"AA05GDUNJHJ2Z","cs_wg_full_v4_conf_pilot1","3M0BCWMB8VX1PCD8DX9RAOVLE4CWBV","36",NULL,"JUNE","1","JULY","7","1","1561","JUNE","1","JULY","7","2018-07-19 17:24:25","494336"
"A3AV0VB57J8RXD","cs_wg_full_v4_conf_pilot1","33F859I566EJSMIJIYNR9LLYZG0BHB","46",NULL,"APRIL","10","AUGUST","7","0","2621","april","10","august","7","2018-07-19 17:24:26","494337"
"AQ9Y6WD8O72ZC","cs_wg_full_v4_conf_pilot1","34MAJL3QP4OKDFQBOYO2XDEI6J143R","30",NULL,"NOVEMBER","4","MARCH","12","1","1731","november","4","march","12","2018-07-19 17:24:27","494338"
"A2OC2MOL9TJ8BN","cs_wg_full_v4_conf_pilot1","37FMASSAYCSJOHT3OG5C9XMDZTFBI4","110",NULL,"MARCH","12","OCTOBER","1","0","1275","March","12","October","1","2018-07-19 17:24:29","494339"
"A1FTTOECAA04JO","cs_wg_full_v4_conf_pilot1","3SUWZRL0MYE120AMW6YDD22TTZX6E5","41",NULL,"FEBRUARY","6","OCTOBER","8","1","4382","FEBRUARY","6","OCTOBER","8","2018-07-19 17:24:33","494340"
"A1VV2UWNLV3WC1","cs_wg_full_v4_conf_pilot1","3Z3ZLGNNSIVR2KD9MVVF0GFN2BJ3Q8","41",NULL,"JUNE","8","APRIL","2","0","2925","JUNE","8","APRIL","2","2018-07-19 17:24:36","494341"
"A1UXNE9W0BVXIG","cs_wg_full_v4_conf_pilot1","38JBBYETQOBNND68DI5YG4IFX8RE4S","41",NULL,"NOVEMBER","3","JUNE","1","0","1548","NOVEMBER","3","DECEMBER","4","2018-07-19 17:24:37","494342"
"A2OC2MOL9TJ8BN","cs_wg_full_v4_conf_pilot1","37FMASSAYCSJOHT3OG5C9XMDZTFBI4","111",NULL,"MAY","3","JUNE","2","0","1307","May","3","June","2","2018-07-19 17:24:39","494343"
"A3AV0VB57J8RXD","cs_wg_full_v4_conf_pilot1","33F859I566EJSMIJIYNR9LLYZG0BHB","47",NULL,"APRIL","10","FEBRUARY","1","0","2599","april","10","february","1","2018-07-19 17:24:40","494344"
"AQ9Y6WD8O72ZC","cs_wg_full_v4_conf_pilot1","34MAJL3QP4OKDFQBOYO2XDEI6J143R","31",NULL,"APRIL","10","MAY","11","1","1787","april","10","may","11","2018-07-19 17:24:40","494345"
"A6SKM7JAK74D5","cs_wg_full_v4_conf_pilot1","345LHZDEDXTJUDKQ34FKAHCC5WP3UD","58",NULL,"JUNE","11","JANUARY","5","1","7160","jun","11","jan","5","2018-07-19 17:24:41","494346"
"A1FTTOECAA04JO","cs_wg_full_v4_conf_pilot1","3SUWZRL0MYE120AMW6YDD22TTZX6E5","42",NULL,"FEBRUARY","6","MARCH","5","0","5077","FEBRUARY","6","MARCH","5","2018-07-19 17:24:49","494347"
"A2OC2MOL9TJ8BN","cs_wg_full_v4_conf_pilot1","37FMASSAYCSJOHT3OG5C9XMDZTFBI4","112",NULL,"NOVEMBER","5","AUGUST","10","1","3157","November","5","August","10","2018-07-19 17:24:53","494348"
"A1UXNE9W0BVXIG","cs_wg_full_v4_conf_pilot1","38JBBYETQOBNND68DI5YG4IFX8RE4S","42",NULL,"APRIL","6","JANUARY","10","0","1722","AAPRIL","6","JUNARY","10","2018-07-19 17:24:54","494349"
"AQ9Y6WD8O72ZC","cs_wg_full_v4_conf_pilot1","34MAJL3QP4OKDFQBOYO2XDEI6J143R","32",NULL,"MAY","11","APRIL","10","0","2155","may","11","april","10","2018-07-19 17:24:54","494350"
"A3AV0VB57J8RXD","cs_wg_full_v4_conf_pilot1","33F859I566EJSMIJIYNR9LLYZG0BHB","48",NULL,"MAY","5","MARCH","6","1","3210","may","5","march","6","2018-07-19 17:24:55","494351"
"AA05GDUNJHJ2Z","cs_wg_full_v4_conf_pilot1","3M0BCWMB8VX1PCD8DX9RAOVLE4CWBV","37",NULL,"NOVEMBER","3","SEPTEMBER","11","0","3197","OCTOBEREMBER","3","SEPT","11","2018-07-19 17:24:55","494352"
"A6SKM7JAK74D5","cs_wg_full_v4_conf_pilot1","345LHZDEDXTJUDKQ34FKAHCC5WP3UD","59",NULL,"APRIL","7","OCTOBER","12","1","9623","apr","7","0ct","11","2018-07-19 17:24:59","494353"
"A3JM2BJIOZAGM7","cs_wg_full_v4_conf_pilot1","37U1UTWH9VNDFIYFBRFBWNX3EJD8R6","22",NULL,"JANUARY","7","DECEMBER","9","0","239762","january","7","december","9","2018-07-19 17:24:59","494354"
"A1FTTOECAA04JO","cs_wg_full_v4_conf_pilot1","3SUWZRL0MYE120AMW6YDD22TTZX6E5","43",NULL,"FEBRUARY","6","AUGUST","4","1","7166","FEBRUARY","6","AUGUST","4","2018-07-19 17:25:04","494355"
"A1VV2UWNLV3WC1","cs_wg_full_v4_conf_pilot1","3Z3ZLGNNSIVR2KD9MVVF0GFN2BJ3Q8","42",NULL,"FEBRUARY","10","JUNE","8","0","8798","FEBURVARY","8","JUNE","10","2018-07-19 17:25:05","494356"
"A2OC2MOL9TJ8BN","cs_wg_full_v4_conf_pilot1","37FMASSAYCSJOHT3OG5C9XMDZTFBI4","113",NULL,"NOVEMBER","5","DECEMBER","6","1","1777","November","5","December","6","2018-07-19 17:25:05","494357"
"AQ9Y6WD8O72ZC","cs_wg_full_v4_conf_pilot1","34MAJL3QP4OKDFQBOYO2XDEI6J143R","33",NULL,"APRIL","10","FEBRUARY","7","0","1612","april","10","february","7","2018-07-19 17:25:09","494358"
"A1UXNE9W0BVXIG","cs_wg_full_v4_conf_pilot1","38JBBYETQOBNND68DI5YG4IFX8RE4S","43",NULL,"JANUARY","10","SEPTEMBER","4","0","2103","JNUARY","10","SEPTEMBER","4","2018-07-19 17:25:11","494359"
"A3AV0VB57J8RXD","cs_wg_full_v4_conf_pilot1","33F859I566EJSMIJIYNR9LLYZG0BHB","49",NULL,"FEBRUARY","1","OCTOBER","9","1","2403","februatry","1","october","6","2018-07-19 17:25:12","494360"
"A1FTTOECAA04JO","cs_wg_full_v4_conf_pilot1","3SUWZRL0MYE120AMW6YDD22TTZX6E5","44",NULL,"OCTOBER","8","FEBRUARY","6","0","3846","OCTOBER","8","FEBRUARY","6","2018-07-19 17:25:17","494361"
"A2OC2MOL9TJ8BN","cs_wg_full_v4_conf_pilot1","37FMASSAYCSJOHT3OG5C9XMDZTFBI4","114",NULL,"FEBRUARY","4","DECEMBER","6","0","2168","February","4","December","6","2018-07-19 17:25:18","494362"
"A6SKM7JAK74D5","cs_wg_full_v4_conf_pilot1","345LHZDEDXTJUDKQ34FKAHCC5WP3UD","60",NULL,"DECEMBER","4","MARCH","10","0","4300","dec","4","mar ","11","2018-07-19 17:25:19","494363"
"A1VV2UWNLV3WC1","cs_wg_full_v4_conf_pilot1","3Z3ZLGNNSIVR2KD9MVVF0GFN2BJ3Q8","43",NULL,"JULY","11","JUNE","8","0","3223","JULY","11","JUNE","8","2018-07-19 17:25:19","494364"
"AQ9Y6WD8O72ZC","cs_wg_full_v4_conf_pilot1","34MAJL3QP4OKDFQBOYO2XDEI6J143R","34",NULL,"MAY","11","OCTOBER","3","0","1637","may","11","october","3","2018-07-19 17:25:22","494365"
"AA05GDUNJHJ2Z","cs_wg_full_v4_conf_pilot1","3M0BCWMB8VX1PCD8DX9RAOVLE4CWBV","38",NULL,"JULY","7","SEPTEMBER","11","1","3622","JULY","7","SEPTMBER","13","2018-07-19 17:25:25","494366"
"A3AV0VB57J8RXD","cs_wg_full_v4_conf_pilot1","33F859I566EJSMIJIYNR9LLYZG0BHB","50",NULL,"FEBRUARY","1","NOVEMBER","2","1","3244","february","1","november","2
","2018-07-19 17:25:29","494367"
"A2OC2MOL9TJ8BN","cs_wg_full_v4_conf_pilot1","37FMASSAYCSJOHT3OG5C9XMDZTFBI4","115",NULL,"MAY","3","NOVEMBER","5","0","1808","May","3","November","5","2018-07-19 17:25:29","494368"
"A1UXNE9W0BVXIG","cs_wg_full_v4_conf_pilot1","38JBBYETQOBNND68DI5YG4IFX8RE4S","44",NULL,"OCTOBER","11","FEBRUARY","5","0","2239","OCTOBER","11","NOVEMBER","11","2018-07-19 17:25:30","494369"
"A1FTTOECAA04JO","cs_wg_full_v4_conf_pilot1","3SUWZRL0MYE120AMW6YDD22TTZX6E5","45",NULL,"OCTOBER","8","MARCH","5","1","5549","OCTOBER","8","MARCH","5","2018-07-19 17:25:31","494370"
"A6SKM7JAK74D5","cs_wg_full_v4_conf_pilot1","345LHZDEDXTJUDKQ34FKAHCC5WP3UD","61",NULL,"MARCH","10","NOVEMBER","6","1","2944","march","10","nov","11","2018-07-19 17:25:35","494371"
"AQ9Y6WD8O72ZC","cs_wg_full_v4_conf_pilot1","34MAJL3QP4OKDFQBOYO2XDEI6J143R","35",NULL,"MARCH","12","JANUARY","5","0","1598","march","12","january","5","2018-07-19 17:25:37","494372"
"A2OC2MOL9TJ8BN","cs_wg_full_v4_conf_pilot1","37FMASSAYCSJOHT3OG5C9XMDZTFBI4","116",NULL,"APRIL","11","MAY","3","0","607","April","11","May","3","2018-07-19 17:25:40","494373"
"A3AV0VB57J8RXD","cs_wg_full_v4_conf_pilot1","33F859I566EJSMIJIYNR9LLYZG0BHB","51",NULL,"AUGUST","7","NOVEMBER","2","0","2950","august","7","november","2","2018-07-19 17:25:44","494374"
"A1VV2UWNLV3WC1","cs_wg_full_v4_conf_pilot1","3Z3ZLGNNSIVR2KD9MVVF0GFN2BJ3Q8","44",NULL,"AUGUST","3","DECEMBER","12","0","2787","AGUEST","8","DECEMBER","10","2018-07-19 17:25:44","494375"
"A1FTTOECAA04JO","cs_wg_full_v4_conf_pilot1","3SUWZRL0MYE120AMW6YDD22TTZX6E5","46",NULL,"DECEMBER","9","JULY","2","0","4054","DECEMBER","9","JULY","2","2018-07-19 17:25:45","494376"
"AA05GDUNJHJ2Z","cs_wg_full_v4_conf_pilot1","3M0BCWMB8VX1PCD8DX9RAOVLE4CWBV","39",NULL,"SEPTEMBER","11","AUGUST","2","1","1816","SEPTERMER","11","JULY","3","2018-07-19 17:25:47","494377"
"A8V6H7P6J8S0U","cs_wg_full_v4_conf_pilot1","3TMFV4NEP8FINEF1ALPHJM5K6YRW8W","13",NULL,"FEBRUARY","3","NOVEMBER","8","0","1827","FEBRUARY","3","NOVEMBER","8","2018-07-19 17:25:49","494378"
"A2OC2MOL9TJ8BN","cs_wg_full_v4_conf_pilot1","37FMASSAYCSJOHT3OG5C9XMDZTFBI4","117",NULL,"MAY","3","JULY","7","0","703","May","3","July","7","2018-07-19 17:25:49","494379"
"AQ9Y6WD8O72ZC","cs_wg_full_v4_conf_pilot1","34MAJL3QP4OKDFQBOYO2XDEI6J143R","36",NULL,"SEPTEMBER","9","NOVEMBER","4","0","3843","september","9","november","4","2018-07-19 17:25:52","494380"
"A6SKM7JAK74D5","cs_wg_full_v4_conf_pilot1","345LHZDEDXTJUDKQ34FKAHCC5WP3UD","62",NULL,"JUNE","11","OCTOBER","12","1","3203","june","11","oct","12","2018-07-19 17:25:52","494381"
"A1UXNE9W0BVXIG","cs_wg_full_v4_conf_pilot1","38JBBYETQOBNND68DI5YG4IFX8RE4S","45",NULL,"SEPTEMBER","4","MARCH","8","0","1716","SEPTEMBER","4","MARCH","8","2018-07-19 17:25:56","494382"
"A1FTTOECAA04JO","cs_wg_full_v4_conf_pilot1","3SUWZRL0MYE120AMW6YDD22TTZX6E5","47",NULL,"OCTOBER","8","APRIL","7","0","4503","OCTOBER","8","APRIL","7","2018-07-19 17:25:58","494383"
"A2OC2MOL9TJ8BN","cs_wg_full_v4_conf_pilot1","37FMASSAYCSJOHT3OG5C9XMDZTFBI4","118",NULL,"OCTOBER","1","AUGUST","10","1","1609","October","1","August","10","2018-07-19 17:26:00","494384"
"A3AV0VB57J8RXD","cs_wg_full_v4_conf_pilot1","33F859I566EJSMIJIYNR9LLYZG0BHB","52",NULL,"NOVEMBER","2","SEPTEMBER","4","0","6216","november","2","september","4","2018-07-19 17:26:02","494385"
"AQ9Y6WD8O72ZC","cs_wg_full_v4_conf_pilot1","34MAJL3QP4OKDFQBOYO2XDEI6J143R","37",NULL,"OCTOBER","3","SEPTEMBER","9","1","2824","october","3","september","9","2018-07-19 17:26:08","494386"
"A6SKM7JAK74D5","cs_wg_full_v4_conf_pilot1","345LHZDEDXTJUDKQ34FKAHCC5WP3UD","63",NULL,"MAY","9","JULY","2","0","3840","may","9","july","2","2018-07-19 17:26:08","494387"
"A1FTTOECAA04JO","cs_wg_full_v4_conf_pilot1","3SUWZRL0MYE120AMW6YDD22TTZX6E5","48",NULL,"JULY","2","JUNE","12","0","4991","JULY","2","JUNE","12","2018-07-19 17:26:11","494388"
"A1VV2UWNLV3WC1","cs_wg_full_v4_conf_pilot1","3Z3ZLGNNSIVR2KD9MVVF0GFN2BJ3Q8","45",NULL,"MARCH","9","DECEMBER","12","0","7617","MARCH","9","DECEMBER","11","2018-07-19 17:26:11","494389"
"A2OC2MOL9TJ8BN","cs_wg_full_v4_conf_pilot1","37FMASSAYCSJOHT3OG5C9XMDZTFBI4","119",NULL,"SEPTEMBER","8","JULY","7","0","1926","September","8","July","7","2018-07-19 17:26:12","494390"
"A1UXNE9W0BVXIG","cs_wg_full_v4_conf_pilot1","38JBBYETQOBNND68DI5YG4IFX8RE4S","46",NULL,"JULY","2","APRIL","6","0","1866","JULY","2","APRIL","6","2018-07-19 17:26:14","494391"
"A1FTTOECAA04JO","cs_wg_full_v4_conf_pilot1","3SUWZRL0MYE120AMW6YDD22TTZX6E5","49",NULL,"NOVEMBER","3","DECEMBER","9","1","2430","NOVEMBER","3","DECEMBER","9","2018-07-19 17:26:21","494392"
"A3AV0VB57J8RXD","cs_wg_full_v4_conf_pilot1","33F859I566EJSMIJIYNR9LLYZG0BHB","53",NULL,"AUGUST","7","JANUARY","3","0","4288","august","7","january","3","2018-07-19 17:26:23","494393"
"AQ9Y6WD8O72ZC","cs_wg_full_v4_conf_pilot1","34MAJL3QP4OKDFQBOYO2XDEI6J143R","38",NULL,"JANUARY","5","AUGUST","2","1","3392","january","5","august","2","2018-07-19 17:26:24","494394"
"A6SKM7JAK74D5","cs_wg_full_v4_conf_pilot1","345LHZDEDXTJUDKQ34FKAHCC5WP3UD","64",NULL,"MAY","9","JUNE","11","0","4264","may","9","jun","11","2018-07-19 17:26:24","494395"
"A2OC2MOL9TJ8BN","cs_wg_full_v4_conf_pilot1","37FMASSAYCSJOHT3OG5C9XMDZTFBI4","120",NULL,"JULY","7","MARCH","12","1","1691","July","7","March","12","2018-07-19 17:26:25","494396"
"A1VV2UWNLV3WC1","cs_wg_full_v4_conf_pilot1","3Z3ZLGNNSIVR2KD9MVVF0GFN2BJ3Q8","46",NULL,"APRIL","2","OCTOBER","7","0","1274","APRIL","2","OCTBER","7","2018-07-19 17:26:28","494397"
"A1UXNE9W0BVXIG","cs_wg_full_v4_conf_pilot1","38JBBYETQOBNND68DI5YG4IFX8RE4S","47",NULL,"DECEMBER","9","MAY","7","0","1584","DECEMBER","9","MAY","7","2018-07-19 17:26:28","494398"
"AA05GDUNJHJ2Z","cs_wg_full_v4_conf_pilot1","3M0BCWMB8VX1PCD8DX9RAOVLE4CWBV","40",NULL,"MAY","8","JANUARY","12","1","4778","MAY

or
JANUARY

MAY

or
JANUARY

MAY

or
JANUARY
","8","MAY

or
JANUARY

SEPTMBER","12","2018-07-19 17:26:29","494399"
"AC8ETQXPDRR6P","cs_wg_full_v4_conf_pilot1","3QHK8ZVMIMJLEI199J2P1DE5GX9BLI","0",NULL,"MAY","3","MARCH","9","1","5727","May","0","March","9","2018-07-19 17:26:35","494400"
"A2OC2MOL9TJ8BN","cs_wg_full_v4_conf_pilot1","37FMASSAYCSJOHT3OG5C9XMDZTFBI4","121",NULL,"NOVEMBER","5","OCTOBER","1","0","1235","November","5","October","1","2018-07-19 17:26:36","494401"
"AQ9Y6WD8O72ZC","cs_wg_full_v4_conf_pilot1","34MAJL3QP4OKDFQBOYO2XDEI6J143R","39",NULL,"FEBRUARY","7","SEPTEMBER","9","1","4285","february","7","september","9","2018-07-19 17:26:40","494402"
"A1UXNE9W0BVXIG","cs_wg_full_v4_conf_pilot1","38JBBYETQOBNND68DI5YG4IFX8RE4S","48",NULL,"JUNE","1","MAY","7","0","1430","JUNE","1","MAY","7","2018-07-19 17:26:42","494403"
"A6SKM7JAK74D5","cs_wg_full_v4_conf_pilot1","345LHZDEDXTJUDKQ34FKAHCC5WP3UD","65",NULL,"JANUARY","5","FEBRUARY","3","0","3777","jan","5","feb","3","2018-07-19 17:26:42","494404"
"A3AV0VB57J8RXD","cs_wg_full_v4_conf_pilot1","33F859I566EJSMIJIYNR9LLYZG0BHB","54",NULL,"AUGUST","7","OCTOBER","9","0","4266","august","7","october","9","2018-07-19 17:26:42","494405"
"A1VV2UWNLV3WC1","cs_wg_full_v4_conf_pilot1","3Z3ZLGNNSIVR2KD9MVVF0GFN2BJ3Q8","47",NULL,"MAY","4","JANUARY","5","0","2468","MAY","5","JANUVARY","4","2018-07-19 17:26:45","494406"
"A1FTTOECAA04JO","cs_wg_full_v4_conf_pilot1","3SUWZRL0MYE120AMW6YDD22TTZX6E5","50",NULL,"MARCH","5","MAY","11","0","2135","MARCH","5","MAY","11","2018-07-19 17:26:45","494407"
"A2OC2MOL9TJ8BN","cs_wg_full_v4_conf_pilot1","37FMASSAYCSJOHT3OG5C9XMDZTFBI4","122",NULL,"JUNE","2","MARCH","12","1","1288","June","2","March","12","2018-07-19 17:26:48","494408"
"AQ9Y6WD8O72ZC","cs_wg_full_v4_conf_pilot1","34MAJL3QP4OKDFQBOYO2XDEI6J143R","40",NULL,"MARCH","12","MAY","11","0","4240","march","12","may","11","2018-07-19 17:26:56","494409"
"AC8ETQXPDRR6P","cs_wg_full_v4_conf_pilot1","3QHK8ZVMIMJLEI199J2P1DE5GX9BLI","1",NULL,"FEBRUARY","7","JULY","8","1","4204","February","7","July","8","2018-07-19 17:26:59","494410"
