"subject","version","assignmentId","trial","trial_type","word","value","alt","choice","rt","resp","resp2","stamp","id"
"A29RCGY1GBMU18","cs_wg_v9_pilot2","3TAYZSBPLL9EUIW3AZ6FC6PV6O7S2A","0","0","LADDER","10","5","0","8226","Ladder","10","2018-01-10 15:38:24","149915"
"A29RCGY1GBMU18","cs_wg_v9_pilot2","3TAYZSBPLL9EUIW3AZ6FC6PV6O7S2A","1","0","KEYBOARD","9","5","0","5473","Keyboard","9","2018-01-10 15:38:48","149916"
"A29RCGY1GBMU18","cs_wg_v9_pilot2","3TAYZSBPLL9EUIW3AZ6FC6PV6O7S2A","2","0","HELICOPTER","1","5","1","5171","Helicopter","1","2018-01-10 15:40:06","149917"
"A29RCGY1GBMU18","cs_wg_v9_pilot2","3TAYZSBPLL9EUIW3AZ6FC6PV6O7S2A","3","0","KEYBOARD","9","5","0","6297","keyboard","9","2018-01-10 15:40:28","149918"
"A29RCGY1GBMU18","cs_wg_v9_pilot2","3TAYZSBPLL9EUIW3AZ6FC6PV6O7S2A","4","0","LADDER","10","5","0","5804","ladder","10","2018-01-10 15:40:45","149919"
"A29RCGY1GBMU18","cs_wg_v9_pilot2","3TAYZSBPLL9EUIW3AZ6FC6PV6O7S2A","5","0","UMBRELLA","0","5","1","5342","umbrella","0","2018-01-10 15:41:16","149920"
"A29RCGY1GBMU18","cs_wg_v9_pilot2","3TAYZSBPLL9EUIW3AZ6FC6PV6O7S2A","6","0","FOOTBALL","10","5","1","3162","football","10","2018-01-10 15:41:30","149921"
"A29RCGY1GBMU18","cs_wg_v9_pilot2","3TAYZSBPLL9EUIW3AZ6FC6PV6O7S2A","7","0","BOOKSHELF","1","5","1","6533","bookshelf","1","2018-01-10 15:41:54","149922"
"A29RCGY1GBMU18","cs_wg_v9_pilot2","3TAYZSBPLL9EUIW3AZ6FC6PV6O7S2A","8","0","FOOTBALL","10","5","0","5131","football","10","2018-01-10 15:42:10","149923"
"A29RCGY1GBMU18","cs_wg_v9_pilot2","3TAYZSBPLL9EUIW3AZ6FC6PV6O7S2A","9","0","LADDER","10","5","0","6185","ladder","10","2018-01-10 15:42:31","149924"
"A29RCGY1GBMU18","cs_wg_v9_pilot2","3TAYZSBPLL9EUIW3AZ6FC6PV6O7S2A","10","0","BASKET","0","5","1","3930","basket","0","2018-01-10 15:42:51","149925"
"A29RCGY1GBMU18","cs_wg_v9_pilot2","3TAYZSBPLL9EUIW3AZ6FC6PV6O7S2A","11","0","HELICOPTER","1","5","1","33932","helicopter","1","2018-01-10 15:43:37","149926"
"A29RCGY1GBMU18","cs_wg_v9_pilot2","3TAYZSBPLL9EUIW3AZ6FC6PV6O7S2A","12","0","BOOKSHELF","1","5","1","4413","bookshelf","1","2018-01-10 15:43:58","149927"
"A29RCGY1GBMU18","cs_wg_v9_pilot2","3TAYZSBPLL9EUIW3AZ6FC6PV6O7S2A","13","0","LADDER","10","5","0","3526","ladder","10","2018-01-10 15:44:09","149928"
"A29RCGY1GBMU18","cs_wg_v9_pilot2","3TAYZSBPLL9EUIW3AZ6FC6PV6O7S2A","14","0","BOOKSHELF","1","5","1","4559","bookshelf","1","2018-01-10 15:44:26","149929"
"A29RCGY1GBMU18","cs_wg_v9_pilot2","3TAYZSBPLL9EUIW3AZ6FC6PV6O7S2A","15","0","FOOTBALL","10","5","0","3628","football","10","2018-01-10 15:44:40","149930"
"A29RCGY1GBMU18","cs_wg_v9_pilot2","3TAYZSBPLL9EUIW3AZ6FC6PV6O7S2A","16","0","WEDDING","0","5","1","2243","wedding","0","2018-01-10 15:44:58","149931"
"A29RCGY1GBMU18","cs_wg_v9_pilot2","3TAYZSBPLL9EUIW3AZ6FC6PV6O7S2A","17","0","UMBRELLA","0","5","1","4672","umbrella","0
0","2018-01-10 15:45:15","149932"
"A29RCGY1GBMU18","cs_wg_v9_pilot2","3TAYZSBPLL9EUIW3AZ6FC6PV6O7S2A","18","0","FOOTBALL","10","5","0","2252","football","10","2018-01-10 15:45:32","149933"
"A29RCGY1GBMU18","cs_wg_v9_pilot2","3TAYZSBPLL9EUIW3AZ6FC6PV6O7S2A","19","0","WEDDING","0","5","1","2769","wedding","0","2018-01-10 15:45:45","149934"
"A29RCGY1GBMU18","cs_wg_v9_pilot2","3TAYZSBPLL9EUIW3AZ6FC6PV6O7S2A","20","0","KEYBOARD","9","5","0","9575","keyboard","9","2018-01-10 15:46:06","149935"
"A29RCGY1GBMU18","cs_wg_v9_pilot2","3TAYZSBPLL9EUIW3AZ6FC6PV6O7S2A","21","0","WEDDING","0","5","1","2828","wedding","0","2018-01-10 15:46:17","149936"
"A29RCGY1GBMU18","cs_wg_v9_pilot2","3TAYZSBPLL9EUIW3AZ6FC6PV6O7S2A","22","0","STRUCTURE","9","5","1","1784","structure","9","2018-01-10 15:46:34","149937"
"A29RCGY1GBMU18","cs_wg_v9_pilot2","3TAYZSBPLL9EUIW3AZ6FC6PV6O7S2A","23","0","TRAFFIC","1","5","1","2200","traffic","1","2018-01-10 15:46:58","149938"
"A29RCGY1GBMU18","cs_wg_v9_pilot2","3TAYZSBPLL9EUIW3AZ6FC6PV6O7S2A","24","0","MACHINE","0","5","0","6589","machine","0","2018-01-10 15:47:22","149939"
"A29RCGY1GBMU18","cs_wg_v9_pilot2","3TAYZSBPLL9EUIW3AZ6FC6PV6O7S2A","25","0","TRAFFIC","1","5","1","4446","traffic","1","2018-01-10 15:47:37","149940"
"A29RCGY1GBMU18","cs_wg_v9_pilot2","3TAYZSBPLL9EUIW3AZ6FC6PV6O7S2A","26","0","TRAFFIC","1","5","1","2057","traffic","1","2018-01-10 15:47:49","149941"
"A29RCGY1GBMU18","cs_wg_v9_pilot2","3TAYZSBPLL9EUIW3AZ6FC6PV6O7S2A","27","0","STOMACH","9","5","1","2008","stomach","9","2018-01-10 15:48:17","149942"
"A29RCGY1GBMU18","cs_wg_v9_pilot2","3TAYZSBPLL9EUIW3AZ6FC6PV6O7S2A","28","0","FOOTBALL","10","5","0","3887","football","10","2018-01-10 15:48:36","149943"
"A29RCGY1GBMU18","cs_wg_v9_pilot2","3TAYZSBPLL9EUIW3AZ6FC6PV6O7S2A","29","0","STRUCTURE","9","5","0","4090","structure","9","2018-01-10 15:48:51","149944"
"A29RCGY1GBMU18","cs_wg_v9_pilot2","3TAYZSBPLL9EUIW3AZ6FC6PV6O7S2A","30","0","MACHINE","0","5","1","4485","machine","0","2018-01-10 15:49:06","149945"
"A29RCGY1GBMU18","cs_wg_v9_pilot2","3TAYZSBPLL9EUIW3AZ6FC6PV6O7S2A","31","0","STRUCTURE","9","5","0","4002","structure","9","2018-01-10 15:49:23","149946"
"A29RCGY1GBMU18","cs_wg_v9_pilot2","3TAYZSBPLL9EUIW3AZ6FC6PV6O7S2A","32","0","STRUCTURE","9","5","0","1850","structure","9","2018-01-10 15:49:35","149947"
"A29RCGY1GBMU18","cs_wg_v9_pilot2","3TAYZSBPLL9EUIW3AZ6FC6PV6O7S2A","33","0","STRUCTURE","9","5","0","2033","structure","9","2018-01-10 15:49:48","149948"
"A29RCGY1GBMU18","cs_wg_v9_pilot2","3TAYZSBPLL9EUIW3AZ6FC6PV6O7S2A","34","0","HELICOPTER","1","5","1","4569","helicopter","1","2018-01-10 15:50:04","149949"
"A29RCGY1GBMU18","cs_wg_v9_pilot2","3TAYZSBPLL9EUIW3AZ6FC6PV6O7S2A","35","0","HELICOPTER","1","5","1","2040","helicopter","1","2018-01-10 15:50:17","149950"
"A29RCGY1GBMU18","cs_wg_v9_pilot2","3TAYZSBPLL9EUIW3AZ6FC6PV6O7S2A","36","0","WEDDING","0","5","1","3695","wedding","0","2018-01-10 15:50:32","149951"
"A29RCGY1GBMU18","cs_wg_v9_pilot2","3TAYZSBPLL9EUIW3AZ6FC6PV6O7S2A","37","0","COMMUNITY","10","5","1","10897","community","10","2018-01-10 15:51:02","149952"
"A29RCGY1GBMU18","cs_wg_v9_pilot2","3TAYZSBPLL9EUIW3AZ6FC6PV6O7S2A","38","0","WEDDING","0","5","1","1919","wedding","0","2018-01-10 15:51:13","149953"
"A29RCGY1GBMU18","cs_wg_v9_pilot2","3TAYZSBPLL9EUIW3AZ6FC6PV6O7S2A","39","0","TRAFFIC","1","5","1","4259","traffic","1","2018-01-10 15:51:27","149954"
"A29RCGY1GBMU18","cs_wg_v9_pilot2","3TAYZSBPLL9EUIW3AZ6FC6PV6O7S2A","40","0","KEYBOARD","9","5","0","3171","keyboard","9","2018-01-10 15:51:41","149955"
"A29RCGY1GBMU18","cs_wg_v9_pilot2","3TAYZSBPLL9EUIW3AZ6FC6PV6O7S2A","41","0","STOMACH","9","5","0","2152","stomach","9","2018-01-10 15:51:52","149956"
"A29RCGY1GBMU18","cs_wg_v9_pilot2","3TAYZSBPLL9EUIW3AZ6FC6PV6O7S2A","42","0","UMBRELLA","0","5","1","3129","umbrella","0","2018-01-10 15:52:05","149957"
"A29RCGY1GBMU18","cs_wg_v9_pilot2","3TAYZSBPLL9EUIW3AZ6FC6PV6O7S2A","43","0","BASKET","0","5","1","3476","basket","0","2018-01-10 15:52:19","149958"
"A29RCGY1GBMU18","cs_wg_v9_pilot2","3TAYZSBPLL9EUIW3AZ6FC6PV6O7S2A","44","0","BASKET","0","5","1","3629","basket","0","2018-01-10 15:52:32","149959"
"A2S70WW1VAPKK8","cs_wg_v9_pilot2","3NGI5ARFTT6AS5YFZE27CIAFRYN1PN","0","0","LADDER","9","5","1","7083","LADDER","9","2018-01-10 15:52:40","149960"
"A29RCGY1GBMU18","cs_wg_v9_pilot2","3TAYZSBPLL9EUIW3AZ6FC6PV6O7S2A","45","0","DOORWAY","10","5","1","6509","doorway","10","2018-01-10 15:52:50","149961"
"A2S70WW1VAPKK8","cs_wg_v9_pilot2","3NGI5ARFTT6AS5YFZE27CIAFRYN1PN","1","0","FOOTBALL","1","5","0","4361","FOOTBALL","1","2018-01-10 15:52:56","149962"
"A29RCGY1GBMU18","cs_wg_v9_pilot2","3TAYZSBPLL9EUIW3AZ6FC6PV6O7S2A","46","0","TRAFFIC","1","5","1","6781","traffic","1","2018-01-10 15:53:12","149963"
"A29RCGY1GBMU18","cs_wg_v9_pilot2","3TAYZSBPLL9EUIW3AZ6FC6PV6O7S2A","47","0","WEDDING","0","5","1","2096","wedding","0","2018-01-10 15:53:25","149964"
"A2S70WW1VAPKK8","cs_wg_v9_pilot2","3NGI5ARFTT6AS5YFZE27CIAFRYN1PN","2","0","STOMACH","10","5","0","9964","STOMACH","10","2018-01-10 15:53:28","149965"
"A29RCGY1GBMU18","cs_wg_v9_pilot2","3TAYZSBPLL9EUIW3AZ6FC6PV6O7S2A","48","0","BASKET","0","5","1","4455","basket","0","2018-01-10 15:53:39","149966"
"A2S70WW1VAPKK8","cs_wg_v9_pilot2","3NGI5ARFTT6AS5YFZE27CIAFRYN1PN","3","0","STOMACH","10","5","0","6071","STOMACH","10","2018-01-10 15:53:44","149967"
"A29RCGY1GBMU18","cs_wg_v9_pilot2","3TAYZSBPLL9EUIW3AZ6FC6PV6O7S2A","49","0","COMMUNITY","10","5","0","1843","community","10","2018-01-10 15:53:52","149968"
"A2S70WW1VAPKK8","cs_wg_v9_pilot2","3NGI5ARFTT6AS5YFZE27CIAFRYN1PN","4","0","STRUCTURE","1","5","1","4380","STRUCTURE","1","2018-01-10 15:54:08","149969"
"A29RCGY1GBMU18","cs_wg_v9_pilot2","3TAYZSBPLL9EUIW3AZ6FC6PV6O7S2A","50","0","HELICOPTER","1","5","1","5580","helicopter","1","2018-01-10 15:54:09","149970"
"A29RCGY1GBMU18","cs_wg_v9_pilot2","3TAYZSBPLL9EUIW3AZ6FC6PV6O7S2A","51","0","MACHINE","0","5","1","4476","machine","0","2018-01-10 15:54:23","149971"
"A2S70WW1VAPKK8","cs_wg_v9_pilot2","3NGI5ARFTT6AS5YFZE27CIAFRYN1PN","5","0","BASKET","10","5","1","3534","BASKET","10","2018-01-10 15:54:23","149972"
"A29RCGY1GBMU18","cs_wg_v9_pilot2","3TAYZSBPLL9EUIW3AZ6FC6PV6O7S2A","52","0","MACHINE","0","5","1","1879","machine","0","2018-01-10 15:54:35","149973"
"A2S70WW1VAPKK8","cs_wg_v9_pilot2","3NGI5ARFTT6AS5YFZE27CIAFRYN1PN","6","0","KEYBOARD","0","5","1","5346","KEYBOARD","0","2018-01-10 15:54:37","149974"
"A29RCGY1GBMU18","cs_wg_v9_pilot2","3TAYZSBPLL9EUIW3AZ6FC6PV6O7S2A","53","0","DOORWAY","10","5","0","4097","doorway","10","2018-01-10 15:54:49","149975"
"A2S70WW1VAPKK8","cs_wg_v9_pilot2","3NGI5ARFTT6AS5YFZE27CIAFRYN1PN","7","0","WEDDING","9","5","0","4801","WEDDING","9","2018-01-10 15:54:53","149976"
"A29RCGY1GBMU18","cs_wg_v9_pilot2","3TAYZSBPLL9EUIW3AZ6FC6PV6O7S2A","54","0","BOOKSHELF","1","5","1","3068","bookshelf","1","2018-01-10 15:55:02","149977"
"A2S70WW1VAPKK8","cs_wg_v9_pilot2","3NGI5ARFTT6AS5YFZE27CIAFRYN1PN","8","0","STRUCTURE","1","5","0","6676","STRUCTURE","1","2018-01-10 15:55:14","149978"
"A29RCGY1GBMU18","cs_wg_v9_pilot2","3TAYZSBPLL9EUIW3AZ6FC6PV6O7S2A","55","0","DOORWAY","10","5","0","5961","doorway","10","2018-01-10 15:55:17","149979"
"A2S70WW1VAPKK8","cs_wg_v9_pilot2","3NGI5ARFTT6AS5YFZE27CIAFRYN1PN","9","0","UMBRELLA","0","5","1","5402","UMBRELLA","0","2018-01-10 15:55:29","149980"
"A29RCGY1GBMU18","cs_wg_v9_pilot2","3TAYZSBPLL9EUIW3AZ6FC6PV6O7S2A","56","0","MACHINE","0","5","1","3671","machine","0","2018-01-10 15:55:32","149981"
"A2S70WW1VAPKK8","cs_wg_v9_pilot2","3NGI5ARFTT6AS5YFZE27CIAFRYN1PN","10","0","FOOTBALL","1","5","0","2094","FOOTBALL","1","2018-01-10 15:55:40","149982"
"A2S70WW1VAPKK8","cs_wg_v9_pilot2","3NGI5ARFTT6AS5YFZE27CIAFRYN1PN","11","0","MACHINE","10","5","0","2022","MACHINE","10","2018-01-10 15:55:50","149983"
"A29RCGY1GBMU18","cs_wg_v9_pilot2","3TAYZSBPLL9EUIW3AZ6FC6PV6O7S2A","57","0","STOMACH","9","5","0","23319","stomach","9","2018-01-10 15:56:05","149984"
"A2S70WW1VAPKK8","cs_wg_v9_pilot2","3NGI5ARFTT6AS5YFZE27CIAFRYN1PN","12","0","COMMUNITY","0","5","0","3798","COMMUNITY","0","2018-01-10 15:56:06","149985"
"A2S70WW1VAPKK8","cs_wg_v9_pilot2","3NGI5ARFTT6AS5YFZE27CIAFRYN1PN","13","0","HELICOPTER","0","5","0","1823","HELICOPTER","0","2018-01-10 15:56:19","149986"
"A29RCGY1GBMU18","cs_wg_v9_pilot2","3TAYZSBPLL9EUIW3AZ6FC6PV6O7S2A","58","0","BOOKSHELF","1","5","1","3865","bookshelf","1","2018-01-10 15:56:25","149987"
"A2S70WW1VAPKK8","cs_wg_v9_pilot2","3NGI5ARFTT6AS5YFZE27CIAFRYN1PN","14","0","KEYBOARD","0","5","1","3395","KEYBOARD","0","2018-01-10 15:56:32","149988"
"A29RCGY1GBMU18","cs_wg_v9_pilot2","3TAYZSBPLL9EUIW3AZ6FC6PV6O7S2A","59","0","STOMACH","9","5","0","2767","stomach","9","2018-01-10 15:56:39","149989"
"A29RCGY1GBMU18","cs_wg_v9_pilot2","3TAYZSBPLL9EUIW3AZ6FC6PV6O7S2A","60","0","UMBRELLA","0","5","1","6786","umbrella","0","2018-01-10 15:56:56","149990"
"A2S70WW1VAPKK8","cs_wg_v9_pilot2","3NGI5ARFTT6AS5YFZE27CIAFRYN1PN","15","0","FOOTBALL","1","5","1","15067","FOOTBALL","1","2018-01-10 15:56:59","149991"
"A29RCGY1GBMU18","cs_wg_v9_pilot2","3TAYZSBPLL9EUIW3AZ6FC6PV6O7S2A","61","0","COMMUNITY","10","5","0","1652","community","10","2018-01-10 15:57:09","149992"
"A2S70WW1VAPKK8","cs_wg_v9_pilot2","3NGI5ARFTT6AS5YFZE27CIAFRYN1PN","16","0","TRAFFIC","10","5","0","3101","TRAFFIC","10","2018-01-10 15:57:12","149993"
"A29RCGY1GBMU18","cs_wg_v9_pilot2","3TAYZSBPLL9EUIW3AZ6FC6PV6O7S2A","62","0","KEYBOARD","9","5","0","3497","keyboard","9","2018-01-10 15:57:24","149994"
"A2S70WW1VAPKK8","cs_wg_v9_pilot2","3NGI5ARFTT6AS5YFZE27CIAFRYN1PN","17","0","MACHINE","10","5","0","3917","MACHINE","10","2018-01-10 15:57:26","149995"
"A2S70WW1VAPKK8","cs_wg_v9_pilot2","3NGI5ARFTT6AS5YFZE27CIAFRYN1PN","18","0","WEDDING","9","5","1","3410","WEDDING","9","2018-01-10 15:57:39","149996"
"A29RCGY1GBMU18","cs_wg_v9_pilot2","3TAYZSBPLL9EUIW3AZ6FC6PV6O7S2A","63","0","BOOKSHELF","1","5","1","4141","bookshelf","1","2018-01-10 15:57:40","149997"
"A2S70WW1VAPKK8","cs_wg_v9_pilot2","3NGI5ARFTT6AS5YFZE27CIAFRYN1PN","19","0","WEDDING","9","5","0","3020","WEDDING","9","2018-01-10 15:57:51","149998"
"A29RCGY1GBMU18","cs_wg_v9_pilot2","3TAYZSBPLL9EUIW3AZ6FC6PV6O7S2A","64","0","TRAFFIC","1","5","1","4818","traffic","1","2018-01-10 15:57:57","149999"
"A2S70WW1VAPKK8","cs_wg_v9_pilot2","3NGI5ARFTT6AS5YFZE27CIAFRYN1PN","20","0","LADDER","9","5","1","5560","LADDER","9","2018-01-10 15:58:04","150000"
"A29RCGY1GBMU18","cs_wg_v9_pilot2","3TAYZSBPLL9EUIW3AZ6FC6PV6O7S2A","65","0","BOOKSHELF","1","5","1","1639","bookshelf","1","2018-01-10 15:58:10","150001"
"A2S70WW1VAPKK8","cs_wg_v9_pilot2","3NGI5ARFTT6AS5YFZE27CIAFRYN1PN","21","0","WEDDING","9","5","0","3866","WEDDING","9","2018-01-10 15:58:17","150002"
"A29RCGY1GBMU18","cs_wg_v9_pilot2","3TAYZSBPLL9EUIW3AZ6FC6PV6O7S2A","66","0","STOMACH","9","5","0","1333","stomach","8","2018-01-10 15:58:21","150003"
"A2S70WW1VAPKK8","cs_wg_v9_pilot2","3NGI5ARFTT6AS5YFZE27CIAFRYN1PN","22","0","BOOKSHELF","1","5","0","3857","BOOKSHELF","1","2018-01-10 15:58:34","150004"
"A29RCGY1GBMU18","cs_wg_v9_pilot2","3TAYZSBPLL9EUIW3AZ6FC6PV6O7S2A","67","0","MACHINE","0","5","1","4781","machine","0","2018-01-10 15:58:35","150005"
"A2S70WW1VAPKK8","cs_wg_v9_pilot2","3NGI5ARFTT6AS5YFZE27CIAFRYN1PN","23","0","BOOKSHELF","1","5","1","2063","BOOKSHELF","1","2018-01-10 15:58:48","150006"
"A29RCGY1GBMU18","cs_wg_v9_pilot2","3TAYZSBPLL9EUIW3AZ6FC6PV6O7S2A","68","0","BASKET","0","5","1","5508","basket","0","2018-01-10 15:58:51","150007"
"A29RCGY1GBMU18","cs_wg_v9_pilot2","3TAYZSBPLL9EUIW3AZ6FC6PV6O7S2A","69","0","STOMACH","9","5","0","1520","stomach","9","2018-01-10 15:59:02","150008"
"A2S70WW1VAPKK8","cs_wg_v9_pilot2","3NGI5ARFTT6AS5YFZE27CIAFRYN1PN","24","0","DOORWAY","9","5","0","3681","DOORWAY","9","2018-01-10 15:59:04","150009"
"A29RCGY1GBMU18","cs_wg_v9_pilot2","3TAYZSBPLL9EUIW3AZ6FC6PV6O7S2A","70","0","COMMUNITY","10","5","0","1445","community","10","2018-01-10 15:59:13","150010"
"A2S70WW1VAPKK8","cs_wg_v9_pilot2","3NGI5ARFTT6AS5YFZE27CIAFRYN1PN","25","0","UMBRELLA","0","5","1","5679","UMBRELLA","0","2018-01-10 15:59:20","150011"
"A29RCGY1GBMU18","cs_wg_v9_pilot2","3TAYZSBPLL9EUIW3AZ6FC6PV6O7S2A","71","0","DOORWAY","10","5","0","4677","doorway","10","2018-01-10 15:59:31","150012"
"A2S70WW1VAPKK8","cs_wg_v9_pilot2","3NGI5ARFTT6AS5YFZE27CIAFRYN1PN","26","0","BASKET","10","5","1","4873","BASKET","10","2018-01-10 15:59:37","150013"
"A29RCGY1GBMU18","cs_wg_v9_pilot2","3TAYZSBPLL9EUIW3AZ6FC6PV6O7S2A","72","0","DOORWAY","10","5","0","2096","doorway","10","2018-01-10 15:59:43","150014"
"A2S70WW1VAPKK8","cs_wg_v9_pilot2","3NGI5ARFTT6AS5YFZE27CIAFRYN1PN","27","0","STOMACH","10","5","0","2150","STOMACH","10","2018-01-10 15:59:53","150015"
"A29RCGY1GBMU18","cs_wg_v9_pilot2","3TAYZSBPLL9EUIW3AZ6FC6PV6O7S2A","73","0","LADDER","10","5","0","5301","ladder","10","2018-01-10 15:59:58","150016"
"A2S70WW1VAPKK8","cs_wg_v9_pilot2","3NGI5ARFTT6AS5YFZE27CIAFRYN1PN","28","0","UMBRELLA","0","5","1","3723","UMBRELLA","0","2018-01-10 16:00:08","150017"
"A29RCGY1GBMU18","cs_wg_v9_pilot2","3TAYZSBPLL9EUIW3AZ6FC6PV6O7S2A","74","0","COMMUNITY","10","5","0","1150","community","10","2018-01-10 16:00:10","150018"
"A2S70WW1VAPKK8","cs_wg_v9_pilot2","3NGI5ARFTT6AS5YFZE27CIAFRYN1PN","29","0","KEYBOARD","0","5","1","4949","KEYBOARD","0","2018-01-10 16:00:23","150019"
"A29RCGY1GBMU18","cs_wg_v9_pilot2","3TAYZSBPLL9EUIW3AZ6FC6PV6O7S2A","75","0","HELICOPTER","1","5","1","5456","helicopter","1","2018-01-10 16:00:27","150020"
"A2S70WW1VAPKK8","cs_wg_v9_pilot2","3NGI5ARFTT6AS5YFZE27CIAFRYN1PN","30","0","FOOTBALL","1","5","1","1997","FOOTBALL","1","2018-01-10 16:00:33","150021"
"A29RCGY1GBMU18","cs_wg_v9_pilot2","3TAYZSBPLL9EUIW3AZ6FC6PV6O7S2A","76","0","DOORWAY","10","5","0","5263","doorway","10","2018-01-10 16:00:43","150022"
"A2S70WW1VAPKK8","cs_wg_v9_pilot2","3NGI5ARFTT6AS5YFZE27CIAFRYN1PN","31","0","COMMUNITY","0","5","1","2643","COMMUNITY","0","2018-01-10 16:00:43","150023"
"A2S70WW1VAPKK8","cs_wg_v9_pilot2","3NGI5ARFTT6AS5YFZE27CIAFRYN1PN","32","0","STOMACH","10","5","0","2993","STOMACH","10","2018-01-10 16:00:56","150024"
"A29RCGY1GBMU18","cs_wg_v9_pilot2","3TAYZSBPLL9EUIW3AZ6FC6PV6O7S2A","77","0","UMBRELLA","0","5","1","4059","umbrella","0","2018-01-10 16:00:57","150025"
"A29RCGY1GBMU18","cs_wg_v9_pilot2","3TAYZSBPLL9EUIW3AZ6FC6PV6O7S2A","78","0","HELICOPTER","1","5","1","1781","helicopter","1","2018-01-10 16:01:09","150026"
"A2S70WW1VAPKK8","cs_wg_v9_pilot2","3NGI5ARFTT6AS5YFZE27CIAFRYN1PN","33","0","DOORWAY","9","5","1","4530","DOORWAY","9","2018-01-10 16:01:10","150027"
"A2S70WW1VAPKK8","cs_wg_v9_pilot2","3NGI5ARFTT6AS5YFZE27CIAFRYN1PN","34","0","LADDER","9","5","0","2512","LADDER","9","2018-01-10 16:01:20","150028"
"A29RCGY1GBMU18","cs_wg_v9_pilot2","3TAYZSBPLL9EUIW3AZ6FC6PV6O7S2A","79","0","STRUCTURE","9","5","0","6108","structure","9","2018-01-10 16:01:25","150029"
"A2S70WW1VAPKK8","cs_wg_v9_pilot2","3NGI5ARFTT6AS5YFZE27CIAFRYN1PN","35","0","HELICOPTER","0","5","1","3295","HELICOPTER","0","2018-01-10 16:01:36","150030"
"A29RCGY1GBMU18","cs_wg_v9_pilot2","3TAYZSBPLL9EUIW3AZ6FC6PV6O7S2A","80","0","UMBRELLA","0","5","1","1978","umbrella","0","2018-01-10 16:01:42","150031"
"A2S70WW1VAPKK8","cs_wg_v9_pilot2","3NGI5ARFTT6AS5YFZE27CIAFRYN1PN","36","0","UMBRELLA","0","5","1","1626","UMBRELLA","0","2018-01-10 16:01:46","150032"
"A29RCGY1GBMU18","cs_wg_v9_pilot2","3TAYZSBPLL9EUIW3AZ6FC6PV6O7S2A","81","0","UMBRELLA","0","5","1","1232","umbrella","0","2018-01-10 16:01:53","150033"
"A2S70WW1VAPKK8","cs_wg_v9_pilot2","3NGI5ARFTT6AS5YFZE27CIAFRYN1PN","37","0","COMMUNITY","0","5","1","1279","COMMUNITY","0","2018-01-10 16:01:56","150034"
"A2S70WW1VAPKK8","cs_wg_v9_pilot2","3NGI5ARFTT6AS5YFZE27CIAFRYN1PN","38","0","MACHINE","10","5","0","1813","MACHINE","10","2018-01-10 16:02:08","150035"
"A29RCGY1GBMU18","cs_wg_v9_pilot2","3TAYZSBPLL9EUIW3AZ6FC6PV6O7S2A","82","0","TRAFFIC","1","5","1","3142","traffic","1","2018-01-10 16:02:09","150036"
"A29RCGY1GBMU18","cs_wg_v9_pilot2","3TAYZSBPLL9EUIW3AZ6FC6PV6O7S2A","83","0","KEYBOARD","9","5","0","1594","keyboard","9","2018-01-10 16:02:21","150037"
"A2S70WW1VAPKK8","cs_wg_v9_pilot2","3NGI5ARFTT6AS5YFZE27CIAFRYN1PN","39","0","DOORWAY","9","5","0","1540","DOORWAY","9","2018-01-10 16:02:22","150038"
"A29RCGY1GBMU18","cs_wg_v9_pilot2","3TAYZSBPLL9EUIW3AZ6FC6PV6O7S2A","84","0","KEYBOARD","9","5","0","1480","keyboard","9","2018-01-10 16:02:33","150039"
"A2S70WW1VAPKK8","cs_wg_v9_pilot2","3NGI5ARFTT6AS5YFZE27CIAFRYN1PN","40","0","STRUCTURE","1","5","0","2129","STRUCTURE","1","2018-01-10 16:02:34","150040"
"A2S70WW1VAPKK8","cs_wg_v9_pilot2","3NGI5ARFTT6AS5YFZE27CIAFRYN1PN","41","0","COMMUNITY","0","5","1","1658","COMMUNITY","0","2018-01-10 16:02:44","150041"
"A29RCGY1GBMU18","cs_wg_v9_pilot2","3TAYZSBPLL9EUIW3AZ6FC6PV6O7S2A","85","0","STOMACH","9","5","0","1138","stomach","9","2018-01-10 16:02:45","150042"
"A29RCGY1GBMU18","cs_wg_v9_pilot2","3TAYZSBPLL9EUIW3AZ6FC6PV6O7S2A","86","0","MACHINE","0","5","0","1150","machine","0","2018-01-10 16:02:57","150043"
"A2S70WW1VAPKK8","cs_wg_v9_pilot2","3NGI5ARFTT6AS5YFZE27CIAFRYN1PN","42","0","BOOKSHELF","1","5","0","3369","BOOKSHELF","1","2018-01-10 16:03:00","150044"
"A2S70WW1VAPKK8","cs_wg_v9_pilot2","3NGI5ARFTT6AS5YFZE27CIAFRYN1PN","43","0","MACHINE","10","5","0","3342","MACHINE ","10","2018-01-10 16:03:11","150045"
"A29RCGY1GBMU18","cs_wg_v9_pilot2","3TAYZSBPLL9EUIW3AZ6FC6PV6O7S2A","87","0","BOOKSHELF","1","5","1","3754","bookshelf","1","2018-01-10 16:03:12","150046"
"A2S70WW1VAPKK8","cs_wg_v9_pilot2","3NGI5ARFTT6AS5YFZE27CIAFRYN1PN","44","0","COMMUNITY","0","5","1","1347","COMMUNITY","0","2018-01-10 16:03:22","150047"
"A29RCGY1GBMU18","cs_wg_v9_pilot2","3TAYZSBPLL9EUIW3AZ6FC6PV6O7S2A","88","0","STRUCTURE","9","5","1","1937","structure","9","2018-01-10 16:03:26","150048"
"A2S70WW1VAPKK8","cs_wg_v9_pilot2","3NGI5ARFTT6AS5YFZE27CIAFRYN1PN","45","0","STOMACH","10","5","0","1678","STOMACH","10","2018-01-10 16:03:31","150049"
"A29RCGY1GBMU18","cs_wg_v9_pilot2","3TAYZSBPLL9EUIW3AZ6FC6PV6O7S2A","89","0","STRUCTURE","9","5","0","1444","structure","9","2018-01-10 16:03:39","150050"
"A2S70WW1VAPKK8","cs_wg_v9_pilot2","3NGI5ARFTT6AS5YFZE27CIAFRYN1PN","46","0","HELICOPTER","0","5","1","1940","HELICOPTER","0","2018-01-10 16:03:43","150051"
"A29RCGY1GBMU18","cs_wg_v9_pilot2","3TAYZSBPLL9EUIW3AZ6FC6PV6O7S2A","90","0","COMMUNITY","10","5","0","961","community","10","2018-01-10 16:03:49","150052"
"A2S70WW1VAPKK8","cs_wg_v9_pilot2","3NGI5ARFTT6AS5YFZE27CIAFRYN1PN","47","0","STOMACH","10","5","0","2821","STOMACH","10","2018-01-10 16:03:53","150053"
"A29RCGY1GBMU18","cs_wg_v9_pilot2","3TAYZSBPLL9EUIW3AZ6FC6PV6O7S2A","91","0","BASKET","0","5","1","4202","basket","0","2018-01-10 16:04:03","150054"
"A2S70WW1VAPKK8","cs_wg_v9_pilot2","3NGI5ARFTT6AS5YFZE27CIAFRYN1PN","48","0","HELICOPTER","0","5","1","1393","HELICOPTER","0","2018-01-10 16:04:03","150055"
"A2S70WW1VAPKK8","cs_wg_v9_pilot2","3NGI5ARFTT6AS5YFZE27CIAFRYN1PN","49","0","FOOTBALL","1","5","1","1554","FOOTBALL","1","2018-01-10 16:04:12","150056"
"A29RCGY1GBMU18","cs_wg_v9_pilot2","3TAYZSBPLL9EUIW3AZ6FC6PV6O7S2A","92","0","FOOTBALL","10","5","0","1269","football","10","2018-01-10 16:04:14","150057"
"A2S70WW1VAPKK8","cs_wg_v9_pilot2","3NGI5ARFTT6AS5YFZE27CIAFRYN1PN","50","0","WEDDING","9","5","0","4852","WEDDING","9","2018-01-10 16:04:28","150058"
"A29RCGY1GBMU18","cs_wg_v9_pilot2","3TAYZSBPLL9EUIW3AZ6FC6PV6O7S2A","93","0","WEDDING","0","5","1","2681","wedding","0","2018-01-10 16:04:28","150059"
"A2S70WW1VAPKK8","cs_wg_v9_pilot2","3NGI5ARFTT6AS5YFZE27CIAFRYN1PN","51","0","BOOKSHELF","1","5","0","2439","BOOKSHELF","1","2018-01-10 16:04:42","150060"
"A29RCGY1GBMU18","cs_wg_v9_pilot2","3TAYZSBPLL9EUIW3AZ6FC6PV6O7S2A","94","0","DOORWAY","10","5","0","3611","doorway","10","2018-01-10 16:04:43","150061"
"A2S70WW1VAPKK8","cs_wg_v9_pilot2","3NGI5ARFTT6AS5YFZE27CIAFRYN1PN","52","0","LADDER","9","5","0","1892","LADDER","9","2018-01-10 16:04:56","150062"
"A29RCGY1GBMU18","cs_wg_v9_pilot2","3TAYZSBPLL9EUIW3AZ6FC6PV6O7S2A","95","0","HELICOPTER","1","5","1","5420","helicopter","1","2018-01-10 16:04:59","150063"
"A2S70WW1VAPKK8","cs_wg_v9_pilot2","3NGI5ARFTT6AS5YFZE27CIAFRYN1PN","53","0","DOORWAY","9","5","0","1846","DOORWAY","9","2018-01-10 16:05:05","150064"
"A29RCGY1GBMU18","cs_wg_v9_pilot2","3TAYZSBPLL9EUIW3AZ6FC6PV6O7S2A","96","0","BASKET","0","5","1","2013","basket","0","2018-01-10 16:05:13","150065"
"A2S70WW1VAPKK8","cs_wg_v9_pilot2","3NGI5ARFTT6AS5YFZE27CIAFRYN1PN","54","0","BASKET","10","5","0","1829","BASKET","10","2018-01-10 16:05:16","150066"
"A29RCGY1GBMU18","cs_wg_v9_pilot2","3TAYZSBPLL9EUIW3AZ6FC6PV6O7S2A","97","0","COMMUNITY","10","5","0","1133","community","10","2018-01-10 16:05:26","150067"
"A2S70WW1VAPKK8","cs_wg_v9_pilot2","3NGI5ARFTT6AS5YFZE27CIAFRYN1PN","55","0","UMBRELLA","0","5","1","1789","UMBRELLA","0","2018-01-10 16:05:26","150068"
"A29RCGY1GBMU18","cs_wg_v9_pilot2","3TAYZSBPLL9EUIW3AZ6FC6PV6O7S2A","98","0","LADDER","10","5","1","1840","ladder","10","2018-01-10 16:05:38","150069"
"A2S70WW1VAPKK8","cs_wg_v9_pilot2","3NGI5ARFTT6AS5YFZE27CIAFRYN1PN","56","0","COMMUNITY","0","5","1","1450","COMMUNITY","0","2018-01-10 16:05:43","150070"
"A29RCGY1GBMU18","cs_wg_v9_pilot2","3TAYZSBPLL9EUIW3AZ6FC6PV6O7S2A","99","0","UMBRELLA","0","5","1","2006","umbrella","0","2018-01-10 16:05:51","150071"
"A2S70WW1VAPKK8","cs_wg_v9_pilot2","3NGI5ARFTT6AS5YFZE27CIAFRYN1PN","57","0","HELICOPTER","0","5","1","2178","HELICOPTER","0","2018-01-10 16:05:54","150072"
"A29RCGY1GBMU18","cs_wg_v9_pilot2","3TAYZSBPLL9EUIW3AZ6FC6PV6O7S2A","100","0","COMMUNITY","10","5","0","879","community","10","2018-01-10 16:06:01","150073"
"A2S70WW1VAPKK8","cs_wg_v9_pilot2","3NGI5ARFTT6AS5YFZE27CIAFRYN1PN","58","0","BOOKSHELF","1","5","1","2276","BOOKSHELF","1","2018-01-10 16:06:09","150074"
"A29RCGY1GBMU18","cs_wg_v9_pilot2","3TAYZSBPLL9EUIW3AZ6FC6PV6O7S2A","101","0","STOMACH","9","5","0","1084","stomach","9","2018-01-10 16:06:12","150075"
"A2S70WW1VAPKK8","cs_wg_v9_pilot2","3NGI5ARFTT6AS5YFZE27CIAFRYN1PN","59","0","TRAFFIC","10","5","1","2708","TRAFFIC","10","2018-01-10 16:06:20","150076"
"A29RCGY1GBMU18","cs_wg_v9_pilot2","3TAYZSBPLL9EUIW3AZ6FC6PV6O7S2A","102","0","WEDDING","0","5","1","2102","wedding","0","2018-01-10 16:06:24","150077"
"A2S70WW1VAPKK8","cs_wg_v9_pilot2","3NGI5ARFTT6AS5YFZE27CIAFRYN1PN","60","0","BASKET","10","5","0","1616","BASKET","10","2018-01-10 16:06:29","150078"
"A29RCGY1GBMU18","cs_wg_v9_pilot2","3TAYZSBPLL9EUIW3AZ6FC6PV6O7S2A","103","0","TRAFFIC","1","5","1","4543","traffic","1","2018-01-10 16:06:39","150079"
"A2S70WW1VAPKK8","cs_wg_v9_pilot2","3NGI5ARFTT6AS5YFZE27CIAFRYN1PN","61","0","KEYBOARD","0","5","1","2653","KEYBOARD","0","2018-01-10 16:06:45","150080"
"A29RCGY1GBMU18","cs_wg_v9_pilot2","3TAYZSBPLL9EUIW3AZ6FC6PV6O7S2A","104","0","MACHINE","0","5","0","1473","machine","0","2018-01-10 16:06:53","150081"
"A2S70WW1VAPKK8","cs_wg_v9_pilot2","3NGI5ARFTT6AS5YFZE27CIAFRYN1PN","62","0","WEDDING","9","5","0","3892","WEDDING","9","2018-01-10 16:06:56","150082"
"A29RCGY1GBMU18","cs_wg_v9_pilot2","3TAYZSBPLL9EUIW3AZ6FC6PV6O7S2A","105","0","BASKET","0","5","1","1942","basket","0","2018-01-10 16:07:05","150083"
"A2S70WW1VAPKK8","cs_wg_v9_pilot2","3NGI5ARFTT6AS5YFZE27CIAFRYN1PN","63","0","HELICOPTER","0","5","1","1784","HELICOPTER","0","2018-01-10 16:07:14","150084"
"A29RCGY1GBMU18","cs_wg_v9_pilot2","3TAYZSBPLL9EUIW3AZ6FC6PV6O7S2A","106","0","DOORWAY","10","5","0","1631","doorway","10","2018-01-10 16:07:18","150085"
"A29RCGY1GBMU18","cs_wg_v9_pilot2","3TAYZSBPLL9EUIW3AZ6FC6PV6O7S2A","107","0","LADDER","10","5","1","1559","ladder","10","2018-01-10 16:07:30","150086"
"A2S70WW1VAPKK8","cs_wg_v9_pilot2","3NGI5ARFTT6AS5YFZE27CIAFRYN1PN","64","0","STRUCTURE","1","5","0","5282","STRUCTURE","1","2018-01-10 16:07:31","150087"
"A2S70WW1VAPKK8","cs_wg_v9_pilot2","3NGI5ARFTT6AS5YFZE27CIAFRYN1PN","65","0","FOOTBALL","1","5","1","1642","FOOTBALL","1","2018-01-10 16:07:42","150088"
"A29RCGY1GBMU18","cs_wg_v9_pilot2","3TAYZSBPLL9EUIW3AZ6FC6PV6O7S2A","108","0","LADDER","10","5","0","1276","ladder","10","2018-01-10 16:07:43","150089"
"A2S70WW1VAPKK8","cs_wg_v9_pilot2","3NGI5ARFTT6AS5YFZE27CIAFRYN1PN","66","0","BASKET","10","5","0","1617","BASKET","10","2018-01-10 16:07:54","150090"
"A29RCGY1GBMU18","cs_wg_v9_pilot2","3TAYZSBPLL9EUIW3AZ6FC6PV6O7S2A","109","0","FOOTBALL","10","5","0","1296","football","10","2018-01-10 16:07:55","150091"
"A2S70WW1VAPKK8","cs_wg_v9_pilot2","3NGI5ARFTT6AS5YFZE27CIAFRYN1PN","67","0","KEYBOARD","0","5","1","1417","KEYBOARD","0","2018-01-10 16:08:04","150092"
"A29RCGY1GBMU18","cs_wg_v9_pilot2","3TAYZSBPLL9EUIW3AZ6FC6PV6O7S2A","110","0","FOOTBALL","10","5","0","967","football","10","2018-01-10 16:08:07","150093"
"A2S70WW1VAPKK8","cs_wg_v9_pilot2","3NGI5ARFTT6AS5YFZE27CIAFRYN1PN","68","0","KEYBOARD","0","5","1","3101","KEYBOARD","0","2018-01-10 16:08:18","150094"
"A29RCGY1GBMU18","cs_wg_v9_pilot2","3TAYZSBPLL9EUIW3AZ6FC6PV6O7S2A","111","0","KEYBOARD","9","5","0","3009","keyboard","9","2018-01-10 16:08:23","150095"
"A2S70WW1VAPKK8","cs_wg_v9_pilot2","3NGI5ARFTT6AS5YFZE27CIAFRYN1PN","69","0","STOMACH","10","5","0","1265","STOMACH","10","2018-01-10 16:08:28","150096"
"A2S70WW1VAPKK8","cs_wg_v9_pilot2","3NGI5ARFTT6AS5YFZE27CIAFRYN1PN","70","0","FOOTBALL","1","5","1","1202","FOOTBALL","1","2018-01-10 16:08:37","150097"
"A2S70WW1VAPKK8","cs_wg_v9_pilot2","3NGI5ARFTT6AS5YFZE27CIAFRYN1PN","71","0","STRUCTURE","1","5","1","2737","STRUCTURE","1","2018-01-10 16:08:49","150098"
"A2S70WW1VAPKK8","cs_wg_v9_pilot2","3NGI5ARFTT6AS5YFZE27CIAFRYN1PN","72","0","WEDDING","9","5","0","1413","WEDDING","9","2018-01-10 16:09:00","150099"
"A2S70WW1VAPKK8","cs_wg_v9_pilot2","3NGI5ARFTT6AS5YFZE27CIAFRYN1PN","73","0","MACHINE","10","5","0","1446","MACHINE","10","2018-01-10 16:09:10","150100"
"A2S70WW1VAPKK8","cs_wg_v9_pilot2","3NGI5ARFTT6AS5YFZE27CIAFRYN1PN","74","0","TRAFFIC","10","5","0","3221","TRAFFIC","10","2018-01-10 16:09:35","150101"
"A2S70WW1VAPKK8","cs_wg_v9_pilot2","3NGI5ARFTT6AS5YFZE27CIAFRYN1PN","75","0","HELICOPTER","0","5","1","4670","HELICOPTER","0","2018-01-10 16:09:48","150102"
"A2S70WW1VAPKK8","cs_wg_v9_pilot2","3NGI5ARFTT6AS5YFZE27CIAFRYN1PN","76","0","DOORWAY","9","5","0","1321","DOORWAY","9","2018-01-10 16:09:57","150103"
"A2S70WW1VAPKK8","cs_wg_v9_pilot2","3NGI5ARFTT6AS5YFZE27CIAFRYN1PN","77","0","STRUCTURE","1","5","1","2669","STRUCTURE","1","2018-01-10 16:10:09","150104"
"A2S70WW1VAPKK8","cs_wg_v9_pilot2","3NGI5ARFTT6AS5YFZE27CIAFRYN1PN","78","0","DOORWAY","9","5","0","1284","DOORWAY","9","2018-01-10 16:10:18","150105"
"A2S70WW1VAPKK8","cs_wg_v9_pilot2","3NGI5ARFTT6AS5YFZE27CIAFRYN1PN","79","0","UMBRELLA","0","5","1","1753","UMBRELLA ","0","2018-01-10 16:10:29","150106"
"A2S70WW1VAPKK8","cs_wg_v9_pilot2","3NGI5ARFTT6AS5YFZE27CIAFRYN1PN","80","0","MACHINE","10","5","0","1194","MACHINE ","10","2018-01-10 16:10:38","150107"
"A2S70WW1VAPKK8","cs_wg_v9_pilot2","3NGI5ARFTT6AS5YFZE27CIAFRYN1PN","81","0","WEDDING","9","5","0","3349","WEDDING","9","2018-01-10 16:10:50","150108"
"A2S70WW1VAPKK8","cs_wg_v9_pilot2","3NGI5ARFTT6AS5YFZE27CIAFRYN1PN","82","0","UMBRELLA","0","5","1","1404","UMBRELLA ","0","2018-01-10 16:11:00","150109"
"A2S70WW1VAPKK8","cs_wg_v9_pilot2","3NGI5ARFTT6AS5YFZE27CIAFRYN1PN","83","0","BASKET","10","5","0","1970","BASKET ","10","2018-01-10 16:11:10","150110"
"A2S70WW1VAPKK8","cs_wg_v9_pilot2","3NGI5ARFTT6AS5YFZE27CIAFRYN1PN","84","0","LADDER","9","5","0","2583","LADDER","9","2018-01-10 16:11:22","150111"
"A2S70WW1VAPKK8","cs_wg_v9_pilot2","3NGI5ARFTT6AS5YFZE27CIAFRYN1PN","85","0","BASKET","10","5","0","1414","BASKET","10","2018-01-10 16:11:33","150112"
"A2S70WW1VAPKK8","cs_wg_v9_pilot2","3NGI5ARFTT6AS5YFZE27CIAFRYN1PN","86","0","DOORWAY","9","5","0","1286","DOORWAY ","9","2018-01-10 16:11:42","150113"
"A2S70WW1VAPKK8","cs_wg_v9_pilot2","3NGI5ARFTT6AS5YFZE27CIAFRYN1PN","87","0","BOOKSHELF","1","5","1","2606","BOOKSHELF ","1","2018-01-10 16:11:53","150114"
"A2S70WW1VAPKK8","cs_wg_v9_pilot2","3NGI5ARFTT6AS5YFZE27CIAFRYN1PN","88","0","TRAFFIC","10","5","0","2677","TRAFFIC ","10","2018-01-10 16:12:03","150115"
"A2S70WW1VAPKK8","cs_wg_v9_pilot2","3NGI5ARFTT6AS5YFZE27CIAFRYN1PN","89","0","COMMUNITY","0","5","1","2025","COMMUNITY ","0","2018-01-10 16:12:13","150116"
"A2S70WW1VAPKK8","cs_wg_v9_pilot2","3NGI5ARFTT6AS5YFZE27CIAFRYN1PN","90","0","TRAFFIC","10","5","0","4121","TRAFFIC ","10","2018-01-10 16:12:26","150117"
"A2S70WW1VAPKK8","cs_wg_v9_pilot2","3NGI5ARFTT6AS5YFZE27CIAFRYN1PN","91","0","BOOKSHELF","1","5","1","1675","BOOKSHELF ","1","2018-01-10 16:12:36","150118"
"A2S70WW1VAPKK8","cs_wg_v9_pilot2","3NGI5ARFTT6AS5YFZE27CIAFRYN1PN","92","0","KEYBOARD","0","5","1","1490","KEYBOARD ","0","2018-01-10 16:12:45","150119"
"A2S70WW1VAPKK8","cs_wg_v9_pilot2","3NGI5ARFTT6AS5YFZE27CIAFRYN1PN","93","0","TRAFFIC","10","5","0","3010","TRAFFIC ","10","2018-01-10 16:12:57","150120"
"A2S70WW1VAPKK8","cs_wg_v9_pilot2","3NGI5ARFTT6AS5YFZE27CIAFRYN1PN","94","0","LADDER","9","5","0","6103","LADDER ","9","2018-01-10 16:13:12","150121"
"A2S70WW1VAPKK8","cs_wg_v9_pilot2","3NGI5ARFTT6AS5YFZE27CIAFRYN1PN","95","0","MACHINE","10","5","0","1460","MACHINE ","10","2018-01-10 16:13:25","150122"
"A2S70WW1VAPKK8","cs_wg_v9_pilot2","3NGI5ARFTT6AS5YFZE27CIAFRYN1PN","96","0","STRUCTURE","1","5","1","2448","STRUCTURE ","1","2018-01-10 16:13:35","150123"
"A2S70WW1VAPKK8","cs_wg_v9_pilot2","3NGI5ARFTT6AS5YFZE27CIAFRYN1PN","97","0","HELICOPTER","0","5","1","2977","HELICOPTER ","0","2018-01-10 16:13:47","150124"
"A2S70WW1VAPKK8","cs_wg_v9_pilot2","3NGI5ARFTT6AS5YFZE27CIAFRYN1PN","98","0","TRAFFIC","10","5","0","1445","TRAFFIC","10","2018-01-10 16:13:57","150125"
"A2S70WW1VAPKK8","cs_wg_v9_pilot2","3NGI5ARFTT6AS5YFZE27CIAFRYN1PN","99","0","STOMACH","10","5","0","1064","STOMACH ","10","2018-01-10 16:14:07","150126"
"A2S70WW1VAPKK8","cs_wg_v9_pilot2","3NGI5ARFTT6AS5YFZE27CIAFRYN1PN","100","0","LADDER","9","5","0","2766","LADDER","9","2018-01-10 16:14:18","150127"
"A2S70WW1VAPKK8","cs_wg_v9_pilot2","3NGI5ARFTT6AS5YFZE27CIAFRYN1PN","101","0","STRUCTURE","1","5","1","1655","STRUCTURE ","1","2018-01-10 16:14:27","150128"
"A2S70WW1VAPKK8","cs_wg_v9_pilot2","3NGI5ARFTT6AS5YFZE27CIAFRYN1PN","102","0","COMMUNITY","0","5","1","1559","COMMUNITY ","0","2018-01-10 16:14:36","150129"
"A2S70WW1VAPKK8","cs_wg_v9_pilot2","3NGI5ARFTT6AS5YFZE27CIAFRYN1PN","103","0","MACHINE","10","5","0","1166","MACHINE","10","2018-01-10 16:14:46","150130"
"A2S70WW1VAPKK8","cs_wg_v9_pilot2","3NGI5ARFTT6AS5YFZE27CIAFRYN1PN","104","0","FOOTBALL","1","5","1","1348","FOOTBALL","1","2018-01-10 16:14:58","150131"
"A2S70WW1VAPKK8","cs_wg_v9_pilot2","3NGI5ARFTT6AS5YFZE27CIAFRYN1PN","105","0","BOOKSHELF","1","5","1","1331","BOOKSHELF","1","2018-01-10 16:15:09","150132"
"A2S70WW1VAPKK8","cs_wg_v9_pilot2","3NGI5ARFTT6AS5YFZE27CIAFRYN1PN","106","0","BASKET","10","5","0","2512","BASKET ","10","2018-01-10 16:15:20","150133"
"A2S70WW1VAPKK8","cs_wg_v9_pilot2","3NGI5ARFTT6AS5YFZE27CIAFRYN1PN","107","0","LADDER","9","5","0","2137","LADDER","9","2018-01-10 16:15:30","150134"
"A2S70WW1VAPKK8","cs_wg_v9_pilot2","3NGI5ARFTT6AS5YFZE27CIAFRYN1PN","108","0","KEYBOARD","0","5","1","1423","KEYBOARD","0","2018-01-10 16:15:40","150135"
"A2S70WW1VAPKK8","cs_wg_v9_pilot2","3NGI5ARFTT6AS5YFZE27CIAFRYN1PN","109","0","DOORWAY","9","5","0","2110","DOORWAY ","9","2018-01-10 16:15:51","150136"
"A2S70WW1VAPKK8","cs_wg_v9_pilot2","3NGI5ARFTT6AS5YFZE27CIAFRYN1PN","110","0","UMBRELLA","0","5","1","1222","UMBRELLA ","0","2018-01-10 16:16:01","150137"
"A2S70WW1VAPKK8","cs_wg_v9_pilot2","3NGI5ARFTT6AS5YFZE27CIAFRYN1PN","111","0","TRAFFIC","10","5","0","1208","TRAFFIC ","10","2018-01-10 16:16:10","150138"
