"subject","version","assignmentId","trial","trial_type","word","value","alt","choice","rt","resp","resp2","stamp","id"
"AITLTT4ZKSZIM","cs_wg_v3_real1","3LOZAJ85YDEMQZI249C2BE6L69F2XR","0","0","FOOTBALL","8","5","1","8542","FOOTBALL","8","2017-03-26 23:37:58","6566"
"A1GV0UZU0T2ORS","cs_wg_v3_real1","36NEMU28XFEX83H54MZ0O46C3CPWMI","0","0","BOOKSHELF","0","5","0","3958","bookshelf","0","2017-03-26 23:38:05","6567"
"A1GV0UZU0T2ORS","cs_wg_v3_real1","36NEMU28XFEX83H54MZ0O46C3CPWMI","1","0","HELICOPTER","1","5","0","3491","helicopter","1","2017-03-26 23:38:15","6568"
"AITLTT4ZKSZIM","cs_wg_v3_real1","3LOZAJ85YDEMQZI249C2BE6L69F2XR","1","0","STRUCTURE","0","5","0","6094","STRUCTURE","0","2017-03-26 23:38:20","6569"
"A1GV0UZU0T2ORS","cs_wg_v3_real1","36NEMU28XFEX83H54MZ0O46C3CPWMI","2","0","TRAFFIC","0","5","0","1211","traffic","0","2017-03-26 23:38:24","6570"
"A1GV0UZU0T2ORS","cs_wg_v3_real1","36NEMU28XFEX83H54MZ0O46C3CPWMI","3","0","LADDER","9","5","0","2524","ladder","9","2017-03-26 23:38:33","6571"
"AITLTT4ZKSZIM","cs_wg_v3_real1","3LOZAJ85YDEMQZI249C2BE6L69F2XR","2","0","BASKET","2","5","1","3057","BASKET","2","2017-03-26 23:38:36","6572"
"A1GV0UZU0T2ORS","cs_wg_v3_real1","36NEMU28XFEX83H54MZ0O46C3CPWMI","4","0","KEYBOARD","0","5","0","3596","keyboard","0","2017-03-26 23:38:44","6573"
"AITLTT4ZKSZIM","cs_wg_v3_real1","3LOZAJ85YDEMQZI249C2BE6L69F2XR","3","0","FOOTBALL","8","5","0","3834","FOOTBALL","8","2017-03-26 23:38:51","6574"
"A1GV0UZU0T2ORS","cs_wg_v3_real1","36NEMU28XFEX83H54MZ0O46C3CPWMI","5","0","MACHINE","2","5","0","2461","MACHINE","2","2017-03-26 23:38:52","6575"
"A1GV0UZU0T2ORS","cs_wg_v3_real1","36NEMU28XFEX83H54MZ0O46C3CPWMI","6","0","COMMUNITY","9","5","0","1706","COMMUNITY","9","2017-03-26 23:39:00","6576"
"A1GV0UZU0T2ORS","cs_wg_v3_real1","36NEMU28XFEX83H54MZ0O46C3CPWMI","7","0","WEDDING","8","5","0","1677","WEDDING","8","2017-03-26 23:39:07","6577"
"A1GV0UZU0T2ORS","cs_wg_v3_real1","36NEMU28XFEX83H54MZ0O46C3CPWMI","8","0","STOMACH","10","5","0","5715","stomach","10","2017-03-26 23:39:19","6578"
"A1GV0UZU0T2ORS","cs_wg_v3_real1","36NEMU28XFEX83H54MZ0O46C3CPWMI","9","0","BOOKSHELF","0","5","1","2196","BOOKSHELF","0","2017-03-26 23:39:27","6579"
"AITLTT4ZKSZIM","cs_wg_v3_real1","3LOZAJ85YDEMQZI249C2BE6L69F2XR","4","0","LADDER","1","5","0","3588","LADDER","1","2017-03-26 23:39:29","6580"
"A1FP3SH704X01V","cs_wg_v3_real1","3LO69W1SU3EH5Z9KP5U32O5Z9J9LG6","0","0","DOORWAY","2","5","0","3096","doorway","2","2017-03-26 23:39:34","6581"
"A1GV0UZU0T2ORS","cs_wg_v3_real1","36NEMU28XFEX83H54MZ0O46C3CPWMI","10","0","STOMACH","10","5","0","2646","STOMACH","10","2017-03-26 23:39:37","6582"
"A1FP3SH704X01V","cs_wg_v3_real1","3LO69W1SU3EH5Z9KP5U32O5Z9J9LG6","1","0","STOMACH","0","5","1","2231","stomach","0","2017-03-26 23:39:44","6583"
"A1GV0UZU0T2ORS","cs_wg_v3_real1","36NEMU28XFEX83H54MZ0O46C3CPWMI","11","0","STOMACH","10","5","0","2327","STOMACH","10","2017-03-26 23:39:46","6584"
"AITLTT4ZKSZIM","cs_wg_v3_real1","3LOZAJ85YDEMQZI249C2BE6L69F2XR","5","0","HELICOPTER","8","5","0","5091","HELICOPTER","8","2017-03-26 23:39:50","6585"
"A1FP3SH704X01V","cs_wg_v3_real1","3LO69W1SU3EH5Z9KP5U32O5Z9J9LG6","2","0","STRUCTURE","1","5","0","1419","structure","1","2017-03-26 23:39:52","6586"
"A1GV0UZU0T2ORS","cs_wg_v3_real1","36NEMU28XFEX83H54MZ0O46C3CPWMI","12","0","UMBRELLA","2","5","0","2412","UMBRELLA","2","2017-03-26 23:39:54","6587"
"A1GV0UZU0T2ORS","cs_wg_v3_real1","36NEMU28XFEX83H54MZ0O46C3CPWMI","13","0","STRUCTURE","10","5","0","1645","STRUCTURE","10","2017-03-26 23:40:02","6588"
"A1FP3SH704X01V","cs_wg_v3_real1","3LO69W1SU3EH5Z9KP5U32O5Z9J9LG6","3","0","KEYBOARD","2","5","0","2245","keyboard","2","2017-03-26 23:40:03","6589"
"AITLTT4ZKSZIM","cs_wg_v3_real1","3LOZAJ85YDEMQZI249C2BE6L69F2XR","6","0","MACHINE","0","5","1","5136","MACHINE","0","2017-03-26 23:40:06","6590"
"A1GV0UZU0T2ORS","cs_wg_v3_real1","36NEMU28XFEX83H54MZ0O46C3CPWMI","14","0","LADDER","9","5","0","3659","LADDER","9","2017-03-26 23:40:13","6591"
"A1FP3SH704X01V","cs_wg_v3_real1","3LO69W1SU3EH5Z9KP5U32O5Z9J9LG6","4","0","STRUCTURE","1","5","1","1821","structure","1","2017-03-26 23:40:14","6592"
"AITLTT4ZKSZIM","cs_wg_v3_real1","3LOZAJ85YDEMQZI249C2BE6L69F2XR","7","0","MACHINE","0","5","1","3641","MACHINE","0","2017-03-26 23:40:20","6593"
"A1GV0UZU0T2ORS","cs_wg_v3_real1","36NEMU28XFEX83H54MZ0O46C3CPWMI","15","0","WEDDING","8","5","1","1325","WEDDING","8","2017-03-26 23:40:22","6594"
"A1FP3SH704X01V","cs_wg_v3_real1","3LO69W1SU3EH5Z9KP5U32O5Z9J9LG6","5","0","STRUCTURE","1","5","1","1410","structure","1","2017-03-26 23:40:24","6595"
"A1FP3SH704X01V","cs_wg_v3_real1","3LO69W1SU3EH5Z9KP5U32O5Z9J9LG6","6","0","WEDDING","10","5","0","1631","wedding","10","2017-03-26 23:40:33","6596"
"AITLTT4ZKSZIM","cs_wg_v3_real1","3LOZAJ85YDEMQZI249C2BE6L69F2XR","8","0","STOMACH","0","5","0","3316","STOMACH","0","2017-03-26 23:40:34","6597"
"A1GV0UZU0T2ORS","cs_wg_v3_real1","36NEMU28XFEX83H54MZ0O46C3CPWMI","16","0","BOOKSHELF","0","5","1","8230","bookshelf","0","2017-03-26 23:40:37","6598"
"A1FP3SH704X01V","cs_wg_v3_real1","3LO69W1SU3EH5Z9KP5U32O5Z9J9LG6","7","0","COMMUNITY","10","5","0","1834","community","10","2017-03-26 23:40:44","6599"
"AITLTT4ZKSZIM","cs_wg_v3_real1","3LOZAJ85YDEMQZI249C2BE6L69F2XR","9","0","STOMACH","0","5","1","2169","STOMACH","0","2017-03-26 23:40:46","6600"
"A1GV0UZU0T2ORS","cs_wg_v3_real1","36NEMU28XFEX83H54MZ0O46C3CPWMI","17","0","UMBRELLA","2","5","1","3413","UMBRELLA","2","2017-03-26 23:40:49","6601"
"A1FP3SH704X01V","cs_wg_v3_real1","3LO69W1SU3EH5Z9KP5U32O5Z9J9LG6","8","0","FOOTBALL","9","5","1","1362","football","9","2017-03-26 23:40:54","6602"
"A1GV0UZU0T2ORS","cs_wg_v3_real1","36NEMU28XFEX83H54MZ0O46C3CPWMI","18","0","KEYBOARD","0","5","1","1165","KEYBOARD","0","2017-03-26 23:40:56","6603"
"A1FP3SH704X01V","cs_wg_v3_real1","3LO69W1SU3EH5Z9KP5U32O5Z9J9LG6","9","0","BOOKSHELF","0","5","1","1755","bookshelf","0","2017-03-26 23:41:03","6604"
"A1GV0UZU0T2ORS","cs_wg_v3_real1","36NEMU28XFEX83H54MZ0O46C3CPWMI","19","0","BOOKSHELF","0","5","1","1829","BOOKSHELF","0","2017-03-26 23:41:06","6605"
"A1FP3SH704X01V","cs_wg_v3_real1","3LO69W1SU3EH5Z9KP5U32O5Z9J9LG6","10","0","KEYBOARD","2","5","1","2224","keyboard","2","2017-03-26 23:41:14","6606"
"A1GV0UZU0T2ORS","cs_wg_v3_real1","36NEMU28XFEX83H54MZ0O46C3CPWMI","20","0","STRUCTURE","10","5","1","1254","STRUCTURE","10","2017-03-26 23:41:15","6607"
"A1GV0UZU0T2ORS","cs_wg_v3_real1","36NEMU28XFEX83H54MZ0O46C3CPWMI","21","0","UMBRELLA","2","5","1","1180","UMBRELLA","2","2017-03-26 23:41:22","6608"
"A1FP3SH704X01V","cs_wg_v3_real1","3LO69W1SU3EH5Z9KP5U32O5Z9J9LG6","11","0","HELICOPTER","9","5","0","1606","helicopter","9","2017-03-26 23:41:23","6609"
"A1FP3SH704X01V","cs_wg_v3_real1","3LO69W1SU3EH5Z9KP5U32O5Z9J9LG6","12","0","UMBRELLA","10","5","1","1708","umbrella","10","2017-03-26 23:41:32","6610"
"AITLTT4ZKSZIM","cs_wg_v3_real1","3LOZAJ85YDEMQZI249C2BE6L69F2XR","10","0","COMMUNITY","10","5","0","39995","COMMUNITY","10","2017-03-26 23:41:37","6611"
"A1FP3SH704X01V","cs_wg_v3_real1","3LO69W1SU3EH5Z9KP5U32O5Z9J9LG6","13","0","STRUCTURE","1","5","1","1291","structure","1","2017-03-26 23:41:40","6612"
"A1GV0UZU0T2ORS","cs_wg_v3_real1","36NEMU28XFEX83H54MZ0O46C3CPWMI","22","0","WEDDING","8","5","1","9262","WEDDING","8","2017-03-26 23:41:47","6613"
"A1FP3SH704X01V","cs_wg_v3_real1","3LO69W1SU3EH5Z9KP5U32O5Z9J9LG6","14","0","BOOKSHELF","0","5","1","1360","bookshelf","0","2017-03-26 23:41:49","6614"
"AITLTT4ZKSZIM","cs_wg_v3_real1","3LOZAJ85YDEMQZI249C2BE6L69F2XR","11","0","DOORWAY","9","5","1","5691","DOORWAY","9","2017-03-26 23:41:54","6615"
"A1GV0UZU0T2ORS","cs_wg_v3_real1","36NEMU28XFEX83H54MZ0O46C3CPWMI","23","0","WEDDING","8","5","0","1916","WEDDING","8","2017-03-26 23:41:56","6616"
"A1FP3SH704X01V","cs_wg_v3_real1","3LO69W1SU3EH5Z9KP5U32O5Z9J9LG6","15","0","KEYBOARD","2","5","1","1529","keyboard","2","2017-03-26 23:41:58","6617"
"A1GV0UZU0T2ORS","cs_wg_v3_real1","36NEMU28XFEX83H54MZ0O46C3CPWMI","24","0","WEDDING","8","5","0","1334","WEDDING","8","2017-03-26 23:42:03","6618"
"AITLTT4ZKSZIM","cs_wg_v3_real1","3LOZAJ85YDEMQZI249C2BE6L69F2XR","12","0","WEDDING","10","5","0","1692","WEDDING","10","2017-03-26 23:42:07","6619"
"A1FP3SH704X01V","cs_wg_v3_real1","3LO69W1SU3EH5Z9KP5U32O5Z9J9LG6","16","0","HELICOPTER","9","5","0","1721","helicopter","9","2017-03-26 23:42:09","6620"
"A1GV0UZU0T2ORS","cs_wg_v3_real1","36NEMU28XFEX83H54MZ0O46C3CPWMI","25","0","BASKET","10","5","1","1517","BASKET","10","2017-03-26 23:42:12","6621"
"A1FP3SH704X01V","cs_wg_v3_real1","3LO69W1SU3EH5Z9KP5U32O5Z9J9LG6","17","0","TRAFFIC","1","5","0","1308","traffic","1","2017-03-26 23:42:19","6622"
"A1GV0UZU0T2ORS","cs_wg_v3_real1","36NEMU28XFEX83H54MZ0O46C3CPWMI","26","0","KEYBOARD","0","5","1","3547","KEYBOARD","0","2017-03-26 23:42:22","6623"
"AITLTT4ZKSZIM","cs_wg_v3_real1","3LOZAJ85YDEMQZI249C2BE6L69F2XR","13","0","LADDER","1","5","1","4037","LADDER","1","2017-03-26 23:42:22","6624"
"A1FP3SH704X01V","cs_wg_v3_real1","3LO69W1SU3EH5Z9KP5U32O5Z9J9LG6","18","0","BASKET","0","5","0","1576","basket","0","2017-03-26 23:42:27","6625"
"A1GV0UZU0T2ORS","cs_wg_v3_real1","36NEMU28XFEX83H54MZ0O46C3CPWMI","27","0","STOMACH","10","5","1","3524","STOMACH","10","2017-03-26 23:42:32","6626"
"AITLTT4ZKSZIM","cs_wg_v3_real1","3LOZAJ85YDEMQZI249C2BE6L69F2XR","14","0","TRAFFIC","2","5","0","2595","TRAFFIC","2","2017-03-26 23:42:35","6627"
"A1FP3SH704X01V","cs_wg_v3_real1","3LO69W1SU3EH5Z9KP5U32O5Z9J9LG6","19","0","LADDER","8","5","1","1956","ladder","8","2017-03-26 23:42:36","6628"
"A1GV0UZU0T2ORS","cs_wg_v3_real1","36NEMU28XFEX83H54MZ0O46C3CPWMI","28","0","TRAFFIC","0","5","1","2245","TRAFFIC","0","2017-03-26 23:42:42","6629"
"A1FP3SH704X01V","cs_wg_v3_real1","3LO69W1SU3EH5Z9KP5U32O5Z9J9LG6","20","0","LADDER","8","5","0","1351","ladder","8","2017-03-26 23:42:45","6630"
"AITLTT4ZKSZIM","cs_wg_v3_real1","3LOZAJ85YDEMQZI249C2BE6L69F2XR","15","0","TRAFFIC","2","5","1","1753","TRAFFIC","2","2017-03-26 23:42:47","6631"
"A1GV0UZU0T2ORS","cs_wg_v3_real1","36NEMU28XFEX83H54MZ0O46C3CPWMI","29","0","LADDER","9","5","1","1534","LADDER","9","2017-03-26 23:42:50","6632"
"A1FP3SH704X01V","cs_wg_v3_real1","3LO69W1SU3EH5Z9KP5U32O5Z9J9LG6","21","0","DOORWAY","2","5","1","1577","doorway","2","2017-03-26 23:42:53","6633"
"AITLTT4ZKSZIM","cs_wg_v3_real1","3LOZAJ85YDEMQZI249C2BE6L69F2XR","16","0","FOOTBALL","8","5","1","4168","FOOTBALL","8","2017-03-26 23:43:01","6634"
"A1GV0UZU0T2ORS","cs_wg_v3_real1","36NEMU28XFEX83H54MZ0O46C3CPWMI","30","0","STOMACH","10","5","0","3341","STOMACH

stomach","10","2017-03-26 23:43:01","6635"
"A1FP3SH704X01V","cs_wg_v3_real1","3LO69W1SU3EH5Z9KP5U32O5Z9J9LG6","22","0","BASKET","0","5","0","1575","basket","0","2017-03-26 23:43:02","6636"
"A1GV0UZU0T2ORS","cs_wg_v3_real1","36NEMU28XFEX83H54MZ0O46C3CPWMI","31","0","HELICOPTER","1","5","1","1614","HELICOPTER","1","2017-03-26 23:43:08","6637"
"A1FP3SH704X01V","cs_wg_v3_real1","3LO69W1SU3EH5Z9KP5U32O5Z9J9LG6","23","0","WEDDING","10","5","0","1625","wedding","10","2017-03-26 23:43:10","6638"
"AITLTT4ZKSZIM","cs_wg_v3_real1","3LOZAJ85YDEMQZI249C2BE6L69F2XR","17","0","BOOKSHELF","10","5","0","2342","BOOKSHELF","10","2017-03-26 23:43:14","6639"
"A1GV0UZU0T2ORS","cs_wg_v3_real1","36NEMU28XFEX83H54MZ0O46C3CPWMI","32","0","DOORWAY","1","5","1","1925","DOORWAY","1","2017-03-26 23:43:15","6640"
"A1FP3SH704X01V","cs_wg_v3_real1","3LO69W1SU3EH5Z9KP5U32O5Z9J9LG6","24","0","STOMACH","0","5","1","1522","stomach","0","2017-03-26 23:43:19","6641"
"A1GV0UZU0T2ORS","cs_wg_v3_real1","36NEMU28XFEX83H54MZ0O46C3CPWMI","33","0","STRUCTURE","10","5","0","1629","STRUCTURE","10","2017-03-26 23:43:22","6642"
"A1FP3SH704X01V","cs_wg_v3_real1","3LO69W1SU3EH5Z9KP5U32O5Z9J9LG6","25","0","UMBRELLA","10","5","0","1959","umbrella","10","2017-03-26 23:43:29","6643"
"A1GV0UZU0T2ORS","cs_wg_v3_real1","36NEMU28XFEX83H54MZ0O46C3CPWMI","34","0","FOOTBALL","8","5","1","2044","FOOTBALL","8","2017-03-26 23:43:30","6644"
"A1FP3SH704X01V","cs_wg_v3_real1","3LO69W1SU3EH5Z9KP5U32O5Z9J9LG6","26","0","UMBRELLA","10","5","0","1208","umbrella","10","2017-03-26 23:43:40","6645"
"AITLTT4ZKSZIM","cs_wg_v3_real1","3LOZAJ85YDEMQZI249C2BE6L69F2XR","18","0","HELICOPTER","8","5","1","14871","HELICOPTER","8","2017-03-26 23:43:42","6646"
"A1GV0UZU0T2ORS","cs_wg_v3_real1","36NEMU28XFEX83H54MZ0O46C3CPWMI","35","0","LADDER","9","5","0","6013","LADDER","9","2017-03-26 23:43:44","6647"
"A1FP3SH704X01V","cs_wg_v3_real1","3LO69W1SU3EH5Z9KP5U32O5Z9J9LG6","27","0","FOOTBALL","9","5","1","1280","football","9","2017-03-26 23:43:48","6648"
"A1GV0UZU0T2ORS","cs_wg_v3_real1","36NEMU28XFEX83H54MZ0O46C3CPWMI","36","0","UMBRELLA","2","5","1","1573","UMBRELLA","2","2017-03-26 23:43:51","6649"
"AITLTT4ZKSZIM","cs_wg_v3_real1","3LOZAJ85YDEMQZI249C2BE6L69F2XR","19","0","UMBRELLA","1","5","0","2200","UMBRELLA","1","2017-03-26 23:43:53","6650"
"A1FP3SH704X01V","cs_wg_v3_real1","3LO69W1SU3EH5Z9KP5U32O5Z9J9LG6","28","0","BASKET","0","5","1","1412","basket","0","2017-03-26 23:43:57","6651"
"A1GV0UZU0T2ORS","cs_wg_v3_real1","36NEMU28XFEX83H54MZ0O46C3CPWMI","37","0","UMBRELLA","2","5","1","1604","UMBRELLA","2","2017-03-26 23:43:58","6652"
"ANVAFB99K5RKP","cs_wg_v3_real1","3XUHV3NRVKZH361AHOWE6ZL32TN5H2","0","0","DOORWAY","1","5","1","4472","doorway","1","2017-03-26 23:44:01","6653"
"A1GV0UZU0T2ORS","cs_wg_v3_real1","36NEMU28XFEX83H54MZ0O46C3CPWMI","38","0","FOOTBALL","8","5","0","1477","FOOTBALL","8","2017-03-26 23:44:06","6654"
"AITLTT4ZKSZIM","cs_wg_v3_real1","3LOZAJ85YDEMQZI249C2BE6L69F2XR","20","0","FOOTBALL","8","5","0","3298","FOOTBALL","8","2017-03-26 23:44:06","6655"
"A1FP3SH704X01V","cs_wg_v3_real1","3LO69W1SU3EH5Z9KP5U32O5Z9J9LG6","29","0","MACHINE","8","5","0","1735","machine","8","2017-03-26 23:44:06","6656"
"ANVAFB99K5RKP","cs_wg_v3_real1","3XUHV3NRVKZH361AHOWE6ZL32TN5H2","1","0","BOOKSHELF","8","5","1","2236","bookshelf","8","2017-03-26 23:44:14","6657"
"A1GV0UZU0T2ORS","cs_wg_v3_real1","36NEMU28XFEX83H54MZ0O46C3CPWMI","39","0","DOORWAY","1","5","1","3191","DOORWAY","1","2017-03-26 23:44:15","6658"
"A1FP3SH704X01V","cs_wg_v3_real1","3LO69W1SU3EH5Z9KP5U32O5Z9J9LG6","30","0","LADDER","8","5","0","1464","ladder","8","2017-03-26 23:44:15","6659"
"AITLTT4ZKSZIM","cs_wg_v3_real1","3LOZAJ85YDEMQZI249C2BE6L69F2XR","21","0","LADDER","1","5","1","4139","LADDER","1","2017-03-26 23:44:21","6660"
"A1GV0UZU0T2ORS","cs_wg_v3_real1","36NEMU28XFEX83H54MZ0O46C3CPWMI","40","0","KEYBOARD","0","5","1","2070","KEYBOARD","0","2017-03-26 23:44:23","6661"
"A1FP3SH704X01V","cs_wg_v3_real1","3LO69W1SU3EH5Z9KP5U32O5Z9J9LG6","31","0","STOMACH","0","5","1","1929","stomach","0","2017-03-26 23:44:24","6662"
"ANVAFB99K5RKP","cs_wg_v3_real1","3XUHV3NRVKZH361AHOWE6ZL32TN5H2","2","0","BASKET","0","5","1","1608","basket","0","2017-03-26 23:44:24","6663"
"A1GV0UZU0T2ORS","cs_wg_v3_real1","36NEMU28XFEX83H54MZ0O46C3CPWMI","41","0","BASKET","10","5","0","2818","BASKET","10","2017-03-26 23:44:32","6664"
"A1FP3SH704X01V","cs_wg_v3_real1","3LO69W1SU3EH5Z9KP5U32O5Z9J9LG6","32","0","STRUCTURE","1","5","1","2734","structure","1","2017-03-26 23:44:33","6665"
"AITLTT4ZKSZIM","cs_wg_v3_real1","3LOZAJ85YDEMQZI249C2BE6L69F2XR","22","0","DOORWAY","9","5","0","4291","DOORWAY","9","2017-03-26 23:44:34","6666"
"ANVAFB99K5RKP","cs_wg_v3_real1","3XUHV3NRVKZH361AHOWE6ZL32TN5H2","3","0","STOMACH","2","5","0","2824","stomach","2","2017-03-26 23:44:35","6667"
"A1GV0UZU0T2ORS","cs_wg_v3_real1","36NEMU28XFEX83H54MZ0O46C3CPWMI","42","0","TRAFFIC","0","5","1","2189","TRAFFIC","0","2017-03-26 23:44:40","6668"
"A1FP3SH704X01V","cs_wg_v3_real1","3LO69W1SU3EH5Z9KP5U32O5Z9J9LG6","33","0","KEYBOARD","2","5","1","1509","keyboard","2","2017-03-26 23:44:42","6669"
"ANVAFB99K5RKP","cs_wg_v3_real1","3XUHV3NRVKZH361AHOWE6ZL32TN5H2","4","0","WEDDING","10","5","1","914","wedding","10","2017-03-26 23:44:44","6670"
"AITLTT4ZKSZIM","cs_wg_v3_real1","3LOZAJ85YDEMQZI249C2BE6L69F2XR","23","0","HELICOPTER","8","5","0","2433","HELICOPTER","8","2017-03-26 23:44:47","6671"
"A1GV0UZU0T2ORS","cs_wg_v3_real1","36NEMU28XFEX83H54MZ0O46C3CPWMI","43","0","MACHINE","2","5","1","3205","MACHINE","2","2017-03-26 23:44:50","6672"
"A1FP3SH704X01V","cs_wg_v3_real1","3LO69W1SU3EH5Z9KP5U32O5Z9J9LG6","34","0","FOOTBALL","9","5","0","1524","football","9","2017-03-26 23:44:51","6673"
"A1GV0UZU0T2ORS","cs_wg_v3_real1","36NEMU28XFEX83H54MZ0O46C3CPWMI","44","0","COMMUNITY","9","5","1","1340","COMMUNITY","9","2017-03-26 23:44:57","6674"
"ANVAFB99K5RKP","cs_wg_v3_real1","3XUHV3NRVKZH361AHOWE6ZL32TN5H2","5","0","KEYBOARD","1","5","1","1052","keyboard","1","2017-03-26 23:44:57","6675"
"AITLTT4ZKSZIM","cs_wg_v3_real1","3LOZAJ85YDEMQZI249C2BE6L69F2XR","24","0","KEYBOARD","9","5","0","1703","KEYBOARD","9","2017-03-26 23:44:59","6676"
"A1FP3SH704X01V","cs_wg_v3_real1","3LO69W1SU3EH5Z9KP5U32O5Z9J9LG6","35","0","HELICOPTER","9","5","0","2921","helicopter","9","2017-03-26 23:45:02","6677"
"ANVAFB99K5RKP","cs_wg_v3_real1","3XUHV3NRVKZH361AHOWE6ZL32TN5H2","6","0","LADDER","0","5","1","2008","ladder","0","2017-03-26 23:45:07","6678"
"A1GV0UZU0T2ORS","cs_wg_v3_real1","36NEMU28XFEX83H54MZ0O46C3CPWMI","45","0","STRUCTURE","10","5","0","4550","STRUCTURE","10","2017-03-26 23:45:08","6679"
"A1FP3SH704X01V","cs_wg_v3_real1","3LO69W1SU3EH5Z9KP5U32O5Z9J9LG6","36","0","BOOKSHELF","0","5","1","1402","bookshelf","0","2017-03-26 23:45:11","6680"
"AITLTT4ZKSZIM","cs_wg_v3_real1","3LOZAJ85YDEMQZI249C2BE6L69F2XR","25","0","COMMUNITY","10","5","1","1756","COMMUNITY","10","2017-03-26 23:45:12","6681"
"A1GV0UZU0T2ORS","cs_wg_v3_real1","36NEMU28XFEX83H54MZ0O46C3CPWMI","46","0","BASKET","10","5","0","1357","BASKET","10","2017-03-26 23:45:15","6682"
"ANVAFB99K5RKP","cs_wg_v3_real1","3XUHV3NRVKZH361AHOWE6ZL32TN5H2","7","0","FOOTBALL","0","5","1","1498","football","0","2017-03-26 23:45:17","6683"
"A1FP3SH704X01V","cs_wg_v3_real1","3LO69W1SU3EH5Z9KP5U32O5Z9J9LG6","37","0","UMBRELLA","10","5","0","1414","umbrella","9","2017-03-26 23:45:22","6684"
"A1GV0UZU0T2ORS","cs_wg_v3_real1","36NEMU28XFEX83H54MZ0O46C3CPWMI","47","0","BASKET","10","5","0","1421","BASKET","10","2017-03-26 23:45:22","6685"
"AITLTT4ZKSZIM","cs_wg_v3_real1","3LOZAJ85YDEMQZI249C2BE6L69F2XR","26","0","LADDER","1","5","0","4278","LADDER","1","2017-03-26 23:45:28","6686"
"ANVAFB99K5RKP","cs_wg_v3_real1","3XUHV3NRVKZH361AHOWE6ZL32TN5H2","8","0","DOORWAY","1","5","1","1244","doorway","1","2017-03-26 23:45:28","6687"
"A1FP3SH704X01V","cs_wg_v3_real1","3LO69W1SU3EH5Z9KP5U32O5Z9J9LG6","38","0","TRAFFIC","1","5","1","1206","traffic","1","2017-03-26 23:45:30","6688"
"A1GV0UZU0T2ORS","cs_wg_v3_real1","36NEMU28XFEX83H54MZ0O46C3CPWMI","48","0","STOMACH","10","5","1","2166","STOMACH","10","2017-03-26 23:45:31","6689"
"ANVAFB99K5RKP","cs_wg_v3_real1","3XUHV3NRVKZH361AHOWE6ZL32TN5H2","9","0","BOOKSHELF","8","5","1","1572","bookshelf","8","2017-03-26 23:45:38","6690"
"A1FP3SH704X01V","cs_wg_v3_real1","3LO69W1SU3EH5Z9KP5U32O5Z9J9LG6","39","0","STRUCTURE","1","5","1","1170","structure","1","2017-03-26 23:45:39","6691"
"A1GV0UZU0T2ORS","cs_wg_v3_real1","36NEMU28XFEX83H54MZ0O46C3CPWMI","49","0","MACHINE","2","5","1","4022","MACHINE","2","2017-03-26 23:45:41","6692"
"AITLTT4ZKSZIM","cs_wg_v3_real1","3LOZAJ85YDEMQZI249C2BE6L69F2XR","27","0","KEYBOARD","9","5","0","4523","KEYBOARD","9","2017-03-26 23:45:46","6693"
"ANVAFB99K5RKP","cs_wg_v3_real1","3XUHV3NRVKZH361AHOWE6ZL32TN5H2","10","0","COMMUNITY","8","5","1","1387","community","8","2017-03-26 23:45:48","6694"
"A1FP3SH704X01V","cs_wg_v3_real1","3LO69W1SU3EH5Z9KP5U32O5Z9J9LG6","40","0","HELICOPTER","9","5","0","1702","helicopter","9","2017-03-26 23:45:49","6695"
"A1GV0UZU0T2ORS","cs_wg_v3_real1","36NEMU28XFEX83H54MZ0O46C3CPWMI","50","0","TRAFFIC","0","5","1","5093","traffic","0","2017-03-26 23:45:52","6696"
"A1FP3SH704X01V","cs_wg_v3_real1","3LO69W1SU3EH5Z9KP5U32O5Z9J9LG6","41","0","KEYBOARD","2","5","1","1402","keyboard","2","2017-03-26 23:45:57","6697"
"ANVAFB99K5RKP","cs_wg_v3_real1","3XUHV3NRVKZH361AHOWE6ZL32TN5H2","11","0","COMMUNITY","8","5","0","2519","community","8","2017-03-26 23:45:58","6698"
"A1GV0UZU0T2ORS","cs_wg_v3_real1","36NEMU28XFEX83H54MZ0O46C3CPWMI","51","0","DOORWAY","1","5","1","1523","DOORWAY","1","2017-03-26 23:46:00","6699"
"AITLTT4ZKSZIM","cs_wg_v3_real1","3LOZAJ85YDEMQZI249C2BE6L69F2XR","28","0","DOORWAY","9","5","0","3880","DOORWAY","9","2017-03-26 23:46:01","6700"
"A1FP3SH704X01V","cs_wg_v3_real1","3LO69W1SU3EH5Z9KP5U32O5Z9J9LG6","42","0","UMBRELLA","10","5","0","1216","umbrella","10","2017-03-26 23:46:05","6701"
"A1GV0UZU0T2ORS","cs_wg_v3_real1","36NEMU28XFEX83H54MZ0O46C3CPWMI","52","0","COMMUNITY","9","5","0","2964","COMMUNITY","9","2017-03-26 23:46:09","6702"
"ANVAFB99K5RKP","cs_wg_v3_real1","3XUHV3NRVKZH361AHOWE6ZL32TN5H2","12","0","HELICOPTER","9","5","1","1161","helicopter","9","2017-03-26 23:46:12","6703"
"AITLTT4ZKSZIM","cs_wg_v3_real1","3LOZAJ85YDEMQZI249C2BE6L69F2XR","29","0","TRAFFIC","2","5","1","3751","TRAFFIC","2","2017-03-26 23:46:13","6704"
"A1FP3SH704X01V","cs_wg_v3_real1","3LO69W1SU3EH5Z9KP5U32O5Z9J9LG6","43","0","KEYBOARD","2","5","1","1129","keyboard","2","2017-03-26 23:46:13","6705"
"A1GV0UZU0T2ORS","cs_wg_v3_real1","36NEMU28XFEX83H54MZ0O46C3CPWMI","53","0","MACHINE","2","5","1","2420","MACHINE","2","2017-03-26 23:46:17","6706"
"A1FP3SH704X01V","cs_wg_v3_real1","3LO69W1SU3EH5Z9KP5U32O5Z9J9LG6","44","0","UMBRELLA","10","5","0","1322","umbrella","10","2017-03-26 23:46:22","6707"
"ANVAFB99K5RKP","cs_wg_v3_real1","3XUHV3NRVKZH361AHOWE6ZL32TN5H2","13","0","BOOKSHELF","8","5","0","1729","bookshelf","8","2017-03-26 23:46:24","6708"
"A1GV0UZU0T2ORS","cs_wg_v3_real1","36NEMU28XFEX83H54MZ0O46C3CPWMI","54","0","KEYBOARD","0","5","1","1445","KEYBOARD","0","2017-03-26 23:46:24","6709"
"AITLTT4ZKSZIM","cs_wg_v3_real1","3LOZAJ85YDEMQZI249C2BE6L69F2XR","30","0","KEYBOARD","9","5","0","1716","KEYBOARD","9","2017-03-26 23:46:25","6710"
"A1FP3SH704X01V","cs_wg_v3_real1","3LO69W1SU3EH5Z9KP5U32O5Z9J9LG6","45","0","STRUCTURE","1","5","1","1106","structure","1","2017-03-26 23:46:30","6711"
"A1GV0UZU0T2ORS","cs_wg_v3_real1","36NEMU28XFEX83H54MZ0O46C3CPWMI","55","0","MACHINE","2","5","0","2357","MACHINE","2","2017-03-26 23:46:32","6712"
"ANVAFB99K5RKP","cs_wg_v3_real1","3XUHV3NRVKZH361AHOWE6ZL32TN5H2","14","0","STRUCTURE","10","5","1","1154","structure","10","2017-03-26 23:46:37","6713"
"A1FP3SH704X01V","cs_wg_v3_real1","3LO69W1SU3EH5Z9KP5U32O5Z9J9LG6","46","0","STRUCTURE","1","5","1","1143","structure","1","2017-03-26 23:46:38","6714"
"AITLTT4ZKSZIM","cs_wg_v3_real1","3LOZAJ85YDEMQZI249C2BE6L69F2XR","31","0","BOOKSHELF","10","5","0","3879","BOOKSHELF","10","2017-03-26 23:46:38","6715"
"A1GV0UZU0T2ORS","cs_wg_v3_real1","36NEMU28XFEX83H54MZ0O46C3CPWMI","56","0","COMMUNITY","9","5","0","1556","COMMUNITY","9","2017-03-26 23:46:39","6716"
"A1GV0UZU0T2ORS","cs_wg_v3_real1","36NEMU28XFEX83H54MZ0O46C3CPWMI","57","0","KEYBOARD","0","5","1","1763","KEYBOARD","0","2017-03-26 23:46:47","6717"
"A1FP3SH704X01V","cs_wg_v3_real1","3LO69W1SU3EH5Z9KP5U32O5Z9J9LG6","47","0","UMBRELLA","10","5","0","1080","umbrella","10","2017-03-26 23:46:47","6718"
"ANVAFB99K5RKP","cs_wg_v3_real1","3XUHV3NRVKZH361AHOWE6ZL32TN5H2","15","0","BOOKSHELF","8","5","0","1235","bookshelf","8","2017-03-26 23:46:47","6719"
"AITLTT4ZKSZIM","cs_wg_v3_real1","3LOZAJ85YDEMQZI249C2BE6L69F2XR","32","0","COMMUNITY","10","5","0","3280","COMMUNITY","10","2017-03-26 23:46:53","6720"
"A1GV0UZU0T2ORS","cs_wg_v3_real1","36NEMU28XFEX83H54MZ0O46C3CPWMI","58","0","BOOKSHELF","0","5","0","2822","BOOKSHELF","0","2017-03-26 23:46:55","6721"
"A1FP3SH704X01V","cs_wg_v3_real1","3LO69W1SU3EH5Z9KP5U32O5Z9J9LG6","48","0","BOOKSHELF","0","5","1","1295","bookshelf","0","2017-03-26 23:46:57","6722"
"ANVAFB99K5RKP","cs_wg_v3_real1","3XUHV3NRVKZH361AHOWE6ZL32TN5H2","16","0","STRUCTURE","10","5","0","2852","structure","10","2017-03-26 23:47:00","6723"
"A1GV0UZU0T2ORS","cs_wg_v3_real1","36NEMU28XFEX83H54MZ0O46C3CPWMI","59","0","KEYBOARD","0","5","1","1635","KEYBOARD","0","2017-03-26 23:47:03","6724"
"A1FP3SH704X01V","cs_wg_v3_real1","3LO69W1SU3EH5Z9KP5U32O5Z9J9LG6","49","0","TRAFFIC","1","5","1","1134","traffic","1","2017-03-26 23:47:04","6725"
"AITLTT4ZKSZIM","cs_wg_v3_real1","3LOZAJ85YDEMQZI249C2BE6L69F2XR","33","0","STOMACH","0","5","1","2618","STOMACH","0","2017-03-26 23:47:05","6726"
"ANVAFB99K5RKP","cs_wg_v3_real1","3XUHV3NRVKZH361AHOWE6ZL32TN5H2","17","0","STRUCTURE","10","5","0","1145","structure","10","2017-03-26 23:47:10","6727"
"A1GV0UZU0T2ORS","cs_wg_v3_real1","36NEMU28XFEX83H54MZ0O46C3CPWMI","60","0","STRUCTURE","10","5","0","3173","STRUCTURE","10","2017-03-26 23:47:12","6728"
"A1FP3SH704X01V","cs_wg_v3_real1","3LO69W1SU3EH5Z9KP5U32O5Z9J9LG6","50","0","FOOTBALL","9","5","0","1389","football","9","2017-03-26 23:47:12","6729"
"AITLTT4ZKSZIM","cs_wg_v3_real1","3LOZAJ85YDEMQZI249C2BE6L69F2XR","34","0","STOMACH","0","5","1","1747","STOMACH","0","2017-03-26 23:47:15","6730"
"ANVAFB99K5RKP","cs_wg_v3_real1","3XUHV3NRVKZH361AHOWE6ZL32TN5H2","18","0","KEYBOARD","1","5","1","2004","keyboard","1","2017-03-26 23:47:19","6731"
"A1FP3SH704X01V","cs_wg_v3_real1","3LO69W1SU3EH5Z9KP5U32O5Z9J9LG6","51","0","LADDER","8","5","1","1562","ladder","8","2017-03-26 23:47:21","6732"
"AITLTT4ZKSZIM","cs_wg_v3_real1","3LOZAJ85YDEMQZI249C2BE6L69F2XR","35","0","DOORWAY","9","5","0","1553","DOORWAY","9","2017-03-26 23:47:26","6733"
"ANVAFB99K5RKP","cs_wg_v3_real1","3XUHV3NRVKZH361AHOWE6ZL32TN5H2","19","0","STOMACH","2","5","1","1037","stomach","2","2017-03-26 23:47:27","6734"
"A1GV0UZU0T2ORS","cs_wg_v3_real1","36NEMU28XFEX83H54MZ0O46C3CPWMI","61","0","BASKET","10","5","0","9112","BASKET","10","2017-03-26 23:47:28","6735"
"A1FP3SH704X01V","cs_wg_v3_real1","3LO69W1SU3EH5Z9KP5U32O5Z9J9LG6","52","0","BASKET","0","5","1","1256","basket","0","2017-03-26 23:47:30","6736"
"ANVAFB99K5RKP","cs_wg_v3_real1","3XUHV3NRVKZH361AHOWE6ZL32TN5H2","20","0","BOOKSHELF","8","5","0","665","bookshelf","8","2017-03-26 23:47:36","6737"
"A1FP3SH704X01V","cs_wg_v3_real1","3LO69W1SU3EH5Z9KP5U32O5Z9J9LG6","53","0","FOOTBALL","9","5","1","1286","football","9","2017-03-26 23:47:38","6738"
"A1GV0UZU0T2ORS","cs_wg_v3_real1","36NEMU28XFEX83H54MZ0O46C3CPWMI","62","0","BASKET","10","5","0","4959","BASKET","10","2017-03-26 23:47:39","6739"
"AITLTT4ZKSZIM","cs_wg_v3_real1","3LOZAJ85YDEMQZI249C2BE6L69F2XR","36","0","HELICOPTER","8","5","0","1534","HELICOPTER","9","2017-03-26 23:47:43","6740"
"ANVAFB99K5RKP","cs_wg_v3_real1","3XUHV3NRVKZH361AHOWE6ZL32TN5H2","21","0","MACHINE","2","5","1","768","machine","2","2017-03-26 23:47:44","6741"
"A1FP3SH704X01V","cs_wg_v3_real1","3LO69W1SU3EH5Z9KP5U32O5Z9J9LG6","54","0","BASKET","0","5","0","1205","basket","0","2017-03-26 23:47:45","6742"
"A1GV0UZU0T2ORS","cs_wg_v3_real1","36NEMU28XFEX83H54MZ0O46C3CPWMI","63","0","BASKET","10","5","0","1286","BASKET","10","2017-03-26 23:47:50","6743"
"ANVAFB99K5RKP","cs_wg_v3_real1","3XUHV3NRVKZH361AHOWE6ZL32TN5H2","22","0","BOOKSHELF","8","5","0","914","bookshelf","8","2017-03-26 23:47:51","6744"
"A1FP3SH704X01V","cs_wg_v3_real1","3LO69W1SU3EH5Z9KP5U32O5Z9J9LG6","55","0","COMMUNITY","10","5","1","1940","community","10","2017-03-26 23:47:54","6745"
"AITLTT4ZKSZIM","cs_wg_v3_real1","3LOZAJ85YDEMQZI249C2BE6L69F2XR","37","0","BOOKSHELF","10","5","0","1675","BOOKSHELF","10","2017-03-26 23:47:55","6746"
"ANVAFB99K5RKP","cs_wg_v3_real1","3XUHV3NRVKZH361AHOWE6ZL32TN5H2","23","0","HELICOPTER","9","5","0","1856","helicopter","9","2017-03-26 23:48:01","6747"
"A1FP3SH704X01V","cs_wg_v3_real1","3LO69W1SU3EH5Z9KP5U32O5Z9J9LG6","56","0","DOORWAY","2","5","1","1367","doorway","2","2017-03-26 23:48:02","6748"
"ANVAFB99K5RKP","cs_wg_v3_real1","3XUHV3NRVKZH361AHOWE6ZL32TN5H2","24","0","BASKET","0","5","1","1113","basket","0","2017-03-26 23:48:09","6749"
"A1FP3SH704X01V","cs_wg_v3_real1","3LO69W1SU3EH5Z9KP5U32O5Z9J9LG6","57","0","HELICOPTER","9","5","1","2498","helicopter","9","2017-03-26 23:48:15","6750"
"AITLTT4ZKSZIM","cs_wg_v3_real1","3LOZAJ85YDEMQZI249C2BE6L69F2XR","38","0","MACHINE","0","5","1","13493","MACHINE","0","2017-03-26 23:48:17","6751"
"ANVAFB99K5RKP","cs_wg_v3_real1","3XUHV3NRVKZH361AHOWE6ZL32TN5H2","25","0","MACHINE","2","5","1","1428","machine","2","2017-03-26 23:48:18","6752"
"A1FP3SH704X01V","cs_wg_v3_real1","3LO69W1SU3EH5Z9KP5U32O5Z9J9LG6","58","0","WEDDING","10","5","0","1318","wedding","10","2017-03-26 23:48:23","6753"
"ANVAFB99K5RKP","cs_wg_v3_real1","3XUHV3NRVKZH361AHOWE6ZL32TN5H2","26","0","KEYBOARD","1","5","1","1278","keyboard","1","2017-03-26 23:48:26","6754"
"AITLTT4ZKSZIM","cs_wg_v3_real1","3LOZAJ85YDEMQZI249C2BE6L69F2XR","39","0","KEYBOARD","9","5","0","1787","KEYBOARD","9","2017-03-26 23:48:30","6755"
"A1FP3SH704X01V","cs_wg_v3_real1","3LO69W1SU3EH5Z9KP5U32O5Z9J9LG6","59","0","TRAFFIC","1","5","1","1299","traffic","1","2017-03-26 23:48:31","6756"
"A1GV0UZU0T2ORS","cs_wg_v3_real1","36NEMU28XFEX83H54MZ0O46C3CPWMI","64","0","COMMUNITY","9","5","0","15767","COMMUNITY

community","9","2017-03-26 23:48:33","6757"
"ANVAFB99K5RKP","cs_wg_v3_real1","3XUHV3NRVKZH361AHOWE6ZL32TN5H2","27","0","WEDDING","10","5","0","1450","wedding","10","2017-03-26 23:48:35","6758"
"A1FP3SH704X01V","cs_wg_v3_real1","3LO69W1SU3EH5Z9KP5U32O5Z9J9LG6","60","0","LADDER","8","5","0","2172","ladder","8","2017-03-26 23:48:40","6759"
"ANVAFB99K5RKP","cs_wg_v3_real1","3XUHV3NRVKZH361AHOWE6ZL32TN5H2","28","0","HELICOPTER","9","5","0","943","helicopter","9","2017-03-26 23:48:43","6760"
"AITLTT4ZKSZIM","cs_wg_v3_real1","3LOZAJ85YDEMQZI249C2BE6L69F2XR","40","0","WEDDING","10","5","0","3867","WEDDING","10","2017-03-26 23:48:45","6761"
"A1FP3SH704X01V","cs_wg_v3_real1","3LO69W1SU3EH5Z9KP5U32O5Z9J9LG6","61","0","BASKET","0","5","1","1384","basket","0","2017-03-26 23:48:48","6762"
"ANVAFB99K5RKP","cs_wg_v3_real1","3XUHV3NRVKZH361AHOWE6ZL32TN5H2","29","0","KEYBOARD","1","5","1","1001","keyboard","1","2017-03-26 23:48:51","6763"
"A1FP3SH704X01V","cs_wg_v3_real1","3LO69W1SU3EH5Z9KP5U32O5Z9J9LG6","62","0","FOOTBALL","9","5","0","1154","football","9","2017-03-26 23:48:56","6764"
"AITLTT4ZKSZIM","cs_wg_v3_real1","3LOZAJ85YDEMQZI249C2BE6L69F2XR","41","0","STRUCTURE","0","5","0","1779","STRUCTURE","0","2017-03-26 23:48:57","6765"
"ANVAFB99K5RKP","cs_wg_v3_real1","3XUHV3NRVKZH361AHOWE6ZL32TN5H2","30","0","LADDER","0","5","1","1209","ladder","0","2017-03-26 23:48:59","6766"
"A1FP3SH704X01V","cs_wg_v3_real1","3LO69W1SU3EH5Z9KP5U32O5Z9J9LG6","63","0","DOORWAY","2","5","1","1194","doorway","2","2017-03-26 23:49:04","6767"
"ANVAFB99K5RKP","cs_wg_v3_real1","3XUHV3NRVKZH361AHOWE6ZL32TN5H2","31","0","FOOTBALL","0","5","1","1070","football","0","2017-03-26 23:49:07","6768"
"AITLTT4ZKSZIM","cs_wg_v3_real1","3LOZAJ85YDEMQZI249C2BE6L69F2XR","42","0","WEDDING","10","5","0","2282","WEDDING","10","2017-03-26 23:49:09","6769"
"A1FP3SH704X01V","cs_wg_v3_real1","3LO69W1SU3EH5Z9KP5U32O5Z9J9LG6","64","0","DOORWAY","2","5","1","1071","doorway","2","2017-03-26 23:49:11","6770"
"ANVAFB99K5RKP","cs_wg_v3_real1","3XUHV3NRVKZH361AHOWE6ZL32TN5H2","32","0","UMBRELLA","9","5","1","656","umbrella","9","2017-03-26 23:49:16","6771"
"A1FP3SH704X01V","cs_wg_v3_real1","3LO69W1SU3EH5Z9KP5U32O5Z9J9LG6","65","0","DOORWAY","2","5","1","1038","doorway","2","2017-03-26 23:49:18","6772"
"AITLTT4ZKSZIM","cs_wg_v3_real1","3LOZAJ85YDEMQZI249C2BE6L69F2XR","43","0","MACHINE","0","5","1","3733","MACHINE","0","2017-03-26 23:49:22","6773"
"ANVAFB99K5RKP","cs_wg_v3_real1","3XUHV3NRVKZH361AHOWE6ZL32TN5H2","33","0","BASKET","0","5","1","1137","basket","0","2017-03-26 23:49:23","6774"
"A1FP3SH704X01V","cs_wg_v3_real1","3LO69W1SU3EH5Z9KP5U32O5Z9J9LG6","66","0","MACHINE","8","5","0","1280","machine","8","2017-03-26 23:49:26","6775"
"ANVAFB99K5RKP","cs_wg_v3_real1","3XUHV3NRVKZH361AHOWE6ZL32TN5H2","34","0","TRAFFIC","10","5","1","960","traffic","10","2017-03-26 23:49:33","6776"
"AITLTT4ZKSZIM","cs_wg_v3_real1","3LOZAJ85YDEMQZI249C2BE6L69F2XR","44","0","COMMUNITY","10","5","0","1590","COMMUNITY","10","2017-03-26 23:49:33","6777"
"A1FP3SH704X01V","cs_wg_v3_real1","3LO69W1SU3EH5Z9KP5U32O5Z9J9LG6","67","0","STOMACH","0","5","1","1078","stomach","0","2017-03-26 23:49:34","6778"
"A1FP3SH704X01V","cs_wg_v3_real1","3LO69W1SU3EH5Z9KP5U32O5Z9J9LG6","68","0","UMBRELLA","10","5","0","1285","umbrella","10","2017-03-26 23:49:42","6779"
"ANVAFB99K5RKP","cs_wg_v3_real1","3XUHV3NRVKZH361AHOWE6ZL32TN5H2","35","0","STRUCTURE","10","5","0","2649","structure","10","2017-03-26 23:49:45","6780"
"AITLTT4ZKSZIM","cs_wg_v3_real1","3LOZAJ85YDEMQZI249C2BE6L69F2XR","45","0","STRUCTURE","0","5","1","2077","STRUCTURE","0","2017-03-26 23:49:46","6781"
"A1FP3SH704X01V","cs_wg_v3_real1","3LO69W1SU3EH5Z9KP5U32O5Z9J9LG6","69","0","DOORWAY","2","5","0","1516","doorway","2","2017-03-26 23:49:51","6782"
"ANVAFB99K5RKP","cs_wg_v3_real1","3XUHV3NRVKZH361AHOWE6ZL32TN5H2","36","0","DOORWAY","1","5","1","1477","doorway","1","2017-03-26 23:49:53","6783"
"AITLTT4ZKSZIM","cs_wg_v3_real1","3LOZAJ85YDEMQZI249C2BE6L69F2XR","46","0","COMMUNITY","10","5","0","1640","COMMUNITY","10","2017-03-26 23:49:58","6784"
"A1FP3SH704X01V","cs_wg_v3_real1","3LO69W1SU3EH5Z9KP5U32O5Z9J9LG6","70","0","KEYBOARD","2","5","1","1000","keyboard","2","2017-03-26 23:49:58","6785"
"ANVAFB99K5RKP","cs_wg_v3_real1","3XUHV3NRVKZH361AHOWE6ZL32TN5H2","37","0","WEDDING","10","5","0","950","wedding","10","2017-03-26 23:50:02","6786"
"A1FP3SH704X01V","cs_wg_v3_real1","3LO69W1SU3EH5Z9KP5U32O5Z9J9LG6","71","0","WEDDING","10","5","0","1043","wedding","10","2017-03-26 23:50:06","6787"
"AITLTT4ZKSZIM","cs_wg_v3_real1","3LOZAJ85YDEMQZI249C2BE6L69F2XR","47","0","BOOKSHELF","10","5","0","1927","BOOKSHELF","10","2017-03-26 23:50:10","6788"
"ANVAFB99K5RKP","cs_wg_v3_real1","3XUHV3NRVKZH361AHOWE6ZL32TN5H2","38","0","WEDDING","10","5","0","766","wedding","10","2017-03-26 23:50:11","6789"
"A1FP3SH704X01V","cs_wg_v3_real1","3LO69W1SU3EH5Z9KP5U32O5Z9J9LG6","72","0","LADDER","8","5","0","1297","ladder","8","2017-03-26 23:50:15","6790"
"ANVAFB99K5RKP","cs_wg_v3_real1","3XUHV3NRVKZH361AHOWE6ZL32TN5H2","39","0","LADDER","0","5","1","2191","ladder","0","2017-03-26 23:50:19","6791"
"AITLTT4ZKSZIM","cs_wg_v3_real1","3LOZAJ85YDEMQZI249C2BE6L69F2XR","48","0","FOOTBALL","8","5","0","1456","FOOTBALL","8","2017-03-26 23:50:20","6792"
"A1FP3SH704X01V","cs_wg_v3_real1","3LO69W1SU3EH5Z9KP5U32O5Z9J9LG6","73","0","BOOKSHELF","0","5","0","1145","bookshelf","0","2017-03-26 23:50:25","6793"
"ANVAFB99K5RKP","cs_wg_v3_real1","3XUHV3NRVKZH361AHOWE6ZL32TN5H2","40","0","HELICOPTER","9","5","0","803","helicopter","9","2017-03-26 23:50:27","6794"
"AITLTT4ZKSZIM","cs_wg_v3_real1","3LOZAJ85YDEMQZI249C2BE6L69F2XR","49","0","LADDER","1","5","1","5030","LADDER","1","2017-03-26 23:50:34","6795"
"A1FP3SH704X01V","cs_wg_v3_real1","3LO69W1SU3EH5Z9KP5U32O5Z9J9LG6","74","0","TRAFFIC","1","5","1","1498","traffic","2","2017-03-26 23:50:35","6796"
"ANVAFB99K5RKP","cs_wg_v3_real1","3XUHV3NRVKZH361AHOWE6ZL32TN5H2","41","0","HELICOPTER","9","5","0","749","helicopter","9","2017-03-26 23:50:36","6797"
"A1GV0UZU0T2ORS","cs_wg_v3_real1","36NEMU28XFEX83H54MZ0O46C3CPWMI","65","0","HELICOPTER","1","5","1","117307","HELICOPTER","1","2017-03-26 23:50:37","6798"
"A1FP3SH704X01V","cs_wg_v3_real1","3LO69W1SU3EH5Z9KP5U32O5Z9J9LG6","75","0","WEDDING","10","5","0","1013","wedding","10","2017-03-26 23:50:43","6799"
"A1GV0UZU0T2ORS","cs_wg_v3_real1","36NEMU28XFEX83H54MZ0O46C3CPWMI","66","0","FOOTBALL","8","5","0","1362","FOOTBALL","8","2017-03-26 23:50:43","6800"
"ANVAFB99K5RKP","cs_wg_v3_real1","3XUHV3NRVKZH361AHOWE6ZL32TN5H2","42","0","LADDER","0","5","1","1503","ladder","0","2017-03-26 23:50:43","6801"
"A1GV0UZU0T2ORS","cs_wg_v3_real1","36NEMU28XFEX83H54MZ0O46C3CPWMI","67","0","HELICOPTER","1","5","1","1980","HELICOPTER","1","2017-03-26 23:50:50","6802"
"A1FP3SH704X01V","cs_wg_v3_real1","3LO69W1SU3EH5Z9KP5U32O5Z9J9LG6","76","0","COMMUNITY","10","5","0","1784","community","10","2017-03-26 23:50:52","6803"
"ANVAFB99K5RKP","cs_wg_v3_real1","3XUHV3NRVKZH361AHOWE6ZL32TN5H2","43","0","DOORWAY","1","5","1","1391","doorway","1","2017-03-26 23:50:52","6804"
"A1GV0UZU0T2ORS","cs_wg_v3_real1","36NEMU28XFEX83H54MZ0O46C3CPWMI","68","0","HELICOPTER","1","5","1","2179","HELICOPTER","1
1","2017-03-26 23:50:59","6805"
"A1FP3SH704X01V","cs_wg_v3_real1","3LO69W1SU3EH5Z9KP5U32O5Z9J9LG6","77","0","COMMUNITY","10","5","0","1094","community","10","2017-03-26 23:51:00","6806"
"ANVAFB99K5RKP","cs_wg_v3_real1","3XUHV3NRVKZH361AHOWE6ZL32TN5H2","44","0","STOMACH","2","5","1","1862","stomach","2","2017-03-26 23:51:00","6807"
"A1GV0UZU0T2ORS","cs_wg_v3_real1","36NEMU28XFEX83H54MZ0O46C3CPWMI","69","0","BASKET","10","5","0","1316","BASKET","10","2017-03-26 23:51:08","6808"
"A1FP3SH704X01V","cs_wg_v3_real1","3LO69W1SU3EH5Z9KP5U32O5Z9J9LG6","78","0","STOMACH","0","5","1","1235","stomach","0","2017-03-26 23:51:08","6809"
"ANVAFB99K5RKP","cs_wg_v3_real1","3XUHV3NRVKZH361AHOWE6ZL32TN5H2","45","0","TRAFFIC","10","5","0","1263","traffic","10","2017-03-26 23:51:09","6810"
"A1GV0UZU0T2ORS","cs_wg_v3_real1","36NEMU28XFEX83H54MZ0O46C3CPWMI","70","0","HELICOPTER","1","5","1","1094","HELICOPTER","1","2017-03-26 23:51:15","6811"
"A1FP3SH704X01V","cs_wg_v3_real1","3LO69W1SU3EH5Z9KP5U32O5Z9J9LG6","79","0","COMMUNITY","10","5","0","1143","community","10","2017-03-26 23:51:17","6812"
"ANVAFB99K5RKP","cs_wg_v3_real1","3XUHV3NRVKZH361AHOWE6ZL32TN5H2","46","0","UMBRELLA","9","5","0","690","umbrella","9","2017-03-26 23:51:18","6813"
"A1GV0UZU0T2ORS","cs_wg_v3_real1","36NEMU28XFEX83H54MZ0O46C3CPWMI","71","0","UMBRELLA","2","5","1","1549","UMBRELLA","2","2017-03-26 23:51:22","6814"
"A1FP3SH704X01V","cs_wg_v3_real1","3LO69W1SU3EH5Z9KP5U32O5Z9J9LG6","80","0","MACHINE","8","5","0","1045","machine","8","2017-03-26 23:51:24","6815"
"ANVAFB99K5RKP","cs_wg_v3_real1","3XUHV3NRVKZH361AHOWE6ZL32TN5H2","47","0","WEDDING","10","5","0","1069","wedding","10","2017-03-26 23:51:26","6816"
"A1GV0UZU0T2ORS","cs_wg_v3_real1","36NEMU28XFEX83H54MZ0O46C3CPWMI","72","0","TRAFFIC","0","5","0","1301","TRAFFIC","0","2017-03-26 23:51:29","6817"
"A1FP3SH704X01V","cs_wg_v3_real1","3LO69W1SU3EH5Z9KP5U32O5Z9J9LG6","81","0","DOORWAY","2","5","1","1099","doorway","2","2017-03-26 23:51:32","6818"
"ANVAFB99K5RKP","cs_wg_v3_real1","3XUHV3NRVKZH361AHOWE6ZL32TN5H2","48","0","TRAFFIC","10","5","0","911","traffic","10","2017-03-26 23:51:35","6819"
"A1GV0UZU0T2ORS","cs_wg_v3_real1","36NEMU28XFEX83H54MZ0O46C3CPWMI","73","0","FOOTBALL","8","5","0","1037","FOOTBALL","8","2017-03-26 23:51:36","6820"
"A1FP3SH704X01V","cs_wg_v3_real1","3LO69W1SU3EH5Z9KP5U32O5Z9J9LG6","82","0","MACHINE","8","5","0","964","machine","8","2017-03-26 23:51:40","6821"
"ANVAFB99K5RKP","cs_wg_v3_real1","3XUHV3NRVKZH361AHOWE6ZL32TN5H2","49","0","MACHINE","2","5","1","1775","machine","2","2017-03-26 23:51:43","6822"
"A1GV0UZU0T2ORS","cs_wg_v3_real1","36NEMU28XFEX83H54MZ0O46C3CPWMI","74","0","FOOTBALL","8","5","0","1430","FOOTBALL","8","2017-03-26 23:51:43","6823"
"A1FP3SH704X01V","cs_wg_v3_real1","3LO69W1SU3EH5Z9KP5U32O5Z9J9LG6","83","0","FOOTBALL","9","5","0","923","football","9","2017-03-26 23:51:48","6824"
"A1GV0UZU0T2ORS","cs_wg_v3_real1","36NEMU28XFEX83H54MZ0O46C3CPWMI","75","0","STRUCTURE","10","5","0","1222","STRUCTURE","10","2017-03-26 23:51:51","6825"
"ANVAFB99K5RKP","cs_wg_v3_real1","3XUHV3NRVKZH361AHOWE6ZL32TN5H2","50","0","MACHINE","2","5","1","869","machine","2","2017-03-26 23:51:51","6826"
"A1FP3SH704X01V","cs_wg_v3_real1","3LO69W1SU3EH5Z9KP5U32O5Z9J9LG6","84","0","KEYBOARD","2","5","1","1284","keyboard","2","2017-03-26 23:51:56","6827"
"ANVAFB99K5RKP","cs_wg_v3_real1","3XUHV3NRVKZH361AHOWE6ZL32TN5H2","51","0","TRAFFIC","10","5","0","646","traffic","10","2017-03-26 23:51:59","6828"
"A1GV0UZU0T2ORS","cs_wg_v3_real1","36NEMU28XFEX83H54MZ0O46C3CPWMI","76","0","COMMUNITY","9","5","0","2156","COMMUNITY","9","2017-03-26 23:52:00","6829"
"A1FP3SH704X01V","cs_wg_v3_real1","3LO69W1SU3EH5Z9KP5U32O5Z9J9LG6","85","0","BASKET","0","5","1","1540","basket","0","2017-03-26 23:52:05","6830"
"A1GV0UZU0T2ORS","cs_wg_v3_real1","36NEMU28XFEX83H54MZ0O46C3CPWMI","77","0","DOORWAY","1","5","1","2213","DOORWAY","1","2017-03-26 23:52:07","6831"
"ANVAFB99K5RKP","cs_wg_v3_real1","3XUHV3NRVKZH361AHOWE6ZL32TN5H2","52","0","BOOKSHELF","8","5","0","1586","bookshelf","8","2017-03-26 23:52:08","6832"
"A1FP3SH704X01V","cs_wg_v3_real1","3LO69W1SU3EH5Z9KP5U32O5Z9J9LG6","86","0","LADDER","8","5","1","1811","ladder","8","2017-03-26 23:52:13","6833"
"A1GV0UZU0T2ORS","cs_wg_v3_real1","36NEMU28XFEX83H54MZ0O46C3CPWMI","78","0","HELICOPTER","1","5","1","1189","HELICOPTER","1","2017-03-26 23:52:13","6834"
"ANVAFB99K5RKP","cs_wg_v3_real1","3XUHV3NRVKZH361AHOWE6ZL32TN5H2","53","0","COMMUNITY","8","5","0","798","community","8","2017-03-26 23:52:16","6835"
"A1GV0UZU0T2ORS","cs_wg_v3_real1","36NEMU28XFEX83H54MZ0O46C3CPWMI","79","0","TRAFFIC","0","5","1","1836","TRAFFIC","0","2017-03-26 23:52:21","6836"
"A1FP3SH704X01V","cs_wg_v3_real1","3LO69W1SU3EH5Z9KP5U32O5Z9J9LG6","87","0","STOMACH","0","5","1","993","stomach","0","2017-03-26 23:52:22","6837"
"ANVAFB99K5RKP","cs_wg_v3_real1","3XUHV3NRVKZH361AHOWE6ZL32TN5H2","54","0","HELICOPTER","9","5","0","599","helicopter","9","2017-03-26 23:52:24","6838"
"A1FP3SH704X01V","cs_wg_v3_real1","3LO69W1SU3EH5Z9KP5U32O5Z9J9LG6","88","0","TRAFFIC","1","5","1","1447","traffic","1","2017-03-26 23:52:30","6839"
"ANVAFB99K5RKP","cs_wg_v3_real1","3XUHV3NRVKZH361AHOWE6ZL32TN5H2","55","0","STOMACH","2","5","1","1069","stomach","2","2017-03-26 23:52:32","6840"
"A1FP3SH704X01V","cs_wg_v3_real1","3LO69W1SU3EH5Z9KP5U32O5Z9J9LG6","89","0","STOMACH","0","5","1","1291","stomach","0","2017-03-26 23:52:39","6841"
"ANVAFB99K5RKP","cs_wg_v3_real1","3XUHV3NRVKZH361AHOWE6ZL32TN5H2","56","0","KEYBOARD","1","5","1","1232","keyboard","1","2017-03-26 23:52:40","6842"
"A1FP3SH704X01V","cs_wg_v3_real1","3LO69W1SU3EH5Z9KP5U32O5Z9J9LG6","90","0","FOOTBALL","9","5","0","1349","football","9","2017-03-26 23:52:47","6843"
"ANVAFB99K5RKP","cs_wg_v3_real1","3XUHV3NRVKZH361AHOWE6ZL32TN5H2","57","0","FOOTBALL","0","5","1","1277","football","0","2017-03-26 23:52:48","6844"
"A1GV0UZU0T2ORS","cs_wg_v3_real1","36NEMU28XFEX83H54MZ0O46C3CPWMI","80","0","FOOTBALL","8","5","0","22766","FOOTBALL","8","2017-03-26 23:52:50","6845"
"A1FP3SH704X01V","cs_wg_v3_real1","3LO69W1SU3EH5Z9KP5U32O5Z9J9LG6","91","0","STOMACH","0","5","1","1041","stomach","0","2017-03-26 23:52:55","6846"
"ANVAFB99K5RKP","cs_wg_v3_real1","3XUHV3NRVKZH361AHOWE6ZL32TN5H2","58","0","STRUCTURE","10","5","0","1420","structure","10","2017-03-26 23:52:57","6847"
"A1FP3SH704X01V","cs_wg_v3_real1","3LO69W1SU3EH5Z9KP5U32O5Z9J9LG6","92","0","MACHINE","8","5","0","733","machine","8","2017-03-26 23:53:03","6848"
"ANVAFB99K5RKP","cs_wg_v3_real1","3XUHV3NRVKZH361AHOWE6ZL32TN5H2","59","0","TRAFFIC","10","5","0","1047","traffic","10","2017-03-26 23:53:06","6849"
"A1GV0UZU0T2ORS","cs_wg_v3_real1","36NEMU28XFEX83H54MZ0O46C3CPWMI","81","0","BOOKSHELF","0","5","1","10437","bookshelf","0","2017-03-26 23:53:08","6850"
"A1FP3SH704X01V","cs_wg_v3_real1","3LO69W1SU3EH5Z9KP5U32O5Z9J9LG6","93","0","COMMUNITY","10","5","0","717","community","10","2017-03-26 23:53:11","6851"
"ANVAFB99K5RKP","cs_wg_v3_real1","3XUHV3NRVKZH361AHOWE6ZL32TN5H2","60","0","BASKET","0","5","1","1030","basket","0","2017-03-26 23:53:13","6852"
"A1GV0UZU0T2ORS","cs_wg_v3_real1","36NEMU28XFEX83H54MZ0O46C3CPWMI","82","0","LADDER","9","5","1","1323","LADDER","9","2017-03-26 23:53:16","6853"
"A1FP3SH704X01V","cs_wg_v3_real1","3LO69W1SU3EH5Z9KP5U32O5Z9J9LG6","94","0","LADDER","8","5","0","1045","ladder","8","2017-03-26 23:53:19","6854"
"ANVAFB99K5RKP","cs_wg_v3_real1","3XUHV3NRVKZH361AHOWE6ZL32TN5H2","61","0","COMMUNITY","8","5","0","646","community","8","2017-03-26 23:53:21","6855"
"A1GV0UZU0T2ORS","cs_wg_v3_real1","36NEMU28XFEX83H54MZ0O46C3CPWMI","83","0","COMMUNITY","9","5","0","988","COMMUNITY","9","2017-03-26 23:53:23","6856"
"A1FP3SH704X01V","cs_wg_v3_real1","3LO69W1SU3EH5Z9KP5U32O5Z9J9LG6","95","0","WEDDING","10","5","0","931","wedding","10","2017-03-26 23:53:27","6857"
"A1GV0UZU0T2ORS","cs_wg_v3_real1","36NEMU28XFEX83H54MZ0O46C3CPWMI","84","0","STRUCTURE","10","5","0","1228","STRUCTURE","10","2017-03-26 23:53:30","6858"
"ANVAFB99K5RKP","cs_wg_v3_real1","3XUHV3NRVKZH361AHOWE6ZL32TN5H2","62","0","TRAFFIC","10","5","0","726","traffic","10","2017-03-26 23:53:30","6859"
"AITLTT4ZKSZIM","cs_wg_v3_real1","3LOZAJ85YDEMQZI249C2BE6L69F2XR","50","0","MACHINE","0","5","1","161162","MACHINE","0","2017-03-26 23:53:30","6860"
"A1FP3SH704X01V","cs_wg_v3_real1","3LO69W1SU3EH5Z9KP5U32O5Z9J9LG6","96","0","MACHINE","8","5","0","661","machine","8","2017-03-26 23:53:34","6861"
"ANVAFB99K5RKP","cs_wg_v3_real1","3XUHV3NRVKZH361AHOWE6ZL32TN5H2","63","0","LADDER","0","5","1","1292","ladder","0","2017-03-26 23:53:37","6862"
"A1GV0UZU0T2ORS","cs_wg_v3_real1","36NEMU28XFEX83H54MZ0O46C3CPWMI","85","0","WEDDING","8","5","0","2372","WEDDING","8","2017-03-26 23:53:37","6863"
"A1FP3SH704X01V","cs_wg_v3_real1","3LO69W1SU3EH5Z9KP5U32O5Z9J9LG6","97","0","BOOKSHELF","0","5","0","1119","bookshelf","0","2017-03-26 23:53:43","6864"
"AITLTT4ZKSZIM","cs_wg_v3_real1","3LOZAJ85YDEMQZI249C2BE6L69F2XR","51","0","TRAFFIC","2","5","1","4203","TRAFFIC","2","2017-03-26 23:53:45","6865"
"ANVAFB99K5RKP","cs_wg_v3_real1","3XUHV3NRVKZH361AHOWE6ZL32TN5H2","64","0","STOMACH","2","5","1","949","stomach","2","2017-03-26 23:53:45","6866"
"A1GV0UZU0T2ORS","cs_wg_v3_real1","36NEMU28XFEX83H54MZ0O46C3CPWMI","86","0","DOORWAY","1","5","1","2891","DOORWAY","1","2017-03-26 23:53:45","6867"
"A1FP3SH704X01V","cs_wg_v3_real1","3LO69W1SU3EH5Z9KP5U32O5Z9J9LG6","98","0","COMMUNITY","10","5","0","733","community","10","2017-03-26 23:53:51","6868"
"A1GV0UZU0T2ORS","cs_wg_v3_real1","36NEMU28XFEX83H54MZ0O46C3CPWMI","87","0","UMBRELLA","2","5","1","2764","UMBRELLA","2","2017-03-26 23:53:53","6869"
"ANVAFB99K5RKP","cs_wg_v3_real1","3XUHV3NRVKZH361AHOWE6ZL32TN5H2","65","0","BASKET","0","5","1","944","basket","0","2017-03-26 23:53:53","6870"
"AITLTT4ZKSZIM","cs_wg_v3_real1","3LOZAJ85YDEMQZI249C2BE6L69F2XR","52","0","WEDDING","10","5","0","1759","WEDDING","10","2017-03-26 23:53:55","6871"
"A1FP3SH704X01V","cs_wg_v3_real1","3LO69W1SU3EH5Z9KP5U32O5Z9J9LG6","99","0","MACHINE","8","5","0","635","machine","8","2017-03-26 23:53:59","6872"
"A1GV0UZU0T2ORS","cs_wg_v3_real1","36NEMU28XFEX83H54MZ0O46C3CPWMI","88","0","STOMACH","10","5","0","1365","STOMACH","10","2017-03-26 23:54:00","6873"
"ANVAFB99K5RKP","cs_wg_v3_real1","3XUHV3NRVKZH361AHOWE6ZL32TN5H2","66","0","STRUCTURE","10","5","0","669","structure","10","2017-03-26 23:54:02","6874"
"A1FP3SH704X01V","cs_wg_v3_real1","3LO69W1SU3EH5Z9KP5U32O5Z9J9LG6","100","0","MACHINE","8","5","0","654","machine","8","2017-03-26 23:54:06","6875"
"AITLTT4ZKSZIM","cs_wg_v3_real1","3LOZAJ85YDEMQZI249C2BE6L69F2XR","53","0","UMBRELLA","1","5","1","2403","UMBRELLA","1","2017-03-26 23:54:08","6876"
"A1GV0UZU0T2ORS","cs_wg_v3_real1","36NEMU28XFEX83H54MZ0O46C3CPWMI","89","0","TRAFFIC","0","5","1","3083","TRAFFIC","0","2017-03-26 23:54:09","6877"
"ANVAFB99K5RKP","cs_wg_v3_real1","3XUHV3NRVKZH361AHOWE6ZL32TN5H2","67","0","STRUCTURE","10","5","0","949","structure","10","2017-03-26 23:54:10","6878"
"A1FP3SH704X01V","cs_wg_v3_real1","3LO69W1SU3EH5Z9KP5U32O5Z9J9LG6","101","0","HELICOPTER","9","5","0","721","helicopter","9","2017-03-26 23:54:15","6879"
"ANVAFB99K5RKP","cs_wg_v3_real1","3XUHV3NRVKZH361AHOWE6ZL32TN5H2","68","0","BASKET","0","5","1","903","basket","0","2017-03-26 23:54:17","6880"
"A1GV0UZU0T2ORS","cs_wg_v3_real1","36NEMU28XFEX83H54MZ0O46C3CPWMI","90","0","WEDDING","8","5","0","2532","WEDDING","8","2017-03-26 23:54:18","6881"
"AITLTT4ZKSZIM","cs_wg_v3_real1","3LOZAJ85YDEMQZI249C2BE6L69F2XR","54","0","BOOKSHELF","10","5","0","1748","BOOKSHELF","10","2017-03-26 23:54:20","6882"
"A1FP3SH704X01V","cs_wg_v3_real1","3LO69W1SU3EH5Z9KP5U32O5Z9J9LG6","102","0","TRAFFIC","1","5","1","1162","traffic","1","2017-03-26 23:54:23","6883"
"ANVAFB99K5RKP","cs_wg_v3_real1","3XUHV3NRVKZH361AHOWE6ZL32TN5H2","69","0","HELICOPTER","9","5","0","672","helicopter","9","2017-03-26 23:54:25","6884"
"A1FP3SH704X01V","cs_wg_v3_real1","3LO69W1SU3EH5Z9KP5U32O5Z9J9LG6","103","0","COMMUNITY","10","5","0","644","community","10","2017-03-26 23:54:30","6885"
"AITLTT4ZKSZIM","cs_wg_v3_real1","3LOZAJ85YDEMQZI249C2BE6L69F2XR","55","0","KEYBOARD","9","5","0","1430","KEYBOARD","9","2017-03-26 23:54:31","6886"
"A1GV0UZU0T2ORS","cs_wg_v3_real1","36NEMU28XFEX83H54MZ0O46C3CPWMI","91","0","LADDER","9","5","0","7125","LADDER","9","2017-03-26 23:54:32","6887"
"ANVAFB99K5RKP","cs_wg_v3_real1","3XUHV3NRVKZH361AHOWE6ZL32TN5H2","70","0","UMBRELLA","9","5","0","917","umbrella","9","2017-03-26 23:54:33","6888"
"A1FP3SH704X01V","cs_wg_v3_real1","3LO69W1SU3EH5Z9KP5U32O5Z9J9LG6","104","0","BASKET","0","5","1","1201","basket","0","2017-03-26 23:54:38","6889"
"A1GV0UZU0T2ORS","cs_wg_v3_real1","36NEMU28XFEX83H54MZ0O46C3CPWMI","92","0","MACHINE","2","5","0","2596","MACHINE","2","2017-03-26 23:54:40","6890"
"AITLTT4ZKSZIM","cs_wg_v3_real1","3LOZAJ85YDEMQZI249C2BE6L69F2XR","56","0","DOORWAY","9","5","0","1935","DOORWAY","9","2017-03-26 23:54:41","6891"
"ANVAFB99K5RKP","cs_wg_v3_real1","3XUHV3NRVKZH361AHOWE6ZL32TN5H2","71","0","UMBRELLA","9","5","0","1031","umbrella","9","2017-03-26 23:54:42","6892"
"A1FP3SH704X01V","cs_wg_v3_real1","3LO69W1SU3EH5Z9KP5U32O5Z9J9LG6","105","0","TRAFFIC","1","5","1","1140","traffic","1","2017-03-26 23:54:46","6893"
"ANVAFB99K5RKP","cs_wg_v3_real1","3XUHV3NRVKZH361AHOWE6ZL32TN5H2","72","0","UMBRELLA","9","5","0","670","umbrella","9","2017-03-26 23:54:50","6894"
"AITLTT4ZKSZIM","cs_wg_v3_real1","3LOZAJ85YDEMQZI249C2BE6L69F2XR","57","0","BOOKSHELF","10","5","0","1379","BOOKSHELF","10","2017-03-26 23:54:53","6895"
"A1FP3SH704X01V","cs_wg_v3_real1","3LO69W1SU3EH5Z9KP5U32O5Z9J9LG6","106","0","HELICOPTER","9","5","0","1292","helicopter","9","2017-03-26 23:54:54","6896"
"A1GV0UZU0T2ORS","cs_wg_v3_real1","36NEMU28XFEX83H54MZ0O46C3CPWMI","93","0","UMBRELLA","2","5","1","10040","UMBRELLA","2","2017-03-26 23:54:59","6897"
"ANVAFB99K5RKP","cs_wg_v3_real1","3XUHV3NRVKZH361AHOWE6ZL32TN5H2","73","0","FOOTBALL","0","5","1","1397","football","0","2017-03-26 23:55:00","6898"
"A1FP3SH704X01V","cs_wg_v3_real1","3LO69W1SU3EH5Z9KP5U32O5Z9J9LG6","107","0","HELICOPTER","9","5","0","999","helicopter","9","2017-03-26 23:55:02","6899"
"AITLTT4ZKSZIM","cs_wg_v3_real1","3LOZAJ85YDEMQZI249C2BE6L69F2XR","58","0","UMBRELLA","1","5","1","2962","UMBRELLA","1","2017-03-26 23:55:05","6900"
"ANVAFB99K5RKP","cs_wg_v3_real1","3XUHV3NRVKZH361AHOWE6ZL32TN5H2","74","0","KEYBOARD","1","5","1","1051","keyboard","1","2017-03-26 23:55:07","6901"
"A1GV0UZU0T2ORS","cs_wg_v3_real1","36NEMU28XFEX83H54MZ0O46C3CPWMI","94","0","BOOKSHELF","0","5","1","3862","BOOKSHELF","0","2017-03-26 23:55:09","6902"
"A1FP3SH704X01V","cs_wg_v3_real1","3LO69W1SU3EH5Z9KP5U32O5Z9J9LG6","108","0","BOOKSHELF","0","5","1","1267","bookshelf","0","2017-03-26 23:55:12","6903"
"ANVAFB99K5RKP","cs_wg_v3_real1","3XUHV3NRVKZH361AHOWE6ZL32TN5H2","75","0","COMMUNITY","8","5","0","805","community","8","2017-03-26 23:55:16","6904"
"A1GV0UZU0T2ORS","cs_wg_v3_real1","36NEMU28XFEX83H54MZ0O46C3CPWMI","95","0","LADDER","9","5","0","1462","LADDER","9","2017-03-26 23:55:16","6905"
"AITLTT4ZKSZIM","cs_wg_v3_real1","3LOZAJ85YDEMQZI249C2BE6L69F2XR","59","0","DOORWAY","9","5","0","1300","DOORWAY","9","2017-03-26 23:55:16","6906"
"A1FP3SH704X01V","cs_wg_v3_real1","3LO69W1SU3EH5Z9KP5U32O5Z9J9LG6","109","0","WEDDING","10","5","0","3301","wedding","10","2017-03-26 23:55:22","6907"
"ANVAFB99K5RKP","cs_wg_v3_real1","3XUHV3NRVKZH361AHOWE6ZL32TN5H2","76","0","DOORWAY","1","5","1","1270","doorway","1","2017-03-26 23:55:24","6908"
"A1GV0UZU0T2ORS","cs_wg_v3_real1","36NEMU28XFEX83H54MZ0O46C3CPWMI","96","0","HELICOPTER","1","5","1","4061","HELICOPTER","1","2017-03-26 23:55:26","6909"
"AITLTT4ZKSZIM","cs_wg_v3_real1","3LOZAJ85YDEMQZI249C2BE6L69F2XR","60","0","BASKET","2","5","0","3142","BASKET","2","2017-03-26 23:55:27","6910"
"A1FP3SH704X01V","cs_wg_v3_real1","3LO69W1SU3EH5Z9KP5U32O5Z9J9LG6","110","0","BOOKSHELF","0","5","1","1074","bookshelf","0","2017-03-26 23:55:31","6911"
"ANVAFB99K5RKP","cs_wg_v3_real1","3XUHV3NRVKZH361AHOWE6ZL32TN5H2","77","0","TRAFFIC","10","5","0","869","traffic","10","2017-03-26 23:55:32","6912"
"A1GV0UZU0T2ORS","cs_wg_v3_real1","36NEMU28XFEX83H54MZ0O46C3CPWMI","97","0","KEYBOARD","0","5","1","1324","KEYBOARD","0","2017-03-26 23:55:33","6913"
"AITLTT4ZKSZIM","cs_wg_v3_real1","3LOZAJ85YDEMQZI249C2BE6L69F2XR","61","0","UMBRELLA","1","5","1","1587","UMBRELLA","1","2017-03-26 23:55:38","6914"
"A1FP3SH704X01V","cs_wg_v3_real1","3LO69W1SU3EH5Z9KP5U32O5Z9J9LG6","111","0","WEDDING","10","5","0","829","wedding","10","2017-03-26 23:55:39","6915"
"ANVAFB99K5RKP","cs_wg_v3_real1","3XUHV3NRVKZH361AHOWE6ZL32TN5H2","78","0","STOMACH","2","5","1","982","stomach","2","2017-03-26 23:55:39","6916"
"A1GV0UZU0T2ORS","cs_wg_v3_real1","36NEMU28XFEX83H54MZ0O46C3CPWMI","98","0","MACHINE","2","5","1","2646","MACHINE","2","2017-03-26 23:55:41","6917"
"ANVAFB99K5RKP","cs_wg_v3_real1","3XUHV3NRVKZH361AHOWE6ZL32TN5H2","79","0","FOOTBALL","0","5","1","1043","football","0","2017-03-26 23:55:47","6918"
"A1GV0UZU0T2ORS","cs_wg_v3_real1","36NEMU28XFEX83H54MZ0O46C3CPWMI","99","0","DOORWAY","1","5","1","1173","DOORWAY","1","2017-03-26 23:55:48","6919"
"AITLTT4ZKSZIM","cs_wg_v3_real1","3LOZAJ85YDEMQZI249C2BE6L69F2XR","62","0","STOMACH","0","5","1","2505","STOMACH","0","2017-03-26 23:55:49","6920"
"ANVAFB99K5RKP","cs_wg_v3_real1","3XUHV3NRVKZH361AHOWE6ZL32TN5H2","80","0","BASKET","0","5","1","1102","basket","0","2017-03-26 23:55:55","6921"
"A1GV0UZU0T2ORS","cs_wg_v3_real1","36NEMU28XFEX83H54MZ0O46C3CPWMI","100","0","WEDDING","8","5","0","2725","WEDDING","8","2017-03-26 23:55:57","6922"
"AITLTT4ZKSZIM","cs_wg_v3_real1","3LOZAJ85YDEMQZI249C2BE6L69F2XR","63","0","TRAFFIC","2","5","1","1989","TRAFFIC","2","2017-03-26 23:56:00","6923"
"ANVAFB99K5RKP","cs_wg_v3_real1","3XUHV3NRVKZH361AHOWE6ZL32TN5H2","81","0","KEYBOARD","1","5","1","1456","keyboard","1","2017-03-26 23:56:03","6924"
"A1GV0UZU0T2ORS","cs_wg_v3_real1","36NEMU28XFEX83H54MZ0O46C3CPWMI","101","0","COMMUNITY","9","5","0","1574","COMMUNITY","9","2017-03-26 23:56:04","6925"
"AITLTT4ZKSZIM","cs_wg_v3_real1","3LOZAJ85YDEMQZI249C2BE6L69F2XR","64","0","HELICOPTER","8","5","0","1392","HELICOPTER","8","2017-03-26 23:56:11","6926"
"A1GV0UZU0T2ORS","cs_wg_v3_real1","36NEMU28XFEX83H54MZ0O46C3CPWMI","102","0","MACHINE","2","5","1","2365","MACHINE","2","2017-03-26 23:56:12","6927"
"ANVAFB99K5RKP","cs_wg_v3_real1","3XUHV3NRVKZH361AHOWE6ZL32TN5H2","82","0","MACHINE","2","5","1","2654","machine","2","2017-03-26 23:56:13","6928"
"A1GV0UZU0T2ORS","cs_wg_v3_real1","36NEMU28XFEX83H54MZ0O46C3CPWMI","103","0","DOORWAY","1","5","1","1246","DOORWAY","1","2017-03-26 23:56:18","6929"
"ANVAFB99K5RKP","cs_wg_v3_real1","3XUHV3NRVKZH361AHOWE6ZL32TN5H2","83","0","FOOTBALL","0","5","1","1310","football","0","2017-03-26 23:56:21","6930"
"AITLTT4ZKSZIM","cs_wg_v3_real1","3LOZAJ85YDEMQZI249C2BE6L69F2XR","65","0","UMBRELLA","1","5","1","1281","UMBRELLA","1","2017-03-26 23:56:23","6931"
"A1GV0UZU0T2ORS","cs_wg_v3_real1","36NEMU28XFEX83H54MZ0O46C3CPWMI","104","0","DOORWAY","1","5","1","1149","DOORWAY","1","2017-03-26 23:56:25","6932"
"ANVAFB99K5RKP","cs_wg_v3_real1","3XUHV3NRVKZH361AHOWE6ZL32TN5H2","84","0","COMMUNITY","8","5","0","486","community","8","2017-03-26 23:56:29","6933"
"AITLTT4ZKSZIM","cs_wg_v3_real1","3LOZAJ85YDEMQZI249C2BE6L69F2XR","66","0","BASKET","2","5","1","1757","BASKET","2","2017-03-26 23:56:32","6934"
"A1GV0UZU0T2ORS","cs_wg_v3_real1","36NEMU28XFEX83H54MZ0O46C3CPWMI","105","0","STOMACH","10","5","0","1436","STOMACH","10","2017-03-26 23:56:33","6935"
"ANVAFB99K5RKP","cs_wg_v3_real1","3XUHV3NRVKZH361AHOWE6ZL32TN5H2","85","0","COMMUNITY","8","5","0","734","community","8","2017-03-26 23:56:37","6936"
"A1GV0UZU0T2ORS","cs_wg_v3_real1","36NEMU28XFEX83H54MZ0O46C3CPWMI","106","0","LADDER","9","5","0","3274","LADDER","9","2017-03-26 23:56:44","6937"
"AITLTT4ZKSZIM","cs_wg_v3_real1","3LOZAJ85YDEMQZI249C2BE6L69F2XR","67","0","STRUCTURE","0","5","0","3273","STRUCTURE","0","2017-03-26 23:56:45","6938"
"ANVAFB99K5RKP","cs_wg_v3_real1","3XUHV3NRVKZH361AHOWE6ZL32TN5H2","86","0","BOOKSHELF","8","5","0","1197","bookshelf","8","2017-03-26 23:56:45","6939"
"A1GV0UZU0T2ORS","cs_wg_v3_real1","36NEMU28XFEX83H54MZ0O46C3CPWMI","107","0","TRAFFIC","0","5","1","1341","TRAFFIC","0","2017-03-26 23:56:51","6940"
"ANVAFB99K5RKP","cs_wg_v3_real1","3XUHV3NRVKZH361AHOWE6ZL32TN5H2","87","0","DOORWAY","1","5","1","1351","doorway","1","2017-03-26 23:56:54","6941"
"AITLTT4ZKSZIM","cs_wg_v3_real1","3LOZAJ85YDEMQZI249C2BE6L69F2XR","68","0","MACHINE","0","5","1","1829","MACHINE","0","2017-03-26 23:56:55","6942"
"A1GV0UZU0T2ORS","cs_wg_v3_real1","36NEMU28XFEX83H54MZ0O46C3CPWMI","108","0","FOOTBALL","8","5","0","1324","FOOTBALL","8","2017-03-26 23:56:58","6943"
"ANVAFB99K5RKP","cs_wg_v3_real1","3XUHV3NRVKZH361AHOWE6ZL32TN5H2","88","0","UMBRELLA","9","5","0","759","umbrella","9","2017-03-26 23:57:01","6944"
"AITLTT4ZKSZIM","cs_wg_v3_real1","3LOZAJ85YDEMQZI249C2BE6L69F2XR","69","0","HELICOPTER","8","5","0","1070","HELICOPTER","8","2017-03-26 23:57:06","6945"
"A1GV0UZU0T2ORS","cs_wg_v3_real1","36NEMU28XFEX83H54MZ0O46C3CPWMI","109","0","BOOKSHELF","0","5","1","3133","BOOKSHELF","0","2017-03-26 23:57:08","6946"
"ANVAFB99K5RKP","cs_wg_v3_real1","3XUHV3NRVKZH361AHOWE6ZL32TN5H2","89","0","WEDDING","10","5","0","614","wedding","10","2017-03-26 23:57:09","6947"
"A1GV0UZU0T2ORS","cs_wg_v3_real1","36NEMU28XFEX83H54MZ0O46C3CPWMI","110","0","FOOTBALL","8","5","0","1436","FOOTBALL","8","2017-03-26 23:57:15","6948"
"ANVAFB99K5RKP","cs_wg_v3_real1","3XUHV3NRVKZH361AHOWE6ZL32TN5H2","90","0","STOMACH","2","5","1","899","stomach","2","2017-03-26 23:57:17","6949"
"AITLTT4ZKSZIM","cs_wg_v3_real1","3LOZAJ85YDEMQZI249C2BE6L69F2XR","70","0","BASKET","2","5","1","1561","BASKET","2","2017-03-26 23:57:17","6950"
"A1GV0UZU0T2ORS","cs_wg_v3_real1","36NEMU28XFEX83H54MZ0O46C3CPWMI","111","0","STRUCTURE","10","5","0","1638","STRUCTURE","10","2017-03-26 23:57:22","6951"
"ANVAFB99K5RKP","cs_wg_v3_real1","3XUHV3NRVKZH361AHOWE6ZL32TN5H2","91","0","LADDER","0","5","1","1614","ladder","0","2017-03-26 23:57:24","6952"
"AITLTT4ZKSZIM","cs_wg_v3_real1","3LOZAJ85YDEMQZI249C2BE6L69F2XR","71","0","WEDDING","10","5","0","1271","WEDDING","10","2017-03-26 23:57:26","6953"
"ANVAFB99K5RKP","cs_wg_v3_real1","3XUHV3NRVKZH361AHOWE6ZL32TN5H2","92","0","BASKET","0","5","1","1054","basket","0","2017-03-26 23:57:32","6954"
"ANVAFB99K5RKP","cs_wg_v3_real1","3XUHV3NRVKZH361AHOWE6ZL32TN5H2","93","0","STRUCTURE","10","5","0","1047","structure","10","2017-03-26 23:57:41","6955"
"AITLTT4ZKSZIM","cs_wg_v3_real1","3LOZAJ85YDEMQZI249C2BE6L69F2XR","72","0","COMMUNITY","10","5","0","4819","COMMUNITY","10","2017-03-26 23:57:43","6956"
"ANVAFB99K5RKP","cs_wg_v3_real1","3XUHV3NRVKZH361AHOWE6ZL32TN5H2","94","0","UMBRELLA","9","5","0","655","umbrella","9","2017-03-26 23:57:48","6957"
"AITLTT4ZKSZIM","cs_wg_v3_real1","3LOZAJ85YDEMQZI249C2BE6L69F2XR","73","0","STRUCTURE","0","5","1","1908","STRUCTURE","0","2017-03-26 23:57:55","6958"
"ANVAFB99K5RKP","cs_wg_v3_real1","3XUHV3NRVKZH361AHOWE6ZL32TN5H2","95","0","MACHINE","2","5","1","1013","machine","2","2017-03-26 23:57:56","6959"
"ANVAFB99K5RKP","cs_wg_v3_real1","3XUHV3NRVKZH361AHOWE6ZL32TN5H2","96","0","MACHINE","2","5","1","1022","machine","2","2017-03-26 23:58:04","6960"
"AITLTT4ZKSZIM","cs_wg_v3_real1","3LOZAJ85YDEMQZI249C2BE6L69F2XR","74","0","BASKET","2","5","1","1637","BASKET","2","2017-03-26 23:58:08","6961"
"ANVAFB99K5RKP","cs_wg_v3_real1","3XUHV3NRVKZH361AHOWE6ZL32TN5H2","97","0","FOOTBALL","0","5","1","991","football","0","2017-03-26 23:58:11","6962"
"ANVAFB99K5RKP","cs_wg_v3_real1","3XUHV3NRVKZH361AHOWE6ZL32TN5H2","98","0","LADDER","0","5","1","901","ladder","0","2017-03-26 23:58:18","6963"
"AITLTT4ZKSZIM","cs_wg_v3_real1","3LOZAJ85YDEMQZI249C2BE6L69F2XR","75","0","MACHINE","0","5","1","1563","MACHINE","0","2017-03-26 23:58:19","6964"
"ANVAFB99K5RKP","cs_wg_v3_real1","3XUHV3NRVKZH361AHOWE6ZL32TN5H2","99","0","WEDDING","10","5","0","661","wedding","10","2017-03-26 23:58:29","6965"
"AITLTT4ZKSZIM","cs_wg_v3_real1","3LOZAJ85YDEMQZI249C2BE6L69F2XR","76","0","COMMUNITY","10","5","0","1534","COMMUNITY","10","2017-03-26 23:58:30","6966"
"ANVAFB99K5RKP","cs_wg_v3_real1","3XUHV3NRVKZH361AHOWE6ZL32TN5H2","100","0","COMMUNITY","8","5","0","1243","community","8","2017-03-26 23:58:38","6967"
"AITLTT4ZKSZIM","cs_wg_v3_real1","3LOZAJ85YDEMQZI249C2BE6L69F2XR","77","0","STRUCTURE","0","5","1","1568","STRUCTURE","0","2017-03-26 23:58:42","6968"
"ANVAFB99K5RKP","cs_wg_v3_real1","3XUHV3NRVKZH361AHOWE6ZL32TN5H2","101","0","DOORWAY","1","5","1","1566","doorway","1","2017-03-26 23:58:45","6969"
"AITLTT4ZKSZIM","cs_wg_v3_real1","3LOZAJ85YDEMQZI249C2BE6L69F2XR","78","0","BASKET","2","5","1","1472","BASKET","2","2017-03-26 23:58:52","6970"
"ANVAFB99K5RKP","cs_wg_v3_real1","3XUHV3NRVKZH361AHOWE6ZL32TN5H2","102","0","TRAFFIC","10","5","0","1703","traffic","10","2017-03-26 23:58:54","6971"
"ANVAFB99K5RKP","cs_wg_v3_real1","3XUHV3NRVKZH361AHOWE6ZL32TN5H2","103","0","WEDDING","10","5","0","551","wedding","10","2017-03-26 23:59:02","6972"
"AITLTT4ZKSZIM","cs_wg_v3_real1","3LOZAJ85YDEMQZI249C2BE6L69F2XR","79","0","DOORWAY","9","5","1","1443","DOORWAY","9","2017-03-26 23:59:03","6973"
"ANVAFB99K5RKP","cs_wg_v3_real1","3XUHV3NRVKZH361AHOWE6ZL32TN5H2","104","0","KEYBOARD","1","5","1","1006","keyboard","1","2017-03-26 23:59:10","6974"
"AITLTT4ZKSZIM","cs_wg_v3_real1","3LOZAJ85YDEMQZI249C2BE6L69F2XR","80","0","TRAFFIC","2","5","1","1420","TRAFFIC","2","2017-03-26 23:59:14","6975"
"ANVAFB99K5RKP","cs_wg_v3_real1","3XUHV3NRVKZH361AHOWE6ZL32TN5H2","105","0","UMBRELLA","9","5","0","1107","umbrella","9","2017-03-26 23:59:18","6976"
"AITLTT4ZKSZIM","cs_wg_v3_real1","3LOZAJ85YDEMQZI249C2BE6L69F2XR","81","0","LADDER","1","5","0","1587","LADDER","1","2017-03-26 23:59:24","6977"
"ANVAFB99K5RKP","cs_wg_v3_real1","3XUHV3NRVKZH361AHOWE6ZL32TN5H2","106","0","FOOTBALL","0","5","1","830","football","0","2017-03-26 23:59:25","6978"
"ANVAFB99K5RKP","cs_wg_v3_real1","3XUHV3NRVKZH361AHOWE6ZL32TN5H2","107","0","HELICOPTER","9","5","0","854","helicopter","9","2017-03-26 23:59:33","6979"
"AITLTT4ZKSZIM","cs_wg_v3_real1","3LOZAJ85YDEMQZI249C2BE6L69F2XR","82","0","UMBRELLA","1","5","1","1285","UMBRELLA","1","2017-03-26 23:59:35","6980"
"ANVAFB99K5RKP","cs_wg_v3_real1","3XUHV3NRVKZH361AHOWE6ZL32TN5H2","108","0","DOORWAY","1","5","1","1294","doorway","1","2017-03-26 23:59:42","6981"
"AITLTT4ZKSZIM","cs_wg_v3_real1","3LOZAJ85YDEMQZI249C2BE6L69F2XR","83","0","UMBRELLA","1","5","1","1808","UMBRELLA","1","2017-03-26 23:59:46","6982"
"ANVAFB99K5RKP","cs_wg_v3_real1","3XUHV3NRVKZH361AHOWE6ZL32TN5H2","109","0","MACHINE","2","5","1","1183","machine","2","2017-03-26 23:59:49","6983"
"ANVAFB99K5RKP","cs_wg_v3_real1","3XUHV3NRVKZH361AHOWE6ZL32TN5H2","110","0","STOMACH","2","5","1","883","stomach","2","2017-03-26 23:59:57","6984"
"AITLTT4ZKSZIM","cs_wg_v3_real1","3LOZAJ85YDEMQZI249C2BE6L69F2XR","84","0","HELICOPTER","8","5","0","1430","HELICOPTER","8","2017-03-26 23:59:59","6985"
"ANVAFB99K5RKP","cs_wg_v3_real1","3XUHV3NRVKZH361AHOWE6ZL32TN5H2","111","0","LADDER","0","5","1","1063","ladder","0","2017-03-27 00:00:05","6986"
"AITLTT4ZKSZIM","cs_wg_v3_real1","3LOZAJ85YDEMQZI249C2BE6L69F2XR","85","0","BOOKSHELF","10","5","0","14407","BOOKSHELF","10","2017-03-27 00:00:24","6987"
"AITLTT4ZKSZIM","cs_wg_v3_real1","3LOZAJ85YDEMQZI249C2BE6L69F2XR","86","0","STOMACH","0","5","1","1246","STOMACH","0","2017-03-27 00:00:35","6988"
"AITLTT4ZKSZIM","cs_wg_v3_real1","3LOZAJ85YDEMQZI249C2BE6L69F2XR","87","0","TRAFFIC","2","5","1","1461","TRAFFIC","2","2017-03-27 00:00:45","6989"
"AITLTT4ZKSZIM","cs_wg_v3_real1","3LOZAJ85YDEMQZI249C2BE6L69F2XR","88","0","FOOTBALL","8","5","0","1745","FOOTBALL","8","2017-03-27 00:00:57","6990"
"AITLTT4ZKSZIM","cs_wg_v3_real1","3LOZAJ85YDEMQZI249C2BE6L69F2XR","89","0","COMMUNITY","10","5","0","4779","COMMUNITY","10","2017-03-27 00:01:12","6991"
"AITLTT4ZKSZIM","cs_wg_v3_real1","3LOZAJ85YDEMQZI249C2BE6L69F2XR","90","0","KEYBOARD","9","5","0","1342","KEYBOARD","9","2017-03-27 00:01:23","6992"
"AITLTT4ZKSZIM","cs_wg_v3_real1","3LOZAJ85YDEMQZI249C2BE6L69F2XR","91","0","KEYBOARD","9","5","0","1303","KEEYBOARD","9","2017-03-27 00:01:34","6993"
"AITLTT4ZKSZIM","cs_wg_v3_real1","3LOZAJ85YDEMQZI249C2BE6L69F2XR","92","0","DOORWAY","9","5","0","1169","DOORWAY","9","2017-03-27 00:01:43","6994"
"AITLTT4ZKSZIM","cs_wg_v3_real1","3LOZAJ85YDEMQZI249C2BE6L69F2XR","93","0","MACHINE","0","5","1","1579","MACHINE","0","2017-03-27 00:01:53","6995"
"AITLTT4ZKSZIM","cs_wg_v3_real1","3LOZAJ85YDEMQZI249C2BE6L69F2XR","94","0","STOMACH","0","5","1","1512","STOMACH","0","2017-03-27 00:02:03","6996"
"AITLTT4ZKSZIM","cs_wg_v3_real1","3LOZAJ85YDEMQZI249C2BE6L69F2XR","95","0","WEDDING","10","5","0","1261","WEDDING","10","2017-03-27 00:02:13","6997"
"AITLTT4ZKSZIM","cs_wg_v3_real1","3LOZAJ85YDEMQZI249C2BE6L69F2XR","96","0","STOMACH","0","5","1","1356","STOMACH","0","2017-03-27 00:02:23","6998"
"AITLTT4ZKSZIM","cs_wg_v3_real1","3LOZAJ85YDEMQZI249C2BE6L69F2XR","97","0","BASKET","2","5","1","1398","BASKET","2","2017-03-27 00:02:32","6999"
"AITLTT4ZKSZIM","cs_wg_v3_real1","3LOZAJ85YDEMQZI249C2BE6L69F2XR","98","0","BASKET","2","5","1","1264","BASKET","2","2017-03-27 00:02:41","7000"
"AITLTT4ZKSZIM","cs_wg_v3_real1","3LOZAJ85YDEMQZI249C2BE6L69F2XR","99","0","LADDER","1","5","1","3962","LADDER","1","2017-03-27 00:02:54","7001"
"AITLTT4ZKSZIM","cs_wg_v3_real1","3LOZAJ85YDEMQZI249C2BE6L69F2XR","100","0","FOOTBALL","8","5","0","1247","FOOTBALL","8","2017-03-27 00:03:05","7002"
"AITLTT4ZKSZIM","cs_wg_v3_real1","3LOZAJ85YDEMQZI249C2BE6L69F2XR","101","0","TRAFFIC","2","5","1","1538","TRAFFIC","2","2017-03-27 00:03:17","7003"
"AITLTT4ZKSZIM","cs_wg_v3_real1","3LOZAJ85YDEMQZI249C2BE6L69F2XR","102","0","STRUCTURE","0","5","1","1368","STRUCTURE","0","2017-03-27 00:03:27","7004"
"AITLTT4ZKSZIM","cs_wg_v3_real1","3LOZAJ85YDEMQZI249C2BE6L69F2XR","103","0","WEDDING","10","5","0","1321","WEDDING","10","2017-03-27 00:03:37","7005"
"AITLTT4ZKSZIM","cs_wg_v3_real1","3LOZAJ85YDEMQZI249C2BE6L69F2XR","104","0","HELICOPTER","8","5","0","1167","HELICOPTER","8","2017-03-27 00:03:49","7006"
"AITLTT4ZKSZIM","cs_wg_v3_real1","3LOZAJ85YDEMQZI249C2BE6L69F2XR","105","0","FOOTBALL","8","5","0","1209","FOOTBALL","8","2017-03-27 00:04:04","7007"
"AITLTT4ZKSZIM","cs_wg_v3_real1","3LOZAJ85YDEMQZI249C2BE6L69F2XR","106","0","BOOKSHELF","10","5","0","1346","BOOKSHELF","10","2017-03-27 00:04:19","7008"
"AITLTT4ZKSZIM","cs_wg_v3_real1","3LOZAJ85YDEMQZI249C2BE6L69F2XR","107","0","UMBRELLA","1","5","1","1154","UMBRELLA","1","2017-03-27 00:04:23","7009"
"AITLTT4ZKSZIM","cs_wg_v3_real1","3LOZAJ85YDEMQZI249C2BE6L69F2XR","108","0","WEDDING","10","5","0","1097","WEDDING","10","2017-03-27 00:04:34","7010"
"AITLTT4ZKSZIM","cs_wg_v3_real1","3LOZAJ85YDEMQZI249C2BE6L69F2XR","109","0","STRUCTURE","0","5","1","1731","STRUCTURE","0","2017-03-27 00:04:51","7011"
"AITLTT4ZKSZIM","cs_wg_v3_real1","3LOZAJ85YDEMQZI249C2BE6L69F2XR","110","0","KEYBOARD","9","5","0","1256","KEYBOARD","9","2017-03-27 00:04:58","7012"
"AITLTT4ZKSZIM","cs_wg_v3_real1","3LOZAJ85YDEMQZI249C2BE6L69F2XR","111","0","LADDER","1","5","1","2318","LADDER","1","2017-03-27 00:05:12","7013"
"A1P0NNR8HOQ95R","cs_wg_v3_real1","32VNZTT0A75CWHBDZOPYFBHVP6PR4F","0","0","UMBRELLA","0","5","0","6318","umbrell","0","2017-03-27 00:44:29","7014"
"A1P0NNR8HOQ95R","cs_wg_v3_real1","32VNZTT0A75CWHBDZOPYFBHVP6PR4F","1","0","STOMACH","8","5","0","2026","stomach","8","2017-03-27 00:44:37","7015"
"A1P0NNR8HOQ95R","cs_wg_v3_real1","32VNZTT0A75CWHBDZOPYFBHVP6PR4F","2","0","TRAFFIC","2","5","0","1928","traffic","2","2017-03-27 00:44:49","7016"
"A1P0NNR8HOQ95R","cs_wg_v3_real1","32VNZTT0A75CWHBDZOPYFBHVP6PR4F","3","0","COMMUNITY","9","5","1","2699","community","9
","2017-03-27 00:45:01","7017"
"A1P0NNR8HOQ95R","cs_wg_v3_real1","32VNZTT0A75CWHBDZOPYFBHVP6PR4F","4","0","LADDER","9","5","1","2929","ladder","9","2017-03-27 00:45:13","7018"
"A1P0NNR8HOQ95R","cs_wg_v3_real1","32VNZTT0A75CWHBDZOPYFBHVP6PR4F","5","0","STRUCTURE","10","5","0","1715","structure","10","2017-03-27 00:45:25","7019"
"A1P0NNR8HOQ95R","cs_wg_v3_real1","32VNZTT0A75CWHBDZOPYFBHVP6PR4F","6","0","HELICOPTER","1","5","1","2587","helicopter","1","2017-03-27 00:45:38","7020"
"A1P0NNR8HOQ95R","cs_wg_v3_real1","32VNZTT0A75CWHBDZOPYFBHVP6PR4F","7","0","KEYBOARD","0","5","0","2642","keyboard","0","2017-03-27 00:45:50","7021"
"A1P0NNR8HOQ95R","cs_wg_v3_real1","32VNZTT0A75CWHBDZOPYFBHVP6PR4F","8","0","COMMUNITY","9","5","0","2663","community","9","2017-03-27 00:46:00","7022"
"A1P0NNR8HOQ95R","cs_wg_v3_real1","32VNZTT0A75CWHBDZOPYFBHVP6PR4F","9","0","BOOKSHELF","2","5","0","1713","bookshelf","2","2017-03-27 00:46:09","7023"
"A1P0NNR8HOQ95R","cs_wg_v3_real1","32VNZTT0A75CWHBDZOPYFBHVP6PR4F","10","0","LADDER","9","5","0","2288","ladder","9","2017-03-27 00:46:19","7024"
"A1P0NNR8HOQ95R","cs_wg_v3_real1","32VNZTT0A75CWHBDZOPYFBHVP6PR4F","11","0","BASKET","8","5","1","5700","basket","8","2017-03-27 00:46:34","7025"
"A1P0NNR8HOQ95R","cs_wg_v3_real1","32VNZTT0A75CWHBDZOPYFBHVP6PR4F","12","0","HELICOPTER","1","5","1","2035","helicopter","1
","2017-03-27 00:46:44","7026"
"A1P0NNR8HOQ95R","cs_wg_v3_real1","32VNZTT0A75CWHBDZOPYFBHVP6PR4F","13","0","STOMACH","8","5","0","1663","stomach","8","2017-03-27 00:46:55","7027"
"A1P0NNR8HOQ95R","cs_wg_v3_real1","32VNZTT0A75CWHBDZOPYFBHVP6PR4F","14","0","TRAFFIC","2","5","1","2450","traffic","2","2017-03-27 00:47:06","7028"
"A1P0NNR8HOQ95R","cs_wg_v3_real1","32VNZTT0A75CWHBDZOPYFBHVP6PR4F","15","0","UMBRELLA","0","5","1","2677","umbrella","0","2017-03-27 00:47:16","7029"
"A1P0NNR8HOQ95R","cs_wg_v3_real1","32VNZTT0A75CWHBDZOPYFBHVP6PR4F","16","0","BOOKSHELF","2","5","0","4062","bookshelf","2","2017-03-27 00:47:28","7030"
"A1P0NNR8HOQ95R","cs_wg_v3_real1","32VNZTT0A75CWHBDZOPYFBHVP6PR4F","17","0","BASKET","8","5","0","3433","basket","8","2017-03-27 00:47:40","7031"
"A1P0NNR8HOQ95R","cs_wg_v3_real1","32VNZTT0A75CWHBDZOPYFBHVP6PR4F","18","0","KEYBOARD","0","5","0","2168","keyboard","0","2017-03-27 00:47:49","7032"
"A1P0NNR8HOQ95R","cs_wg_v3_real1","32VNZTT0A75CWHBDZOPYFBHVP6PR4F","19","0","DOORWAY","1","5","0","1406","doorway","1","2017-03-27 00:47:58","7033"
"A1P0NNR8HOQ95R","cs_wg_v3_real1","32VNZTT0A75CWHBDZOPYFBHVP6PR4F","20","0","WEDDING","10","5","0","1072","wedding","10","2017-03-27 00:48:07","7034"
"A1P0NNR8HOQ95R","cs_wg_v3_real1","32VNZTT0A75CWHBDZOPYFBHVP6PR4F","21","0","BOOKSHELF","2","5","1","2260","bookshelf","2","2017-03-27 00:48:16","7035"
"A1P0NNR8HOQ95R","cs_wg_v3_real1","32VNZTT0A75CWHBDZOPYFBHVP6PR4F","22","0","BOOKSHELF","2","5","1","1548","bookshelf","2","2017-03-27 00:48:27","7036"
"A1P0NNR8HOQ95R","cs_wg_v3_real1","32VNZTT0A75CWHBDZOPYFBHVP6PR4F","23","0","BOOKSHELF","2","5","1","1470","bookshelf","2","2017-03-27 00:48:36","7037"
"A1P0NNR8HOQ95R","cs_wg_v3_real1","32VNZTT0A75CWHBDZOPYFBHVP6PR4F","24","0","BOOKSHELF","2","5","1","1550","bookshelf","2","2017-03-27 00:48:45","7038"
"A1P0NNR8HOQ95R","cs_wg_v3_real1","32VNZTT0A75CWHBDZOPYFBHVP6PR4F","25","0","STRUCTURE","10","5","0","4828","structure","10","2017-03-27 00:48:58","7039"
"A1P0NNR8HOQ95R","cs_wg_v3_real1","32VNZTT0A75CWHBDZOPYFBHVP6PR4F","26","0","LADDER","9","5","0","2725","ladder","9","2017-03-27 00:49:08","7040"
"A1P0NNR8HOQ95R","cs_wg_v3_real1","32VNZTT0A75CWHBDZOPYFBHVP6PR4F","27","0","DOORWAY","1","5","1","2012","doorway","1","2017-03-27 00:49:19","7041"
"A1P0NNR8HOQ95R","cs_wg_v3_real1","32VNZTT0A75CWHBDZOPYFBHVP6PR4F","28","0","DOORWAY","1","5","1","1900","doorway","1","2017-03-27 00:49:29","7042"
"A1P0NNR8HOQ95R","cs_wg_v3_real1","32VNZTT0A75CWHBDZOPYFBHVP6PR4F","29","0","MACHINE","10","5","0","2578","machine","10","2017-03-27 00:49:40","7043"
"A1P0NNR8HOQ95R","cs_wg_v3_real1","32VNZTT0A75CWHBDZOPYFBHVP6PR4F","30","0","STRUCTURE","10","5","0","2271","structure","10","2017-03-27 00:49:51","7044"
"A1P0NNR8HOQ95R","cs_wg_v3_real1","32VNZTT0A75CWHBDZOPYFBHVP6PR4F","31","0","DOORWAY","1","5","1","7389","doorway","1","2017-03-27 00:50:06","7045"
"A1P0NNR8HOQ95R","cs_wg_v3_real1","32VNZTT0A75CWHBDZOPYFBHVP6PR4F","32","0","WEDDING","10","5","0","2127","wedding","10","2017-03-27 00:50:15","7046"
"A1P0NNR8HOQ95R","cs_wg_v3_real1","32VNZTT0A75CWHBDZOPYFBHVP6PR4F","33","0","LADDER","9","5","0","2342","ladder","9","2017-03-27 00:50:24","7047"
"A1P0NNR8HOQ95R","cs_wg_v3_real1","32VNZTT0A75CWHBDZOPYFBHVP6PR4F","34","0","TRAFFIC","2","5","1","2045","traffic","2","2017-03-27 00:50:33","7048"
"A1P0NNR8HOQ95R","cs_wg_v3_real1","32VNZTT0A75CWHBDZOPYFBHVP6PR4F","35","0","UMBRELLA","0","5","1","3059","umbrella","0","2017-03-27 00:50:45","7049"
"A1P0NNR8HOQ95R","cs_wg_v3_real1","32VNZTT0A75CWHBDZOPYFBHVP6PR4F","36","0","DOORWAY","1","5","1","2437","doorway","1","2017-03-27 00:50:55","7050"
"A1P0NNR8HOQ95R","cs_wg_v3_real1","32VNZTT0A75CWHBDZOPYFBHVP6PR4F","37","0","COMMUNITY","9","5","0","1817","community","9","2017-03-27 00:51:04","7051"
"A1P0NNR8HOQ95R","cs_wg_v3_real1","32VNZTT0A75CWHBDZOPYFBHVP6PR4F","38","0","COMMUNITY","9","5","0","2327","community","9","2017-03-27 00:51:15","7052"
"A1P0NNR8HOQ95R","cs_wg_v3_real1","32VNZTT0A75CWHBDZOPYFBHVP6PR4F","39","0","UMBRELLA","0","5","1","2495","umbrella","0","2017-03-27 00:51:25","7053"
"A1P0NNR8HOQ95R","cs_wg_v3_real1","32VNZTT0A75CWHBDZOPYFBHVP6PR4F","40","0","STOMACH","8","5","0","2320","stomach","8","2017-03-27 00:51:35","7054"
"A1P0NNR8HOQ95R","cs_wg_v3_real1","32VNZTT0A75CWHBDZOPYFBHVP6PR4F","41","0","KEYBOARD","0","5","1","3833","keyboard","0","2017-03-27 00:51:46","7055"
"A1P0NNR8HOQ95R","cs_wg_v3_real1","32VNZTT0A75CWHBDZOPYFBHVP6PR4F","42","0","STOMACH","8","5","0","4604","stomach","8","2017-03-27 00:51:58","7056"
"A1P0NNR8HOQ95R","cs_wg_v3_real1","32VNZTT0A75CWHBDZOPYFBHVP6PR4F","43","0","LADDER","9","5","0","2414","ladder","9","2017-03-27 00:52:07","7057"
"A1P0NNR8HOQ95R","cs_wg_v3_real1","32VNZTT0A75CWHBDZOPYFBHVP6PR4F","44","0","TRAFFIC","2","5","1","2208","traffic","2","2017-03-27 00:52:17","7058"
"A1P0NNR8HOQ95R","cs_wg_v3_real1","32VNZTT0A75CWHBDZOPYFBHVP6PR4F","45","0","LADDER","9","5","0","1888","ladder","9","2017-03-27 00:52:26","7059"
"A1P0NNR8HOQ95R","cs_wg_v3_real1","32VNZTT0A75CWHBDZOPYFBHVP6PR4F","46","0","UMBRELLA","0","5","1","2275","umbrella","0","2017-03-27 00:52:36","7060"
"A1P0NNR8HOQ95R","cs_wg_v3_real1","32VNZTT0A75CWHBDZOPYFBHVP6PR4F","47","0","KEYBOARD","0","5","1","2364","keyboard","0","2017-03-27 00:52:46","7061"
"A1P0NNR8HOQ95R","cs_wg_v3_real1","32VNZTT0A75CWHBDZOPYFBHVP6PR4F","48","0","FOOTBALL","0","5","0","1698","football","0","2017-03-27 00:52:54","7062"
"A1P0NNR8HOQ95R","cs_wg_v3_real1","32VNZTT0A75CWHBDZOPYFBHVP6PR4F","49","0","DOORWAY","1","5","0","11851","doorway","1","2017-03-27 00:53:15","7063"
"A1P0NNR8HOQ95R","cs_wg_v3_real1","32VNZTT0A75CWHBDZOPYFBHVP6PR4F","50","0","FOOTBALL","0","5","1","1633","football","0","2017-03-27 00:53:25","7064"
"A1P0NNR8HOQ95R","cs_wg_v3_real1","32VNZTT0A75CWHBDZOPYFBHVP6PR4F","51","0","FOOTBALL","0","5","1","4646","football","0","2017-03-27 00:53:41","7065"
"A1P0NNR8HOQ95R","cs_wg_v3_real1","32VNZTT0A75CWHBDZOPYFBHVP6PR4F","52","0","BASKET","8","5","0","1977","basket","8","2017-03-27 00:53:51","7066"
"A1P0NNR8HOQ95R","cs_wg_v3_real1","32VNZTT0A75CWHBDZOPYFBHVP6PR4F","53","0","WEDDING","10","5","0","1824","wedding","10","2017-03-27 00:54:00","7067"
"A1P0NNR8HOQ95R","cs_wg_v3_real1","32VNZTT0A75CWHBDZOPYFBHVP6PR4F","54","0","KEYBOARD","0","5","1","2668","keyboard","0","2017-03-27 00:54:12","7068"
"A1P0NNR8HOQ95R","cs_wg_v3_real1","32VNZTT0A75CWHBDZOPYFBHVP6PR4F","55","0","MACHINE","10","5","0","2466","machine","10","2017-03-27 00:54:22","7069"
"A1P0NNR8HOQ95R","cs_wg_v3_real1","32VNZTT0A75CWHBDZOPYFBHVP6PR4F","56","0","STRUCTURE","10","5","0","1405","structure","10","2017-03-27 00:54:31","7070"
"A1P0NNR8HOQ95R","cs_wg_v3_real1","32VNZTT0A75CWHBDZOPYFBHVP6PR4F","57","0","HELICOPTER","1","5","1","2848","helicopter","1","2017-03-27 00:54:42","7071"
"A1P0NNR8HOQ95R","cs_wg_v3_real1","32VNZTT0A75CWHBDZOPYFBHVP6PR4F","58","0","FOOTBALL","0","5","1","1689","football","0","2017-03-27 00:54:50","7072"
"A1P0NNR8HOQ95R","cs_wg_v3_real1","32VNZTT0A75CWHBDZOPYFBHVP6PR4F","59","0","STRUCTURE","10","5","0","1546","structure","10","2017-03-27 00:55:00","7073"
"A1P0NNR8HOQ95R","cs_wg_v3_real1","32VNZTT0A75CWHBDZOPYFBHVP6PR4F","60","0","MACHINE","10","5","0","1841","machine","10","2017-03-27 00:55:10","7074"
"A1P0NNR8HOQ95R","cs_wg_v3_real1","32VNZTT0A75CWHBDZOPYFBHVP6PR4F","61","0","STRUCTURE","10","5","0","1071","structure","10","2017-03-27 00:55:20","7075"
"A1P0NNR8HOQ95R","cs_wg_v3_real1","32VNZTT0A75CWHBDZOPYFBHVP6PR4F","62","0","KEYBOARD","0","5","1","1463","keyboard","0","2017-03-27 00:55:29","7076"
"A1P0NNR8HOQ95R","cs_wg_v3_real1","32VNZTT0A75CWHBDZOPYFBHVP6PR4F","63","0","WEDDING","10","5","0","1444","wedding","10","2017-03-27 00:55:38","7077"
"A1P0NNR8HOQ95R","cs_wg_v3_real1","32VNZTT0A75CWHBDZOPYFBHVP6PR4F","64","0","WEDDING","10","5","0","1233","wedding","10","2017-03-27 00:55:46","7078"
"A1P0NNR8HOQ95R","cs_wg_v3_real1","32VNZTT0A75CWHBDZOPYFBHVP6PR4F","65","0","STRUCTURE","10","5","0","1091","structure","10","2017-03-27 00:55:55","7079"
"A1P0NNR8HOQ95R","cs_wg_v3_real1","32VNZTT0A75CWHBDZOPYFBHVP6PR4F","66","0","FOOTBALL","0","5","1","1985","football","0","2017-03-27 00:56:05","7080"
"A1P0NNR8HOQ95R","cs_wg_v3_real1","32VNZTT0A75CWHBDZOPYFBHVP6PR4F","67","0","WEDDING","10","5","0","1598","wedding","10","2017-03-27 00:56:14","7081"
"A1P0NNR8HOQ95R","cs_wg_v3_real1","32VNZTT0A75CWHBDZOPYFBHVP6PR4F","68","0","TRAFFIC","2","5","1","2242","traffic","2","2017-03-27 00:56:23","7082"
"A1P0NNR8HOQ95R","cs_wg_v3_real1","32VNZTT0A75CWHBDZOPYFBHVP6PR4F","69","0","COMMUNITY","9","5","0","1066","community","9","2017-03-27 00:56:32","7083"
"A1P0NNR8HOQ95R","cs_wg_v3_real1","32VNZTT0A75CWHBDZOPYFBHVP6PR4F","70","0","FOOTBALL","0","5","1","1675","football","0","2017-03-27 00:56:43","7084"
"A1P0NNR8HOQ95R","cs_wg_v3_real1","32VNZTT0A75CWHBDZOPYFBHVP6PR4F","71","0","DOORWAY","1","5","1","2283","doorway","1","2017-03-27 00:56:53","7085"
"A1P0NNR8HOQ95R","cs_wg_v3_real1","32VNZTT0A75CWHBDZOPYFBHVP6PR4F","72","0","MACHINE","10","5","0","1604","machine","10","2017-03-27 00:57:01","7086"
"A1P0NNR8HOQ95R","cs_wg_v3_real1","32VNZTT0A75CWHBDZOPYFBHVP6PR4F","73","0","MACHINE","10","5","0","1344","machine","10","2017-03-27 00:57:10","7087"
"A1P0NNR8HOQ95R","cs_wg_v3_real1","32VNZTT0A75CWHBDZOPYFBHVP6PR4F","74","0","STOMACH","8","5","0","1399","stomach","8","2017-03-27 00:57:19","7088"
"A1P0NNR8HOQ95R","cs_wg_v3_real1","32VNZTT0A75CWHBDZOPYFBHVP6PR4F","75","0","WEDDING","10","5","0","1025","wedding","10","2017-03-27 00:57:31","7089"
"A1P0NNR8HOQ95R","cs_wg_v3_real1","32VNZTT0A75CWHBDZOPYFBHVP6PR4F","76","0","BASKET","8","5","0","1233","basket","8","2017-03-27 00:57:38","7090"
"A1P0NNR8HOQ95R","cs_wg_v3_real1","32VNZTT0A75CWHBDZOPYFBHVP6PR4F","77","0","KEYBOARD","0","5","1","1189","keyboard","0","2017-03-27 00:57:48","7091"
"A1P0NNR8HOQ95R","cs_wg_v3_real1","32VNZTT0A75CWHBDZOPYFBHVP6PR4F","78","0","BASKET","8","5","0","5453","basket","8","2017-03-27 00:58:00","7092"
"A1P0NNR8HOQ95R","cs_wg_v3_real1","32VNZTT0A75CWHBDZOPYFBHVP6PR4F","79","0","HELICOPTER","1","5","1","1704","helicopter","1","2017-03-27 00:58:10","7093"
"A1P0NNR8HOQ95R","cs_wg_v3_real1","32VNZTT0A75CWHBDZOPYFBHVP6PR4F","80","0","TRAFFIC","2","5","1","1212","traffic","2","2017-03-27 00:58:18","7094"
"A1P0NNR8HOQ95R","cs_wg_v3_real1","32VNZTT0A75CWHBDZOPYFBHVP6PR4F","81","0","FOOTBALL","0","5","1","1642","football","0","2017-03-27 00:58:27","7095"
"A1P0NNR8HOQ95R","cs_wg_v3_real1","32VNZTT0A75CWHBDZOPYFBHVP6PR4F","82","0","BASKET","8","5","0","1338","basket","8","2017-03-27 00:58:36","7096"
"A1P0NNR8HOQ95R","cs_wg_v3_real1","32VNZTT0A75CWHBDZOPYFBHVP6PR4F","83","0","BASKET","8","5","0","1456","basket","8","2017-03-27 00:58:45","7097"
"A1P0NNR8HOQ95R","cs_wg_v3_real1","32VNZTT0A75CWHBDZOPYFBHVP6PR4F","84","0","TRAFFIC","2","5","1","1565","traffic","2","2017-03-27 00:58:53","7098"
"A1P0NNR8HOQ95R","cs_wg_v3_real1","32VNZTT0A75CWHBDZOPYFBHVP6PR4F","85","0","MACHINE","10","5","0","1087","machine","10","2017-03-27 00:59:02","7099"
"A1P0NNR8HOQ95R","cs_wg_v3_real1","32VNZTT0A75CWHBDZOPYFBHVP6PR4F","86","0","STRUCTURE","10","5","0","4682","structure","10","2017-03-27 00:59:16","7100"
"A1P0NNR8HOQ95R","cs_wg_v3_real1","32VNZTT0A75CWHBDZOPYFBHVP6PR4F","87","0","BOOKSHELF","2","5","1","1834","bookshelf","2","2017-03-27 00:59:25","7101"
"A1P0NNR8HOQ95R","cs_wg_v3_real1","32VNZTT0A75CWHBDZOPYFBHVP6PR4F","88","0","HELICOPTER","1","5","1","2050","helicopter","1","2017-03-27 00:59:34","7102"
"A1P0NNR8HOQ95R","cs_wg_v3_real1","32VNZTT0A75CWHBDZOPYFBHVP6PR4F","89","0","COMMUNITY","9","5","0","1346","community","9","2017-03-27 00:59:43","7103"
"A1P0NNR8HOQ95R","cs_wg_v3_real1","32VNZTT0A75CWHBDZOPYFBHVP6PR4F","90","0","BOOKSHELF","2","5","1","1279","bookshelf","2","2017-03-27 00:59:51","7104"
"A1P0NNR8HOQ95R","cs_wg_v3_real1","32VNZTT0A75CWHBDZOPYFBHVP6PR4F","91","0","TRAFFIC","2","5","1","1225","traffic","2","2017-03-27 01:00:00","7105"
"A1P0NNR8HOQ95R","cs_wg_v3_real1","32VNZTT0A75CWHBDZOPYFBHVP6PR4F","92","0","WEDDING","10","5","0","987","wedding","10","2017-03-27 01:00:07","7106"
"A1P0NNR8HOQ95R","cs_wg_v3_real1","32VNZTT0A75CWHBDZOPYFBHVP6PR4F","93","0","UMBRELLA","0","5","1","1416","umbrella","0","2017-03-27 01:00:16","7107"
"A1P0NNR8HOQ95R","cs_wg_v3_real1","32VNZTT0A75CWHBDZOPYFBHVP6PR4F","94","0","LADDER","9","5","0","1640","ladder","9","2017-03-27 01:00:25","7108"
"A1P0NNR8HOQ95R","cs_wg_v3_real1","32VNZTT0A75CWHBDZOPYFBHVP6PR4F","95","0","UMBRELLA","0","5","1","1212","umbrella","0","2017-03-27 01:00:34","7109"
"A1P0NNR8HOQ95R","cs_wg_v3_real1","32VNZTT0A75CWHBDZOPYFBHVP6PR4F","96","0","HELICOPTER","1","5","1","980","helicopter","1","2017-03-27 01:00:44","7110"
"A1P0NNR8HOQ95R","cs_wg_v3_real1","32VNZTT0A75CWHBDZOPYFBHVP6PR4F","97","0","FOOTBALL","0","5","1","1014","football","0","2017-03-27 01:00:51","7111"
"A1P0NNR8HOQ95R","cs_wg_v3_real1","32VNZTT0A75CWHBDZOPYFBHVP6PR4F","98","0","COMMUNITY","9","5","0","1695","community","9","2017-03-27 01:01:04","7112"
"A1P0NNR8HOQ95R","cs_wg_v3_real1","32VNZTT0A75CWHBDZOPYFBHVP6PR4F","99","0","DOORWAY","1","5","1","1387","doorway","1","2017-03-27 01:01:13","7113"
"A1P0NNR8HOQ95R","cs_wg_v3_real1","32VNZTT0A75CWHBDZOPYFBHVP6PR4F","100","0","UMBRELLA","0","5","1","1144","umbrella","0","2017-03-27 01:01:21","7114"
"A1P0NNR8HOQ95R","cs_wg_v3_real1","32VNZTT0A75CWHBDZOPYFBHVP6PR4F","101","0","HELICOPTER","1","5","1","1035","helicopter","1","2017-03-27 01:01:28","7115"
"A1P0NNR8HOQ95R","cs_wg_v3_real1","32VNZTT0A75CWHBDZOPYFBHVP6PR4F","102","0","MACHINE","10","5","0","1591","machine","10","2017-03-27 01:01:37","7116"
"A1P0NNR8HOQ95R","cs_wg_v3_real1","32VNZTT0A75CWHBDZOPYFBHVP6PR4F","103","0","HELICOPTER","1","5","1","1021","helicopter","1","2017-03-27 01:01:46","7117"
"A1P0NNR8HOQ95R","cs_wg_v3_real1","32VNZTT0A75CWHBDZOPYFBHVP6PR4F","104","0","LADDER","9","5","0","1136","ladder","9","2017-03-27 01:01:53","7118"
"A1P0NNR8HOQ95R","cs_wg_v3_real1","32VNZTT0A75CWHBDZOPYFBHVP6PR4F","105","0","STOMACH","8","5","0","1155","stomach","8","2017-03-27 01:02:01","7119"
"A1P0NNR8HOQ95R","cs_wg_v3_real1","32VNZTT0A75CWHBDZOPYFBHVP6PR4F","106","0","STOMACH","8","5","0","1025","stomach","8","2017-03-27 01:02:09","7120"
"A1P0NNR8HOQ95R","cs_wg_v3_real1","32VNZTT0A75CWHBDZOPYFBHVP6PR4F","107","0","MACHINE","10","5","0","1044","machine","10","2017-03-27 01:02:17","7121"
"A1P0NNR8HOQ95R","cs_wg_v3_real1","32VNZTT0A75CWHBDZOPYFBHVP6PR4F","108","0","COMMUNITY","9","5","0","741","community","9","2017-03-27 01:02:25","7122"
"A1P0NNR8HOQ95R","cs_wg_v3_real1","32VNZTT0A75CWHBDZOPYFBHVP6PR4F","109","0","STOMACH","8","5","0","745","stomach","8","2017-03-27 01:02:35","7123"
"A1P0NNR8HOQ95R","cs_wg_v3_real1","32VNZTT0A75CWHBDZOPYFBHVP6PR4F","110","0","KEYBOARD","0","5","1","2329","keyboard","0","2017-03-27 01:02:44","7124"
"A1P0NNR8HOQ95R","cs_wg_v3_real1","32VNZTT0A75CWHBDZOPYFBHVP6PR4F","111","0","BASKET","8","5","0","1004","basket","8","2017-03-27 01:02:52","7125"
