"subject","version","assignmentId","trial","trial_type","word","value","alt","choice","rt","resp","resp2","stamp","id"
"A3V4AW6DGWBHDO","cs_wg_v9_real1","33NF62TLXJ3GCVH3CB35K1K2RGDJKQ","0","0","STOMACH","9","5","0","4503","STOMACH","9","2018-01-12 17:50:19","159521"
"A3696JXTRKL2FI","cs_wg_v9_real1","3UOUJI6MTDFVABR4NTM8HX1F45QXUP","0","0","WEDDING","0","5","0","3623","Wedding","0","2018-01-12 17:50:21","159522"
"ALSJ5JQPC3A82","cs_wg_v9_real1","3DUZQ9U6SMPNR9U5Y9QQEBM63XXVS4","0","0","FOOTBALL","1","5","0","2156","football","1","2018-01-12 17:50:26","159523"
"A1KUW26JP1SB9","cs_wg_v9_real1","3KRVW3HTZNM41M0WKHPZRF3TC4LSMK","0","0","MACHINE","0","5","0","5186","Machine","Machine","2018-01-12 17:50:31","159524"
"A3696JXTRKL2FI","cs_wg_v9_real1","3UOUJI6MTDFVABR4NTM8HX1F45QXUP","1","0","DOORWAY","9","5","0","1595","Doorway","9","2018-01-12 17:50:31","159525"
"A3V4AW6DGWBHDO","cs_wg_v9_real1","33NF62TLXJ3GCVH3CB35K1K2RGDJKQ","1","0","STRUCTURE","1","5","0","3839","STRUCTURE","1","2018-01-12 17:50:32","159526"
"A3DU63P4KYJHOO","cs_wg_v9_real1","3TPZPLC3M0D628CUMIGQ0BPCPTXP3L","0","0","LADDER","10","5","0","5484","ladder","10","2018-01-12 17:50:36","159527"
"A3696JXTRKL2FI","cs_wg_v9_real1","3UOUJI6MTDFVABR4NTM8HX1F45QXUP","2","0","LADDER","0","5","0","1179","Ladder","0","2018-01-12 17:50:38","159528"
"A3V4AW6DGWBHDO","cs_wg_v9_real1","33NF62TLXJ3GCVH3CB35K1K2RGDJKQ","2","0","BASKET","1","5","1","2742","BASKET","1","2018-01-12 17:50:43","159529"
"A3DU63P4KYJHOO","cs_wg_v9_real1","3TPZPLC3M0D628CUMIGQ0BPCPTXP3L","1","0","WEDDING","9","5","0","2479","wedding","9","2018-01-12 17:50:45","159530"
"A3696JXTRKL2FI","cs_wg_v9_real1","3UOUJI6MTDFVABR4NTM8HX1F45QXUP","3","0","MACHINE","1","5","0","2258","Machine","1","2018-01-12 17:50:46","159531"
"A1KUW26JP1SB9","cs_wg_v9_real1","3KRVW3HTZNM41M0WKHPZRF3TC4LSMK","1","0","BOOKSHELF","1","5","0","2676","Bookshelf","1","2018-01-12 17:50:49","159532"
"A3V4AW6DGWBHDO","cs_wg_v9_real1","33NF62TLXJ3GCVH3CB35K1K2RGDJKQ","3","0","HELICOPTER","10","5","0","3417","HELICOPTER","10","2018-01-12 17:50:55","159533"
"A3696JXTRKL2FI","cs_wg_v9_real1","3UOUJI6MTDFVABR4NTM8HX1F45QXUP","4","0","UMBRELLA","0","5","0","1251","Umbrella","0","2018-01-12 17:50:56","159534"
"A31YTICDM7ZMP6","cs_wg_v9_real1","3FE2ERCCZX9VOX5G5G0IOENNKKTOPF","0","0","FOOTBALL","10","5","0","10859",,"10","2018-01-12 17:50:58","159535"
"A3DU63P4KYJHOO","cs_wg_v9_real1","3TPZPLC3M0D628CUMIGQ0BPCPTXP3L","2","0","TRAFFIC","9","5","0","10923","traffic","9","2018-01-12 17:51:03","159536"
"A1YXQDZYCKILTT","cs_wg_v9_real1","3LKC68YZ3A4L862HH2EDG8VJDHWOWA","0","0","BOOKSHELF","1","5","0","6347","bookshelf","1","2018-01-12 17:51:05","159537"
"A1KUW26JP1SB9","cs_wg_v9_real1","3KRVW3HTZNM41M0WKHPZRF3TC4LSMK","2","0","BASKET","9","5","1","5297","Basket","9","2018-01-12 17:51:06","159538"
"A3V4AW6DGWBHDO","cs_wg_v9_real1","33NF62TLXJ3GCVH3CB35K1K2RGDJKQ","4","0","DOORWAY","10","5","0","2714","DOORWAY","10","2018-01-12 17:51:07","159539"
"AFI6RY5VKOIMA","cs_wg_v9_real1","3TUI152ZZBOVSHZUZRHWCN0PW55Q1L","0","0","MACHINE","10","5","1","5664","Word","10","2018-01-12 17:51:08","159540"
"A3696JXTRKL2FI","cs_wg_v9_real1","3UOUJI6MTDFVABR4NTM8HX1F45QXUP","5","0","MACHINE","1","5","1","3138","Machine","1","2018-01-12 17:51:09","159541"
"A3DU63P4KYJHOO","cs_wg_v9_real1","3TPZPLC3M0D628CUMIGQ0BPCPTXP3L","3","0","COMMUNITY","9","5","0","1437","community","9","2018-01-12 17:51:12","159542"
"A3V4AW6DGWBHDO","cs_wg_v9_real1","33NF62TLXJ3GCVH3CB35K1K2RGDJKQ","5","0","KEYBOARD","0","5","0","2577","KEYBOARD","0","2018-01-12 17:51:17","159543"
"A3696JXTRKL2FI","cs_wg_v9_real1","3UOUJI6MTDFVABR4NTM8HX1F45QXUP","6","0","UMBRELLA","0","5","1","2124","Umbrella","0","2018-01-12 17:51:18","159544"
"A1KUW26JP1SB9","cs_wg_v9_real1","3KRVW3HTZNM41M0WKHPZRF3TC4LSMK","3","0","STOMACH","10","5","0","2168","Stomach","10","2018-01-12 17:51:19","159545"
"A31YTICDM7ZMP6","cs_wg_v9_real1","3FE2ERCCZX9VOX5G5G0IOENNKKTOPF","1","0","HELICOPTER","1","5","0","7266",,"1","2018-01-12 17:51:20","159546"
"A3DU63P4KYJHOO","cs_wg_v9_real1","3TPZPLC3M0D628CUMIGQ0BPCPTXP3L","4","0","UMBRELLA","1","5","0","2709","umbrella","1","2018-01-12 17:51:21","159547"
"A2LZ0TBYJ91GYQ","cs_wg_v9_real1","3WYP994K17SZ85RDW7A7K5U83P2Y6U","0","0","KEYBOARD","1","5","0","5082","keyboard","1","2018-01-12 17:51:21","159548"
"A3HHHZF9N10QMQ","cs_wg_v9_real1","3I0BTBYZAXM4UU5YUIUQB4KHQMH0YW","0","0","DOORWAY","9","5","1","6409","doorway","9","2018-01-12 17:51:25","159549"
"A3696JXTRKL2FI","cs_wg_v9_real1","3UOUJI6MTDFVABR4NTM8HX1F45QXUP","7","0","COMMUNITY","10","5","1","1365","Community","5","2018-01-12 17:51:27","159550"
"A3V4AW6DGWBHDO","cs_wg_v9_real1","33NF62TLXJ3GCVH3CB35K1K2RGDJKQ","6","0","STRUCTURE","1","5","1","2832","STRUCTURE","1","2018-01-12 17:51:28","159551"
"AFI6RY5VKOIMA","cs_wg_v9_real1","3TUI152ZZBOVSHZUZRHWCN0PW55Q1L","1","0","UMBRELLA","1","5","0","6995","Umbrella","5","2018-01-12 17:51:28","159552"
"A1YXQDZYCKILTT","cs_wg_v9_real1","3LKC68YZ3A4L862HH2EDG8VJDHWOWA","1","0","MACHINE","9","5","1","6363","machinne","9","2018-01-12 17:51:28","159553"
"A3DU63P4KYJHOO","cs_wg_v9_real1","3TPZPLC3M0D628CUMIGQ0BPCPTXP3L","5","0","DOORWAY","1","5","1","2142","doorway","1","2018-01-12 17:51:31","159554"
"A9BFBXFNK8GR1","cs_wg_v9_real1","3WMOAN2SRBYQBW20QD94FHC0GYPVNS","0","0","COMMUNITY","9","5","0","5300","community","9","2018-01-12 17:51:31","159555"
"A2LZ0TBYJ91GYQ","cs_wg_v9_real1","3WYP994K17SZ85RDW7A7K5U83P2Y6U","1","0","BASKET","1","5","0","1999","basket","1","2018-01-12 17:51:32","159556"
"A1KUW26JP1SB9","cs_wg_v9_real1","3KRVW3HTZNM41M0WKHPZRF3TC4LSMK","4","0","DOORWAY","1","5","1","2799","Doorway","1","2018-01-12 17:51:32","159557"
"A3696JXTRKL2FI","cs_wg_v9_real1","3UOUJI6MTDFVABR4NTM8HX1F45QXUP","8","0","STRUCTURE","0","5","1","1423","Structure","0","2018-01-12 17:51:35","159558"
"A3V4AW6DGWBHDO","cs_wg_v9_real1","33NF62TLXJ3GCVH3CB35K1K2RGDJKQ","7","0","STRUCTURE","1","5","1","2296","STRUCTURE","1","2018-01-12 17:51:38","159559"
"A3HHHZF9N10QMQ","cs_wg_v9_real1","3I0BTBYZAXM4UU5YUIUQB4KHQMH0YW","1","0","UMBRELLA","10","5","0","4026","umbrella","10","2018-01-12 17:51:39","159560"
"A3DU63P4KYJHOO","cs_wg_v9_real1","3TPZPLC3M0D628CUMIGQ0BPCPTXP3L","6","0","STRUCTURE","10","5","0","924","structure","10","2018-01-12 17:51:40","159561"
"A1FMUT3U8CWI0X","cs_wg_v9_real1","337RC3OW0530NWZFE0TP2P8BB3PLVG","0","0","KEYBOARD","1","5","1","10642","keyboard","1","2018-01-12 17:51:40","159562"
"AFI6RY5VKOIMA","cs_wg_v9_real1","3TUI152ZZBOVSHZUZRHWCN0PW55Q1L","2","0","STOMACH","9","5","1","3369","Stomach","9","2018-01-12 17:51:41","159563"
"A2LZ0TBYJ91GYQ","cs_wg_v9_real1","3WYP994K17SZ85RDW7A7K5U83P2Y6U","2","0","TRAFFIC","0","5","0","1700","traffic","0","2018-01-12 17:51:42","159564"
"A3696JXTRKL2FI","cs_wg_v9_real1","3UOUJI6MTDFVABR4NTM8HX1F45QXUP","9","0","BOOKSHELF","9","5","1","1330","Bookshelf","9","2018-01-12 17:51:44","159565"
"A31YTICDM7ZMP6","cs_wg_v9_real1","3FE2ERCCZX9VOX5G5G0IOENNKKTOPF","2","0","STRUCTURE","1","5","0","3055","structure","1","2018-01-12 17:51:44","159566"
"A1KUW26JP1SB9","cs_wg_v9_real1","3KRVW3HTZNM41M0WKHPZRF3TC4LSMK","5","0","BOOKSHELF","1","5","0","4216","Bookshelf","1","2018-01-12 17:51:45","159567"
"A2VGEE0ZIZ8CBQ","cs_wg_v9_real1","3DPNQGW4LLGJAYDT70M04GQ18O464I","0","0","TRAFFIC","9","5","0","5086","traffic","9","2018-01-12 17:51:49","159568"
"A3DU63P4KYJHOO","cs_wg_v9_real1","3TPZPLC3M0D628CUMIGQ0BPCPTXP3L","7","0","LADDER","10","5","0","4075","ladder","10","2018-01-12 17:51:49","159569"
"A3HHHZF9N10QMQ","cs_wg_v9_real1","3I0BTBYZAXM4UU5YUIUQB4KHQMH0YW","2","0","MACHINE","0","5","0","2002","machine","0","2018-01-12 17:51:50","159570"
"A3696JXTRKL2FI","cs_wg_v9_real1","3UOUJI6MTDFVABR4NTM8HX1F45QXUP","10","0","FOOTBALL","1","5","1","1016","Football","1","2018-01-12 17:51:51","159571"
"A1YXQDZYCKILTT","cs_wg_v9_real1","3LKC68YZ3A4L862HH2EDG8VJDHWOWA","2","0","BASKET","0","5","1","6588","basket","0
0

0","2018-01-12 17:51:51","159572"
"A1FMUT3U8CWI0X","cs_wg_v9_real1","337RC3OW0530NWZFE0TP2P8BB3PLVG","1","0","FOOTBALL","0","5","1","3065","football","0","2018-01-12 17:51:52","159573"
"A3V4AW6DGWBHDO","cs_wg_v9_real1","33NF62TLXJ3GCVH3CB35K1K2RGDJKQ","8","0","HELICOPTER","10","5","1","5533","HELICOPTER","10","2018-01-12 17:51:52","159574"
"AFI6RY5VKOIMA","cs_wg_v9_real1","3TUI152ZZBOVSHZUZRHWCN0PW55Q1L","3","0","STRUCTURE","0","5","1","3214","structure","0","2018-01-12 17:51:53","159575"
"A1KUW26JP1SB9","cs_wg_v9_real1","3KRVW3HTZNM41M0WKHPZRF3TC4LSMK","6","0","LADDER","0","5","0","1620","Ladder","0","2018-01-12 17:51:55","159576"
"A9BFBXFNK8GR1","cs_wg_v9_real1","3WMOAN2SRBYQBW20QD94FHC0GYPVNS","1","0","FOOTBALL","0","5","1","6733","football","0","2018-01-12 17:51:57","159577"
"A3DU63P4KYJHOO","cs_wg_v9_real1","3TPZPLC3M0D628CUMIGQ0BPCPTXP3L","8","0","HELICOPTER","0","5","0","1036","helicopter","0","2018-01-12 17:51:57","159578"
"A3696JXTRKL2FI","cs_wg_v9_real1","3UOUJI6MTDFVABR4NTM8HX1F45QXUP","11","0","LADDER","0","5","1","1191","Ladder","0","2018-01-12 17:51:58","159579"
"A97R988SLWMU8","cs_wg_v9_real1","34Q075JO1XE74OUVITNHXH97J1810Z","0","0","DOORWAY","9","5","0","7993","doorway","5","2018-01-12 17:51:59","159580"
"A2LZ0TBYJ91GYQ","cs_wg_v9_real1","3WYP994K17SZ85RDW7A7K5U83P2Y6U","3","0","BASKET","1","5","1","3773","basket","1","2018-01-12 17:52:01","159581"
"A2VGEE0ZIZ8CBQ","cs_wg_v9_real1","3DPNQGW4LLGJAYDT70M04GQ18O464I","1","0","STOMACH","1","5","0","2603","stomach","1","2018-01-12 17:52:02","159582"
"A3DU63P4KYJHOO","cs_wg_v9_real1","3TPZPLC3M0D628CUMIGQ0BPCPTXP3L","9","0","FOOTBALL","10","5","1","953","football","10","2018-01-12 17:52:03","159583"
"A3V4AW6DGWBHDO","cs_wg_v9_real1","33NF62TLXJ3GCVH3CB35K1K2RGDJKQ","9","0","DOORWAY","10","5","1","2896","DOORWAY","10","2018-01-12 17:52:03","159584"
"A3696JXTRKL2FI","cs_wg_v9_real1","3UOUJI6MTDFVABR4NTM8HX1F45QXUP","12","0","COMMUNITY","10","5","1","1069","Community","10","2018-01-12 17:52:05","159585"
"AFI6RY5VKOIMA","cs_wg_v9_real1","3TUI152ZZBOVSHZUZRHWCN0PW55Q1L","4","0","BASKET","0","5","0","2305","basket","0","2018-01-12 17:52:05","159586"
"A1FMUT3U8CWI0X","cs_wg_v9_real1","337RC3OW0530NWZFE0TP2P8BB3PLVG","2","0","COMMUNITY","0","5","1","2630","community","0","2018-01-12 17:52:06","159587"
"A1KUW26JP1SB9","cs_wg_v9_real1","3KRVW3HTZNM41M0WKHPZRF3TC4LSMK","7","0","KEYBOARD","9","5","0","2148","Keyboard","9","2018-01-12 17:52:06","159588"
"A1H47GTSBAPDTW","cs_wg_v9_real1","32AT8R96GLANEU55TJGLIPKNPQOSUC","0","0","KEYBOARD","1","5","1","5391","KEYBOARD","1","2018-01-12 17:52:06","159589"
"A3HHHZF9N10QMQ","cs_wg_v9_real1","3I0BTBYZAXM4UU5YUIUQB4KHQMH0YW","3","0","HELICOPTER","9","5","1","3875","helicopter","5","2018-01-12 17:52:07","159590"
"A31YTICDM7ZMP6","cs_wg_v9_real1","3FE2ERCCZX9VOX5G5G0IOENNKKTOPF","3","0","UMBRELLA","1","5","0","3756","umbrella","1","2018-01-12 17:52:09","159591"
"A1YXQDZYCKILTT","cs_wg_v9_real1","3LKC68YZ3A4L862HH2EDG8VJDHWOWA","3","0","WEDDING","0","5","1","3749","wedding","0","2018-01-12 17:52:12","159592"
"A3696JXTRKL2FI","cs_wg_v9_real1","3UOUJI6MTDFVABR4NTM8HX1F45QXUP","13","0","UMBRELLA","0","5","1","878","Umbrella","0","2018-01-12 17:52:13","159593"
"A2ZNSEG0BWKTLK","cs_wg_v9_real1","3QUO65DNQUP8G2DCM2ZCYKAMS1LOUB","0","0","BASKET","0","5","0","3271","basket","0","2018-01-12 17:52:13","159594"
"A3V4AW6DGWBHDO","cs_wg_v9_real1","33NF62TLXJ3GCVH3CB35K1K2RGDJKQ","10","0","BASKET","1","5","1","4336","BASKET","1","2018-01-12 17:52:15","159595"
"A1FMUT3U8CWI0X","cs_wg_v9_real1","337RC3OW0530NWZFE0TP2P8BB3PLVG","3","0","DOORWAY","0","5","1","2731","doorway","0","2018-01-12 17:52:17","159596"
"A9BFBXFNK8GR1","cs_wg_v9_real1","3WMOAN2SRBYQBW20QD94FHC0GYPVNS","2","0","WEDDING","1","5","0","3124","wedding","1","2018-01-12 17:52:17","159597"
"A3DU63P4KYJHOO","cs_wg_v9_real1","3TPZPLC3M0D628CUMIGQ0BPCPTXP3L","10","0","COMMUNITY","9","5","0","8668","community","9","2018-01-12 17:52:18","159598"
"A1KUW26JP1SB9","cs_wg_v9_real1","3KRVW3HTZNM41M0WKHPZRF3TC4LSMK","8","0","LADDER","0","5","1","2562","Ladder","0","2018-01-12 17:52:18","159599"
"AFI6RY5VKOIMA","cs_wg_v9_real1","3TUI152ZZBOVSHZUZRHWCN0PW55Q1L","5","0","MACHINE","10","5","0","2766","machine","10","2018-01-12 17:52:18","159600"
"A3HHHZF9N10QMQ","cs_wg_v9_real1","3I0BTBYZAXM4UU5YUIUQB4KHQMH0YW","4","0","LADDER","1","5","0","3379","ladder","1","2018-01-12 17:52:18","159601"
"A2VGEE0ZIZ8CBQ","cs_wg_v9_real1","3DPNQGW4LLGJAYDT70M04GQ18O464I","2","0","KEYBOARD","10","5","1","2711","keyboard","10","2018-01-12 17:52:18","159602"
"A2LZ0TBYJ91GYQ","cs_wg_v9_real1","3WYP994K17SZ85RDW7A7K5U83P2Y6U","4","0","DOORWAY","9","5","0","1958","doorway","9","2018-01-12 17:52:19","159603"
"A3696JXTRKL2FI","cs_wg_v9_real1","3UOUJI6MTDFVABR4NTM8HX1F45QXUP","14","0","STRUCTURE","0","5","1","1263","Structure","0","2018-01-12 17:52:20","159604"
"A97R988SLWMU8","cs_wg_v9_real1","34Q075JO1XE74OUVITNHXH97J1810Z","1","0","BASKET","1","5","1","6419","basket","5","2018-01-12 17:52:20","159605"
"A1H47GTSBAPDTW","cs_wg_v9_real1","32AT8R96GLANEU55TJGLIPKNPQOSUC","1","0","WEDDING","10","5","1","3932","WEDDING","10","2018-01-12 17:52:22","159606"
"A2JRONMDBUJT3K","cs_wg_v9_real1","3WETL7AQWT929YUB237C25KVYTX35E","0","0","TRAFFIC","10","5","0","9801","traffic","10","2018-01-12 17:52:22","159607"
"A31YTICDM7ZMP6","cs_wg_v9_real1","3FE2ERCCZX9VOX5G5G0IOENNKKTOPF","4","0","LADDER","9","5","0","2254","ladder","9","2018-01-12 17:52:24","159608"
"A3V4AW6DGWBHDO","cs_wg_v9_real1","33NF62TLXJ3GCVH3CB35K1K2RGDJKQ","11","0","TRAFFIC","0","5","0","3433","TRAFFIC","0","2018-01-12 17:52:26","159609"
"A3696JXTRKL2FI","cs_wg_v9_real1","3UOUJI6MTDFVABR4NTM8HX1F45QXUP","15","0","LADDER","0","5","1","1287","Ladder","0","2018-01-12 17:52:27","159610"
"A1YXQDZYCKILTT","cs_wg_v9_real1","3LKC68YZ3A4L862HH2EDG8VJDHWOWA","4","0","DOORWAY","1","5","0","3928","doorway","1
1","2018-01-12 17:52:27","159611"
"A1KUW26JP1SB9","cs_wg_v9_real1","3KRVW3HTZNM41M0WKHPZRF3TC4LSMK","9","0","WEDDING","0","5","0","2059","Wedding","0","2018-01-12 17:52:28","159612"
"AFI6RY5VKOIMA","cs_wg_v9_real1","3TUI152ZZBOVSHZUZRHWCN0PW55Q1L","6","0","KEYBOARD","9","5","1","2778","keyboard","9","2018-01-12 17:52:29","159613"
"A3HHHZF9N10QMQ","cs_wg_v9_real1","3I0BTBYZAXM4UU5YUIUQB4KHQMH0YW","5","0","MACHINE","0","5","1","4634","machine","0","2018-01-12 17:52:31","159614"
"A1FMUT3U8CWI0X","cs_wg_v9_real1","337RC3OW0530NWZFE0TP2P8BB3PLVG","4","0","LADDER","10","5","1","2544","ladder","10","2018-01-12 17:52:31","159615"
"A2LZ0TBYJ91GYQ","cs_wg_v9_real1","3WYP994K17SZ85RDW7A7K5U83P2Y6U","5","0","STOMACH","9","5","0","1609","stomach","9","2018-01-12 17:52:32","159616"
"A2VGEE0ZIZ8CBQ","cs_wg_v9_real1","3DPNQGW4LLGJAYDT70M04GQ18O464I","3","0","STRUCTURE","10","5","1","2007","structure","10","2018-01-12 17:52:32","159617"
"A3696JXTRKL2FI","cs_wg_v9_real1","3UOUJI6MTDFVABR4NTM8HX1F45QXUP","16","0","BASKET","1","5","1","1129","basket","1","2018-01-12 17:52:34","159618"
"A2ZNSEG0BWKTLK","cs_wg_v9_real1","3QUO65DNQUP8G2DCM2ZCYKAMS1LOUB","1","0","BOOKSHELF","0","5","1","3370","Bookshelf","0","2018-01-12 17:52:34","159619"
"A97R988SLWMU8","cs_wg_v9_real1","34Q075JO1XE74OUVITNHXH97J1810Z","2","0","STOMACH","10","5","0","5219","stomach","5","2018-01-12 17:52:36","159620"
"A9BFBXFNK8GR1","cs_wg_v9_real1","3WMOAN2SRBYQBW20QD94FHC0GYPVNS","3","0","STRUCTURE","1","5","0","6039","structure","1","2018-01-12 17:52:36","159621"
"A3V4AW6DGWBHDO","cs_wg_v9_real1","33NF62TLXJ3GCVH3CB35K1K2RGDJKQ","12","0","KEYBOARD","0","5","1","3056","KEYBOARD","0","2018-01-12 17:52:36","159622"
"A1H47GTSBAPDTW","cs_wg_v9_real1","32AT8R96GLANEU55TJGLIPKNPQOSUC","2","0","COMMUNITY","10","5","1","2067","COMMUNITY","10","2018-01-12 17:52:36","159623"
"ASOALSPOWW0WY","cs_wg_v9_real1","34FNN24DCMA3P1RZRO02SZG87URY5E","0","0","BOOKSHELF","0","5","0","5059","Bookshelf","0","2018-01-12 17:52:40","159624"
"AFI6RY5VKOIMA","cs_wg_v9_real1","3TUI152ZZBOVSHZUZRHWCN0PW55Q1L","7","0","COMMUNITY","10","5","1","2403","community","10","2018-01-12 17:52:40","159625"
"A1KUW26JP1SB9","cs_wg_v9_real1","3KRVW3HTZNM41M0WKHPZRF3TC4LSMK","10","0","DOORWAY","1","5","1","4082","Doorway","1","2018-01-12 17:52:40","159626"
"A3696JXTRKL2FI","cs_wg_v9_real1","3UOUJI6MTDFVABR4NTM8HX1F45QXUP","17","0","TRAFFIC","10","5","1","737","Traffic","10","2018-01-12 17:52:40","159627"
"A1YXQDZYCKILTT","cs_wg_v9_real1","3LKC68YZ3A4L862HH2EDG8VJDHWOWA","5","0","FOOTBALL","1","5","0","2167","football","1","2018-01-12 17:52:40","159628"
"A1FMUT3U8CWI0X","cs_wg_v9_real1","337RC3OW0530NWZFE0TP2P8BB3PLVG","5","0","LADDER","10","5","0","1864","ladder","10","2018-01-12 17:52:41","159629"
"A2JRONMDBUJT3K","cs_wg_v9_real1","3WETL7AQWT929YUB237C25KVYTX35E","1","0","MACHINE","0","5","1","6665","machine","0","2018-01-12 17:52:41","159630"
"A3HHHZF9N10QMQ","cs_wg_v9_real1","3I0BTBYZAXM4UU5YUIUQB4KHQMH0YW","6","0","TRAFFIC","0","5","0","3019","traffic","0","2018-01-12 17:52:41","159631"
"A31YTICDM7ZMP6","cs_wg_v9_real1","3FE2ERCCZX9VOX5G5G0IOENNKKTOPF","5","0","WEDDING","9","5","0","1053","wedding","9","2018-01-12 17:52:42","159632"
"A2LZ0TBYJ91GYQ","cs_wg_v9_real1","3WYP994K17SZ85RDW7A7K5U83P2Y6U","6","0","COMMUNITY","10","5","0","1223","community","10","2018-01-12 17:52:42","159633"
"A2VGEE0ZIZ8CBQ","cs_wg_v9_real1","3DPNQGW4LLGJAYDT70M04GQ18O464I","4","0","LADDER","9","5","0","1906","ladder","9","2018-01-12 17:52:45","159634"
"A3696JXTRKL2FI","cs_wg_v9_real1","3UOUJI6MTDFVABR4NTM8HX1F45QXUP","18","0","DOORWAY","9","5","1","797","Doorway","9","2018-01-12 17:52:46","159635"
"A3V4AW6DGWBHDO","cs_wg_v9_real1","33NF62TLXJ3GCVH3CB35K1K2RGDJKQ","13","0","BASKET","1","5","1","3573","BASKET","1","2018-01-12 17:52:47","159636"
"A3DU63P4KYJHOO","cs_wg_v9_real1","3TPZPLC3M0D628CUMIGQ0BPCPTXP3L","11","0","KEYBOARD","0","5","0","26261","keyboard","5","2018-01-12 17:52:49","159637"
"AFI6RY5VKOIMA","cs_wg_v9_real1","3TUI152ZZBOVSHZUZRHWCN0PW55Q1L","8","0","MACHINE","10","5","0","1775","machine","10","2018-01-12 17:52:50","159638"
"A97R988SLWMU8","cs_wg_v9_real1","34Q075JO1XE74OUVITNHXH97J1810Z","3","0","STOMACH","10","5","0","2246","stomach","5","2018-01-12 17:52:50","159639"
"A1KUW26JP1SB9","cs_wg_v9_real1","3KRVW3HTZNM41M0WKHPZRF3TC4LSMK","11","0","STRUCTURE","1","5","0","1533","Structure","1","2018-01-12 17:52:50","159640"
"A1YXQDZYCKILTT","cs_wg_v9_real1","3LKC68YZ3A4L862HH2EDG8VJDHWOWA","6","0","TRAFFIC","9","5","1","1842","traffic","9","2018-01-12 17:52:52","159641"
"A2LZ0TBYJ91GYQ","cs_wg_v9_real1","3WYP994K17SZ85RDW7A7K5U83P2Y6U","7","0","HELICOPTER","0","5","0","1815","helicopter","0","2018-01-12 17:52:52","159642"
"A3696JXTRKL2FI","cs_wg_v9_real1","3UOUJI6MTDFVABR4NTM8HX1F45QXUP","19","0","STOMACH","10","5","1","738","Stomach","10","2018-01-12 17:52:54","159643"
"A1H47GTSBAPDTW","cs_wg_v9_real1","32AT8R96GLANEU55TJGLIPKNPQOSUC","3","0","COMMUNITY","10","5","0","2683","COMMUNTIY","10","2018-01-12 17:52:54","159644"
"A2ZNSEG0BWKTLK","cs_wg_v9_real1","3QUO65DNQUP8G2DCM2ZCYKAMS1LOUB","2","0","STOMACH","10","5","1","4163","Stomach","10","2018-01-12 17:52:55","159645"
"A1FMUT3U8CWI0X","cs_wg_v9_real1","337RC3OW0530NWZFE0TP2P8BB3PLVG","6","0","HELICOPTER","9","5","0","2497","helicopter","9","2018-01-12 17:52:56","159646"
"A3V4AW6DGWBHDO","cs_wg_v9_real1","33NF62TLXJ3GCVH3CB35K1K2RGDJKQ","14","0","KEYBOARD","0","5","1","1662","KEYBOARD","0","2018-01-12 17:52:56","159647"
"A3HHHZF9N10QMQ","cs_wg_v9_real1","3I0BTBYZAXM4UU5YUIUQB4KHQMH0YW","7","0","TRAFFIC","0","5","1","3531","traffic","0","2018-01-12 17:52:56","159648"
"A2JRONMDBUJT3K","cs_wg_v9_real1","3WETL7AQWT929YUB237C25KVYTX35E","2","0","STOMACH","0","5","0","5892","stomach","0","2018-01-12 17:52:56","159649"
"A3DU63P4KYJHOO","cs_wg_v9_real1","3TPZPLC3M0D628CUMIGQ0BPCPTXP3L","12","0","MACHINE","0","5","0","1868","machine","0","2018-01-12 17:52:57","159650"
"A2VGEE0ZIZ8CBQ","cs_wg_v9_real1","3DPNQGW4LLGJAYDT70M04GQ18O464I","5","0","COMMUNITY","0","5","0","1616","community","0","2018-01-12 17:52:58","159651"
"A31YTICDM7ZMP6","cs_wg_v9_real1","3FE2ERCCZX9VOX5G5G0IOENNKKTOPF","6","0","TRAFFIC","0","5","0","2073","traffic","0","2018-01-12 17:52:58","159652"
"ASOALSPOWW0WY","cs_wg_v9_real1","34FNN24DCMA3P1RZRO02SZG87URY5E","1","0","COMMUNITY","10","5","1","5157","Community","10","2018-01-12 17:52:59","159653"
"AFI6RY5VKOIMA","cs_wg_v9_real1","3TUI152ZZBOVSHZUZRHWCN0PW55Q1L","9","0","KEYBOARD","9","5","0","2582","keyboard","9","2018-01-12 17:53:01","159654"
"A3696JXTRKL2FI","cs_wg_v9_real1","3UOUJI6MTDFVABR4NTM8HX1F45QXUP","20","0","FOOTBALL","1","5","1","1710","Football","1","2018-01-12 17:53:02","159655"
"A9BFBXFNK8GR1","cs_wg_v9_real1","3WMOAN2SRBYQBW20QD94FHC0GYPVNS","4","0","BOOKSHELF","10","5","0","5732","bookshelf","10","2018-01-12 17:53:02","159656"
"A1KUW26JP1SB9","cs_wg_v9_real1","3KRVW3HTZNM41M0WKHPZRF3TC4LSMK","12","0","MACHINE","0","5","1","2346","Machine","0","2018-01-12 17:53:03","159657"
"A3DU63P4KYJHOO","cs_wg_v9_real1","3TPZPLC3M0D628CUMIGQ0BPCPTXP3L","13","0","HELICOPTER","0","5","0","1467","helicopter","0","2018-01-12 17:53:04","159658"
"A1YXQDZYCKILTT","cs_wg_v9_real1","3LKC68YZ3A4L862HH2EDG8VJDHWOWA","7","0","KEYBOARD","10","5","0","2100","keyboard","10","2018-01-12 17:53:05","159659"
"A2LZ0TBYJ91GYQ","cs_wg_v9_real1","3WYP994K17SZ85RDW7A7K5U83P2Y6U","8","0","WEDDING","0","5","0","1193","wedding","0","2018-01-12 17:53:05","159660"
"A3V4AW6DGWBHDO","cs_wg_v9_real1","33NF62TLXJ3GCVH3CB35K1K2RGDJKQ","15","0","FOOTBALL","0","5","0","3223","FOOTBALL","0","2018-01-12 17:53:06","159661"
"A1I2DW853I5VO2","cs_wg_v9_real1","32SCWG5HIH55ZRZC5KEO7E1WZKZP6R","0","0","MACHINE","0","5","1","5632","MACHINE","0","2018-01-12 17:53:07","159662"
"A1H47GTSBAPDTW","cs_wg_v9_real1","32AT8R96GLANEU55TJGLIPKNPQOSUC","4","0","BOOKSHELF","0","5","1","2949","BOOKSHELF","0","2018-01-12 17:53:09","159663"
"A2JRONMDBUJT3K","cs_wg_v9_real1","3WETL7AQWT929YUB237C25KVYTX35E","3","0","LADDER","1","5","0","1563","ladder","1","2018-01-12 17:53:10","159664"
"A2VGEE0ZIZ8CBQ","cs_wg_v9_real1","3DPNQGW4LLGJAYDT70M04GQ18O464I","6","0","HELICOPTER","1","5","0","1154","helicopter","1","2018-01-12 17:53:10","159665"
"A3DU63P4KYJHOO","cs_wg_v9_real1","3TPZPLC3M0D628CUMIGQ0BPCPTXP3L","14","0","UMBRELLA","1","5","0","780","umbrella","1","2018-01-12 17:53:11","159666"
"A3HHHZF9N10QMQ","cs_wg_v9_real1","3I0BTBYZAXM4UU5YUIUQB4KHQMH0YW","8","0","HELICOPTER","9","5","1","5251","helicopter","9","2018-01-12 17:53:11","159667"
"A97R988SLWMU8","cs_wg_v9_real1","34Q075JO1XE74OUVITNHXH97J1810Z","4","0","BASKET","1","5","1","3319","basket","5","2018-01-12 17:53:11","159668"
"A1FMUT3U8CWI0X","cs_wg_v9_real1","337RC3OW0530NWZFE0TP2P8BB3PLVG","7","0","BOOKSHELF","9","5","1","2447","bookshelf","9","2018-01-12 17:53:11","159669"
"A3696JXTRKL2FI","cs_wg_v9_real1","3UOUJI6MTDFVABR4NTM8HX1F45QXUP","21","0","BOOKSHELF","9","5","0","2879","Bookshelf","9","2018-01-12 17:53:11","159670"
"AFI6RY5VKOIMA","cs_wg_v9_real1","3TUI152ZZBOVSHZUZRHWCN0PW55Q1L","10","0","STOMACH","9","5","1","2857","stomach","9","2018-01-12 17:53:12","159671"
"ASOALSPOWW0WY","cs_wg_v9_real1","34FNN24DCMA3P1RZRO02SZG87URY5E","2","0","STRUCTURE","10","5","1","3110","Structure","10","2018-01-12 17:53:14","159672"
"A1KUW26JP1SB9","cs_wg_v9_real1","3KRVW3HTZNM41M0WKHPZRF3TC4LSMK","13","0","COMMUNITY","10","5","0","2410","Community","10","2018-01-12 17:53:14","159673"
"A3V4AW6DGWBHDO","cs_wg_v9_real1","33NF62TLXJ3GCVH3CB35K1K2RGDJKQ","16","0","MACHINE","9","5","0","1657","MACHINE","9","2018-01-12 17:53:14","159674"
"A1YXQDZYCKILTT","cs_wg_v9_real1","3LKC68YZ3A4L862HH2EDG8VJDHWOWA","8","0","COMMUNITY","10","5","1","2517","community ","10","2018-01-12 17:53:17","159675"
"A9BFBXFNK8GR1","cs_wg_v9_real1","3WMOAN2SRBYQBW20QD94FHC0GYPVNS","5","0","WEDDING","1","5","1","3982","wedding","1","2018-01-12 17:53:19","159676"
"A2LZ0TBYJ91GYQ","cs_wg_v9_real1","3WYP994K17SZ85RDW7A7K5U83P2Y6U","9","0","COMMUNITY","10","5","0","4228","community","10","2018-01-12 17:53:19","159677"
"A2ZNSEG0BWKTLK","cs_wg_v9_real1","3QUO65DNQUP8G2DCM2ZCYKAMS1LOUB","3","0","LADDER","9","5","0","5372","Ladder","9","2018-01-12 17:53:20","159678"
"A3696JXTRKL2FI","cs_wg_v9_real1","3UOUJI6MTDFVABR4NTM8HX1F45QXUP","22","0","FOOTBALL","1","5","1","2612","Football","1","2018-01-12 17:53:21","159679"
"A3DU63P4KYJHOO","cs_wg_v9_real1","3TPZPLC3M0D628CUMIGQ0BPCPTXP3L","15","0","COMMUNITY","9","5","0","3845","community","9","2018-01-12 17:53:22","159680"
"A2VGEE0ZIZ8CBQ","cs_wg_v9_real1","3DPNQGW4LLGJAYDT70M04GQ18O464I","7","0","UMBRELLA","1","5","1","1645","umbrella","1","2018-01-12 17:53:22","159681"
"A3HHHZF9N10QMQ","cs_wg_v9_real1","3I0BTBYZAXM4UU5YUIUQB4KHQMH0YW","9","0","WEDDING","10","5","0","1979","wedding","10","2018-01-12 17:53:22","159682"
"A2JRONMDBUJT3K","cs_wg_v9_real1","3WETL7AQWT929YUB237C25KVYTX35E","4","0","TRAFFIC","10","5","0","2640","traffic","10","2018-01-12 17:53:22","159683"
"ALU6NGKRSTQHW","cs_wg_v9_real1","3TR2532VIPV9DGWEA794AIFKQLU6J9","0","0","BOOKSHELF","10","5","0","4070","bookshelf","10","2018-01-12 17:53:22","159684"
"A3V4AW6DGWBHDO","cs_wg_v9_real1","33NF62TLXJ3GCVH3CB35K1K2RGDJKQ","17","0","LADDER","10","5","1","1868","LADDER","10","2018-01-12 17:53:23","159685"
"A97R988SLWMU8","cs_wg_v9_real1","34Q075JO1XE74OUVITNHXH97J1810Z","5","0","STOMACH","10","5","0","2271","stomach","5","2018-01-12 17:53:24","159686"
"A31YTICDM7ZMP6","cs_wg_v9_real1","3FE2ERCCZX9VOX5G5G0IOENNKKTOPF","7","0","TRAFFIC","0","5","1","7390","traffic","0","2018-01-12 17:53:24","159687"
"AFI6RY5VKOIMA","cs_wg_v9_real1","3TUI152ZZBOVSHZUZRHWCN0PW55Q1L","11","0","LADDER","1","5","1","1958","ladder","5","2018-01-12 17:53:24","159688"
"A1H47GTSBAPDTW","cs_wg_v9_real1","32AT8R96GLANEU55TJGLIPKNPQOSUC","5","0","WEDDING","10","5","0","3723","WEDDING","10","2018-01-12 17:53:25","159689"
"A23Y6SGE73H4IW","cs_wg_v9_real1","3NVC2EB65Q00BM4VD5C9D2IOTY0Y3O","0","0","DOORWAY","0","5","1","5176",,"5","2018-01-12 17:53:26","159690"
"A1KUW26JP1SB9","cs_wg_v9_real1","3KRVW3HTZNM41M0WKHPZRF3TC4LSMK","14","0","UMBRELLA","10","5","1","4390","Umbrella","10","2018-01-12 17:53:28","159691"
"A3DU63P4KYJHOO","cs_wg_v9_real1","3TPZPLC3M0D628CUMIGQ0BPCPTXP3L","16","0","STOMACH","10","5","0","1072","stomach","10","2018-01-12 17:53:28","159692"
"A1I2DW853I5VO2","cs_wg_v9_real1","32SCWG5HIH55ZRZC5KEO7E1WZKZP6R","1","0","COMMUNITY","1","5","0","3803","COMMUNITY","1","2018-01-12 17:53:30","159693"
"A3696JXTRKL2FI","cs_wg_v9_real1","3UOUJI6MTDFVABR4NTM8HX1F45QXUP","23","0","KEYBOARD","10","5","1","2694","Keyboard","10","2018-01-12 17:53:30","159694"
"A2LZ0TBYJ91GYQ","cs_wg_v9_real1","3WYP994K17SZ85RDW7A7K5U83P2Y6U","10","0","KEYBOARD","1","5","1","3240","keyboard","1","2018-01-12 17:53:31","159695"
"A1FMUT3U8CWI0X","cs_wg_v9_real1","337RC3OW0530NWZFE0TP2P8BB3PLVG","8","0","TRAFFIC","10","5","0","1665","traffic","10","2018-01-12 17:53:31","159696"
"A1YXQDZYCKILTT","cs_wg_v9_real1","3LKC68YZ3A4L862HH2EDG8VJDHWOWA","9","0","FOOTBALL","1","5","1","2972","football","1
1","2018-01-12 17:53:32","159697"
"A3HHHZF9N10QMQ","cs_wg_v9_real1","3I0BTBYZAXM4UU5YUIUQB4KHQMH0YW","10","0","COMMUNITY","10","5","0","1700","community","10","2018-01-12 17:53:32","159698"
"A2PXJTMWGUE5DC","cs_wg_v9_real1","3IFS6Q0HJIKI53A5Z2R7ZMWCVV1SI4","0","0","FOOTBALL","10","5","1","7000","football","10","2018-01-12 17:53:32","159699"
"A2ZNSEG0BWKTLK","cs_wg_v9_real1","3QUO65DNQUP8G2DCM2ZCYKAMS1LOUB","4","0","BASKET","0","5","1","3125","Basket","0","2018-01-12 17:53:32","159700"
"ASOALSPOWW0WY","cs_wg_v9_real1","34FNN24DCMA3P1RZRO02SZG87URY5E","3","0","WEDDING","1","5","0","5702","Wedding","1","2018-01-12 17:53:32","159701"
"A3V4AW6DGWBHDO","cs_wg_v9_real1","33NF62TLXJ3GCVH3CB35K1K2RGDJKQ","18","0","FOOTBALL","0","5","1","1758","FOOTBALL","0","2018-01-12 17:53:33","159702"
"AFI6RY5VKOIMA","cs_wg_v9_real1","3TUI152ZZBOVSHZUZRHWCN0PW55Q1L","12","0","DOORWAY","1","5","1","2378","doorway","1","2018-01-12 17:53:35","159703"
"A3DU63P4KYJHOO","cs_wg_v9_real1","3TPZPLC3M0D628CUMIGQ0BPCPTXP3L","17","0","WEDDING","9","5","0","815","wedding","9","2018-01-12 17:53:35","159704"
"ALU6NGKRSTQHW","cs_wg_v9_real1","3TR2532VIPV9DGWEA794AIFKQLU6J9","1","0","DOORWAY","0","5","0","2693","doorway","0","2018-01-12 17:53:36","159705"
"A18DUG8EA8Y766","cs_wg_v9_real1","31N2WW6R9RRUBVN08FKLOHB8NNB3FX","0","0","KEYBOARD","10","5","0","16262","Keyword","10","2018-01-12 17:53:37","159706"
"A1KUW26JP1SB9","cs_wg_v9_real1","3KRVW3HTZNM41M0WKHPZRF3TC4LSMK","15","0","BOOKSHELF","1","5","1","2577","Bookshelf","1","2018-01-12 17:53:39","159707"
"A33KB8LHYO0HI9","cs_wg_v9_real1","31HQ4X3T3SBKV4IBK5OKR2O4CZVLSB","0","0","WEDDING","1","5","0","4649","wedding","1","2018-01-12 17:53:39","159708"
"A3696JXTRKL2FI","cs_wg_v9_real1","3UOUJI6MTDFVABR4NTM8HX1F45QXUP","24","0","FOOTBALL","1","5","0","2275","Football","1","2018-01-12 17:53:39","159709"
"A2LZ0TBYJ91GYQ","cs_wg_v9_real1","3WYP994K17SZ85RDW7A7K5U83P2Y6U","11","0","KEYBOARD","1","5","1","1680","keyboard","1","2018-01-12 17:53:41","159710"
"A2VGEE0ZIZ8CBQ","cs_wg_v9_real1","3DPNQGW4LLGJAYDT70M04GQ18O464I","8","0","HELICOPTER","1","5","1","6006","helicopter","1","2018-01-12 17:53:41","159711"
"A31YTICDM7ZMP6","cs_wg_v9_real1","3FE2ERCCZX9VOX5G5G0IOENNKKTOPF","8","0","FOOTBALL","10","5","0","6989","football","10","2018-01-12 17:53:42","159712"
"A1H47GTSBAPDTW","cs_wg_v9_real1","32AT8R96GLANEU55TJGLIPKNPQOSUC","6","0","STOMACH","9","5","1","1718","STOMACH","9","2018-01-12 17:53:42","159713"
"A3HHHZF9N10QMQ","cs_wg_v9_real1","3I0BTBYZAXM4UU5YUIUQB4KHQMH0YW","11","0","STOMACH","0","5","0","2300","stomach","0","2018-01-12 17:53:42","159714"
"A3DU63P4KYJHOO","cs_wg_v9_real1","3TPZPLC3M0D628CUMIGQ0BPCPTXP3L","18","0","FOOTBALL","10","5","1","1424","football","10","2018-01-12 17:53:42","159715"
"A3V4AW6DGWBHDO","cs_wg_v9_real1","33NF62TLXJ3GCVH3CB35K1K2RGDJKQ","19","0","DOORWAY","10","5","0","3005","DOORWAY","10","2018-01-12 17:53:44","159716"
"A1FMUT3U8CWI0X","cs_wg_v9_real1","337RC3OW0530NWZFE0TP2P8BB3PLVG","9","0","DOORWAY","0","5","0","2192","doorway","0","2018-01-12 17:53:44","159717"
"A2ZNSEG0BWKTLK","cs_wg_v9_real1","3QUO65DNQUP8G2DCM2ZCYKAMS1LOUB","5","0","TRAFFIC","0","5","0","2949","Traffic","0","2018-01-12 17:53:45","159718"
"A3696JXTRKL2FI","cs_wg_v9_real1","3UOUJI6MTDFVABR4NTM8HX1F45QXUP","25","0","KEYBOARD","10","5","0","1655","Keyboard","10","2018-01-12 17:53:46","159719"
"A1YXQDZYCKILTT","cs_wg_v9_real1","3LKC68YZ3A4L862HH2EDG8VJDHWOWA","10","0","DOORWAY","1","5","1","2370","doorway","1","2018-01-12 17:53:46","159720"
"A1KUW26JP1SB9","cs_wg_v9_real1","3KRVW3HTZNM41M0WKHPZRF3TC4LSMK","16","0","BASKET","9","5","1","2322","Basket","9","2018-01-12 17:53:48","159721"
"A3DU63P4KYJHOO","cs_wg_v9_real1","3TPZPLC3M0D628CUMIGQ0BPCPTXP3L","19","0","KEYBOARD","0","5","1","1022","keyboard","0","2018-01-12 17:53:49","159722"
"A23Y6SGE73H4IW","cs_wg_v9_real1","3NVC2EB65Q00BM4VD5C9D2IOTY0Y3O","1","0","BOOKSHELF","1","5","0","4269","bookshelf","1","2018-01-12 17:53:50","159723"
"A278Q2BHCINITH","cs_wg_v9_real1","34BBWHLWHACBCKREJ718WBZX18XWIN","0","0","LADDER","0","5","0","6031","LADDER","0","2018-01-12 17:53:50","159724"
"ASOALSPOWW0WY","cs_wg_v9_real1","34FNN24DCMA3P1RZRO02SZG87URY5E","4","0","KEYBOARD","9","5","1","4648","Keyboard","9","2018-01-12 17:53:50","159725"
"A1I2DW853I5VO2","cs_wg_v9_real1","32SCWG5HIH55ZRZC5KEO7E1WZKZP6R","2","0","STRUCTURE","10","5","1","3974","STRUCTURE","10","2018-01-12 17:53:51","159726"
"A2PXJTMWGUE5DC","cs_wg_v9_real1","3IFS6Q0HJIKI53A5Z2R7ZMWCVV1SI4","1","0","BOOKSHELF","1","5","1","6817","bookshelf","1","2018-01-12 17:53:52","159727"
"A3V4AW6DGWBHDO","cs_wg_v9_real1","33NF62TLXJ3GCVH3CB35K1K2RGDJKQ","20","0","WEDDING","0","5","0","1470","WEDDING","0","2018-01-12 17:53:53","159728"
"A3696JXTRKL2FI","cs_wg_v9_real1","3UOUJI6MTDFVABR4NTM8HX1F45QXUP","26","0","LADDER","0","5","1","1040","Ladder","0","2018-01-12 17:53:53","159729"
"A1FMUT3U8CWI0X","cs_wg_v9_real1","337RC3OW0530NWZFE0TP2P8BB3PLVG","10","0","STOMACH","10","5","0","1439","stomach","10","2018-01-12 17:53:53","159730"
"A3HHHZF9N10QMQ","cs_wg_v9_real1","3I0BTBYZAXM4UU5YUIUQB4KHQMH0YW","12","0","DOORWAY","9","5","0","2851","doorway","9","2018-01-12 17:53:54","159731"
"A2VGEE0ZIZ8CBQ","cs_wg_v9_real1","3DPNQGW4LLGJAYDT70M04GQ18O464I","9","0","BASKET","10","5","0","1712","basket","10","2018-01-12 17:53:54","159732"
"ALU6NGKRSTQHW","cs_wg_v9_real1","3TR2532VIPV9DGWEA794AIFKQLU6J9","2","0","MACHINE","0","5","0","2962","machine","0","2018-01-12 17:53:54","159733"
"A3DU63P4KYJHOO","cs_wg_v9_real1","3TPZPLC3M0D628CUMIGQ0BPCPTXP3L","20","0","COMMUNITY","9","5","0","820","community","9","2018-01-12 17:53:56","159734"
"A1JKSAQ8UNCE7B","cs_wg_v9_real1","3YWRV122CS05VAQWFLAG1YKMDWI8UT","0","0","COMMUNITY","1","5","1","3881","community","1","2018-01-12 17:53:56","159735"
"A2LZ0TBYJ91GYQ","cs_wg_v9_real1","3WYP994K17SZ85RDW7A7K5U83P2Y6U","12","0","KEYBOARD","1","5","1","1955","keyboard","1","2018-01-12 17:53:57","159736"
"A18DUG8EA8Y766","cs_wg_v9_real1","31N2WW6R9RRUBVN08FKLOHB8NNB3FX","1","0","STOMACH","10","5","0","9601","stomach","10","2018-01-12 17:53:58","159737"
"A2ZNSEG0BWKTLK","cs_wg_v9_real1","3QUO65DNQUP8G2DCM2ZCYKAMS1LOUB","6","0","TRAFFIC","0","5","1","3391","traffic","0","2018-01-12 17:53:58","159738"
"A1YXQDZYCKILTT","cs_wg_v9_real1","3LKC68YZ3A4L862HH2EDG8VJDHWOWA","11","0","LADDER","0","5","0","2840","ladder","0","2018-01-12 17:53:58","159739"
"A1H47GTSBAPDTW","cs_wg_v9_real1","32AT8R96GLANEU55TJGLIPKNPQOSUC","7","0","FOOTBALL","9","5","1","1600","FOOTBALL","9
9","2018-01-12 17:53:59","159740"
"A33KB8LHYO0HI9","cs_wg_v9_real1","31HQ4X3T3SBKV4IBK5OKR2O4CZVLSB","1","0","STRUCTURE","10","5","0","3222","structure","10","2018-01-12 17:54:00","159741"
"A3696JXTRKL2FI","cs_wg_v9_real1","3UOUJI6MTDFVABR4NTM8HX1F45QXUP","27","0","STOMACH","10","5","0","1246","Stomach","10","2018-01-12 17:54:00","159742"
"A2JRONMDBUJT3K","cs_wg_v9_real1","3WETL7AQWT929YUB237C25KVYTX35E","5","0","LADDER","1","5","1","4483","ladder","1","2018-01-12 17:54:00","159743"
"A1KUW26JP1SB9","cs_wg_v9_real1","3KRVW3HTZNM41M0WKHPZRF3TC4LSMK","17","0","STRUCTURE","1","5","0","4699","Structure","1","2018-01-12 17:54:01","159744"
"A31YTICDM7ZMP6","cs_wg_v9_real1","3FE2ERCCZX9VOX5G5G0IOENNKKTOPF","9","0","STOMACH","10","5","0","2310","stomach","10","2018-01-12 17:54:01","159745"
"A9BFBXFNK8GR1","cs_wg_v9_real1","3WMOAN2SRBYQBW20QD94FHC0GYPVNS","6","0","LADDER","0","5","1","5351","ladder","1","2018-01-12 17:54:01","159746"
"A97R988SLWMU8","cs_wg_v9_real1","34Q075JO1XE74OUVITNHXH97J1810Z","6","0","BOOKSHELF","10","5","1","8081","bookshelf","10","2018-01-12 17:54:02","159747"
"A3V4AW6DGWBHDO","cs_wg_v9_real1","33NF62TLXJ3GCVH3CB35K1K2RGDJKQ","21","0","LADDER","10","5","0","1765","LADDER","10","2018-01-12 17:54:02","159748"
"A3DU63P4KYJHOO","cs_wg_v9_real1","3TPZPLC3M0D628CUMIGQ0BPCPTXP3L","21","0","COMMUNITY","9","5","0","596","community","9","2018-01-12 17:54:02","159749"
"A1FMUT3U8CWI0X","cs_wg_v9_real1","337RC3OW0530NWZFE0TP2P8BB3PLVG","11","0","LADDER","10","5","0","1695","ladder","10","2018-01-12 17:54:02","159750"
"A3HHHZF9N10QMQ","cs_wg_v9_real1","3I0BTBYZAXM4UU5YUIUQB4KHQMH0YW","13","0","FOOTBALL","0","5","0","1267","football","0","2018-01-12 17:54:04","159751"
"ASOALSPOWW0WY","cs_wg_v9_real1","34FNN24DCMA3P1RZRO02SZG87URY5E","5","0","DOORWAY","1","5","0","4340","Doorway","1","2018-01-12 17:54:04","159752"
"A2Z2OV7QGU10QN","cs_wg_v9_real1","3YHH42UU5BGKUVYZB350HWILH7D0L4","0","0","FOOTBALL","0","5","1","7773","Football","0","2018-01-12 17:54:06","159753"
"A3DU63P4KYJHOO","cs_wg_v9_real1","3TPZPLC3M0D628CUMIGQ0BPCPTXP3L","22","0","WEDDING","9","5","0","743","wedding","9","2018-01-12 17:54:07","159754"
"A3696JXTRKL2FI","cs_wg_v9_real1","3UOUJI6MTDFVABR4NTM8HX1F45QXUP","28","0","DOORWAY","9","5","1","1750","Doorway","9","2018-01-12 17:54:08","159755"
"A23Y6SGE73H4IW","cs_wg_v9_real1","3NVC2EB65Q00BM4VD5C9D2IOTY0Y3O","2","0","BOOKSHELF","1","5","1","4812","bookshelf","1","2018-01-12 17:54:08","159756"
"A2VGEE0ZIZ8CBQ","cs_wg_v9_real1","3DPNQGW4LLGJAYDT70M04GQ18O464I","10","0","BOOKSHELF","0","5","0","1715","bookshelf","0","2018-01-12 17:54:09","159757"
"A2PXJTMWGUE5DC","cs_wg_v9_real1","3IFS6Q0HJIKI53A5Z2R7ZMWCVV1SI4","2","0","HELICOPTER","0","5","1","3353","helicopter","0","2018-01-12 17:54:09","159758"
"A1KUW26JP1SB9","cs_wg_v9_real1","3KRVW3HTZNM41M0WKHPZRF3TC4LSMK","18","0","HELICOPTER","9","5","0","1215","Helicopter","9","2018-01-12 17:54:10","159759"
"ALU6NGKRSTQHW","cs_wg_v9_real1","3TR2532VIPV9DGWEA794AIFKQLU6J9","3","0","BASKET","9","5","0","3460","Basket","9","2018-01-12 17:54:10","159760"
"A2ZNSEG0BWKTLK","cs_wg_v9_real1","3QUO65DNQUP8G2DCM2ZCYKAMS1LOUB","7","0","COMMUNITY","1","5","0","2460","community","1","2018-01-12 17:54:10","159761"
"A1JKSAQ8UNCE7B","cs_wg_v9_real1","3YWRV122CS05VAQWFLAG1YKMDWI8UT","1","0","STOMACH","10","5","1","3882","stomach ","10 ","2018-01-12 17:54:11","159762"
"A2LZ0TBYJ91GYQ","cs_wg_v9_real1","3WYP994K17SZ85RDW7A7K5U83P2Y6U","13","0","MACHINE","10","5","1","4301","machine","10","2018-01-12 17:54:12","159763"
"AQ4PZ6W8NIDH3","cs_wg_v9_real1","386PBUZZXFYRW1ZLXBF6Z1XHGGIJLT","0","0","LADDER","1","5","1","3959","ladder","1","2018-01-12 17:54:12","159764"
"A1I2DW853I5VO2","cs_wg_v9_real1","32SCWG5HIH55ZRZC5KEO7E1WZKZP6R","3","0","DOORWAY","1","5","0","7083","DOORWAY","1","2018-01-12 17:54:13","159765"
"A3V4AW6DGWBHDO","cs_wg_v9_real1","33NF62TLXJ3GCVH3CB35K1K2RGDJKQ","22","0","BOOKSHELF","9","5","1","2821","BOOKSHELF","9","2018-01-12 17:54:13","159766"
"A1YXQDZYCKILTT","cs_wg_v9_real1","3LKC68YZ3A4L862HH2EDG8VJDHWOWA","12","0","STRUCTURE","10","5","0","4209","structure","10","2018-01-12 17:54:13","159767"
"A3HHHZF9N10QMQ","cs_wg_v9_real1","3I0BTBYZAXM4UU5YUIUQB4KHQMH0YW","14","0","FOOTBALL","0","5","1","1715","football","0","2018-01-12 17:54:13","159768"
"A2JRONMDBUJT3K","cs_wg_v9_real1","3WETL7AQWT929YUB237C25KVYTX35E","6","0","TRAFFIC","10","5","0","4858","traffic","10","2018-01-12 17:54:14","159769"
"A278Q2BHCINITH","cs_wg_v9_real1","34BBWHLWHACBCKREJ718WBZX18XWIN","1","0","DOORWAY","1","5","0","6871","DOORWAY","1","2018-01-12 17:54:15","159770"
"A1FMUT3U8CWI0X","cs_wg_v9_real1","337RC3OW0530NWZFE0TP2P8BB3PLVG","12","0","STOMACH","10","5","1","1553","stomach","10","2018-01-12 17:54:15","159771"
"A1H47GTSBAPDTW","cs_wg_v9_real1","32AT8R96GLANEU55TJGLIPKNPQOSUC","8","0","STOMACH","9","5","0","6828","STOMACH","9","2018-01-12 17:54:15","159772"
"A3696JXTRKL2FI","cs_wg_v9_real1","3UOUJI6MTDFVABR4NTM8HX1F45QXUP","29","0","STRUCTURE","0","5","1","1121","Structure","0","2018-01-12 17:54:15","159773"
"A3DU63P4KYJHOO","cs_wg_v9_real1","3TPZPLC3M0D628CUMIGQ0BPCPTXP3L","23","0","BASKET","1","5","0","2463","basket","1","2018-01-12 17:54:16","159774"
"A31YTICDM7ZMP6","cs_wg_v9_real1","3FE2ERCCZX9VOX5G5G0IOENNKKTOPF","10","0","UMBRELLA","1","5","1","3638","umbrell","1","2018-01-12 17:54:18","159775"
"A97R988SLWMU8","cs_wg_v9_real1","34Q075JO1XE74OUVITNHXH97J1810Z","7","0","STOMACH","10","5","0","2961","stomach","10","2018-01-12 17:54:18","159776"
"ASOALSPOWW0WY","cs_wg_v9_real1","34FNN24DCMA3P1RZRO02SZG87URY5E","6","0","DOORWAY","1","5","1","3640","Doorway","1","2018-01-12 17:54:19","159777"
"A1KUW26JP1SB9","cs_wg_v9_real1","3KRVW3HTZNM41M0WKHPZRF3TC4LSMK","19","0","BOOKSHELF","1","5","1","2238","Bookshelf","1","2018-01-12 17:54:20","159778"
"A2VGEE0ZIZ8CBQ","cs_wg_v9_real1","3DPNQGW4LLGJAYDT70M04GQ18O464I","11","0","UMBRELLA","1","5","1","2351","umbrella","1","2018-01-12 17:54:21","159779"
"A3V4AW6DGWBHDO","cs_wg_v9_real1","33NF62TLXJ3GCVH3CB35K1K2RGDJKQ","23","0","STRUCTURE","1","5","1","1876","STRUCTURE","1","2018-01-12 17:54:22","159780"
"AFI6RY5VKOIMA","cs_wg_v9_real1","3TUI152ZZBOVSHZUZRHWCN0PW55Q1L","13","0","UMBRELLA","1","5","0","38046","umbrella","1","2018-01-12 17:54:22","159781"
"A3DU63P4KYJHOO","cs_wg_v9_real1","3TPZPLC3M0D628CUMIGQ0BPCPTXP3L","24","0","TRAFFIC","9","5","1","871","traffic","9","2018-01-12 17:54:22","159782"
"A23Y6SGE73H4IW","cs_wg_v9_real1","3NVC2EB65Q00BM4VD5C9D2IOTY0Y3O","3","0","MACHINE","0","5","0","4500","machine","0","2018-01-12 17:54:23","159783"
"A3HHHZF9N10QMQ","cs_wg_v9_real1","3I0BTBYZAXM4UU5YUIUQB4KHQMH0YW","15","0","WEDDING","10","5","0","2547","wedding","10","2018-01-12 17:54:23","159784"
"A9BFBXFNK8GR1","cs_wg_v9_real1","3WMOAN2SRBYQBW20QD94FHC0GYPVNS","7","0","STOMACH","10","5","0","4880","stomach","10","2018-01-12 17:54:23","159785"
"A3696JXTRKL2FI","cs_wg_v9_real1","3UOUJI6MTDFVABR4NTM8HX1F45QXUP","30","0","MACHINE","1","5","1","2152","Machine","1","2018-01-12 17:54:24","159786"
"A1JKSAQ8UNCE7B","cs_wg_v9_real1","3YWRV122CS05VAQWFLAG1YKMDWI8UT","2","0","UMBRELLA","0","5","0","2870","umbrella ","0","2018-01-12 17:54:25","159787"
"A2PXJTMWGUE5DC","cs_wg_v9_real1","3IFS6Q0HJIKI53A5Z2R7ZMWCVV1SI4","3","0","KEYBOARD","10","5","1","3840","keyboard ","10","2018-01-12 17:54:25","159788"
"A1FMUT3U8CWI0X","cs_wg_v9_real1","337RC3OW0530NWZFE0TP2P8BB3PLVG","13","0","BOOKSHELF","9","5","0","2418","bookshelf","9","2018-01-12 17:54:25","159789"
"A2JRONMDBUJT3K","cs_wg_v9_real1","3WETL7AQWT929YUB237C25KVYTX35E","7","0","LADDER","1","5","1","3691","ladder","1","2018-01-12 17:54:25","159790"
"ALU6NGKRSTQHW","cs_wg_v9_real1","3TR2532VIPV9DGWEA794AIFKQLU6J9","4","0","LADDER","10","5","0","3654","ladder","10","2018-01-12 17:54:26","159791"
"A1YXQDZYCKILTT","cs_wg_v9_real1","3LKC68YZ3A4L862HH2EDG8VJDHWOWA","13","0","UMBRELLA","10","5","1","2134","umbrella","10","2018-01-12 17:54:26","159792"
"AQ4PZ6W8NIDH3","cs_wg_v9_real1","386PBUZZXFYRW1ZLXBF6Z1XHGGIJLT","1","0","WEDDING","1","5","1","6193","wedding","1","2018-01-12 17:54:27","159793"
"A2ZNSEG0BWKTLK","cs_wg_v9_real1","3QUO65DNQUP8G2DCM2ZCYKAMS1LOUB","8","0","LADDER","9","5","0","6028","ladder","9","2018-01-12 17:54:27","159794"
"A1H47GTSBAPDTW","cs_wg_v9_real1","32AT8R96GLANEU55TJGLIPKNPQOSUC","9","0","DOORWAY","1","5","1","1449","DOORWAY","1","2018-01-12 17:54:27","159795"
"A2Z2OV7QGU10QN","cs_wg_v9_real1","3YHH42UU5BGKUVYZB350HWILH7D0L4","1","0","WEDDING","1","5","1","4715","Wedding","1","2018-01-12 17:54:29","159796"
"A3DU63P4KYJHOO","cs_wg_v9_real1","3TPZPLC3M0D628CUMIGQ0BPCPTXP3L","25","0","LADDER","10","5","0","761","ladder","10","2018-01-12 17:54:29","159797"
"A1KUW26JP1SB9","cs_wg_v9_real1","3KRVW3HTZNM41M0WKHPZRF3TC4LSMK","20","0","DOORWAY","1","5","1","2145","Doorway","1","2018-01-12 17:54:31","159798"
"A3696JXTRKL2FI","cs_wg_v9_real1","3UOUJI6MTDFVABR4NTM8HX1F45QXUP","31","0","LADDER","0","5","0","1508","Ladder","0","2018-01-12 17:54:31","159799"
"A3V4AW6DGWBHDO","cs_wg_v9_real1","33NF62TLXJ3GCVH3CB35K1K2RGDJKQ","24","0","UMBRELLA","1","5","0","1692","UMBRELLA","1","2018-01-12 17:54:32","159800"
"AFI6RY5VKOIMA","cs_wg_v9_real1","3TUI152ZZBOVSHZUZRHWCN0PW55Q1L","14","0","TRAFFIC","0","5","1","1536","traffic","0","2018-01-12 17:54:32","159801"
"A23Y6SGE73H4IW","cs_wg_v9_real1","3NVC2EB65Q00BM4VD5C9D2IOTY0Y3O","4","0","MACHINE","0","5","1","1872","machine","0","2018-01-12 17:54:32","159802"
"A97R988SLWMU8","cs_wg_v9_real1","34Q075JO1XE74OUVITNHXH97J1810Z","8","0","FOOTBALL","1","5","0","5069","football","1","2018-01-12 17:54:33","159803"
"A1I2DW853I5VO2","cs_wg_v9_real1","32SCWG5HIH55ZRZC5KEO7E1WZKZP6R","4","0","FOOTBALL","10","5","1","3484","FOOTBALL","10","2018-01-12 17:54:33","159804"
"A2JRONMDBUJT3K","cs_wg_v9_real1","3WETL7AQWT929YUB237C25KVYTX35E","8","0","STOMACH","0","5","1","2251","stomach","0","2018-01-12 17:54:34","159805"
"ASOALSPOWW0WY","cs_wg_v9_real1","34FNN24DCMA3P1RZRO02SZG87URY5E","7","0","STRUCTURE","10","5","0","4643","Structure","10","2018-01-12 17:54:34","159806"
"A9BFBXFNK8GR1","cs_wg_v9_real1","3WMOAN2SRBYQBW20QD94FHC0GYPVNS","8","0","WEDDING","1","5","1","2838","wedding","1","2018-01-12 17:54:36","159807"
"A31YTICDM7ZMP6","cs_wg_v9_real1","3FE2ERCCZX9VOX5G5G0IOENNKKTOPF","11","0","KEYBOARD","0","5","0","3327","keyboard","0","2018-01-12 17:54:36","159808"
"A3DU63P4KYJHOO","cs_wg_v9_real1","3TPZPLC3M0D628CUMIGQ0BPCPTXP3L","26","0","MACHINE","0","5","0","1140","machine","0
","2018-01-12 17:54:36","159809"
"A18DUG8EA8Y766","cs_wg_v9_real1","31N2WW6R9RRUBVN08FKLOHB8NNB3FX","2","0","STRUCTURE","1","5","1","8083","structure ","1","2018-01-12 17:54:36","159810"
"A278Q2BHCINITH","cs_wg_v9_real1","34BBWHLWHACBCKREJ718WBZX18XWIN","2","0","STOMACH","1","5","1","7577","STOMACH","1","2018-01-12 17:54:37","159811"
"A3HHHZF9N10QMQ","cs_wg_v9_real1","3I0BTBYZAXM4UU5YUIUQB4KHQMH0YW","16","0","KEYBOARD","1","5","0","1545","keyboard","1","2018-01-12 17:54:37","159812"
"A1FMUT3U8CWI0X","cs_wg_v9_real1","337RC3OW0530NWZFE0TP2P8BB3PLVG","14","0","WEDDING","9","5","0","1420","wedding","9","2018-01-12 17:54:38","159813"
"A1YXQDZYCKILTT","cs_wg_v9_real1","3LKC68YZ3A4L862HH2EDG8VJDHWOWA","14","0","FOOTBALL","1","5","1","2775","football","1","2018-01-12 17:54:38","159814"
"A3696JXTRKL2FI","cs_wg_v9_real1","3UOUJI6MTDFVABR4NTM8HX1F45QXUP","32","0","TRAFFIC","10","5","0","1158","Traffic","10","2018-01-12 17:54:38","159815"
"A2ZNSEG0BWKTLK","cs_wg_v9_real1","3QUO65DNQUP8G2DCM2ZCYKAMS1LOUB","9","0","BASKET","0","5","1","2773","basket","0","2018-01-12 17:54:39","159816"
"A1JKSAQ8UNCE7B","cs_wg_v9_real1","3YWRV122CS05VAQWFLAG1YKMDWI8UT","3","0","BASKET","9","5","1","3700","basket","9","2018-01-12 17:54:39","159817"
"AQ4PZ6W8NIDH3","cs_wg_v9_real1","386PBUZZXFYRW1ZLXBF6Z1XHGGIJLT","2","0","WEDDING","1","5","1","3986","wedding","1","2018-01-12 17:54:39","159818"
"A1H47GTSBAPDTW","cs_wg_v9_real1","32AT8R96GLANEU55TJGLIPKNPQOSUC","10","0","FOOTBALL","9","5","0","3637","FOOTBALL","9","2018-01-12 17:54:40","159819"
"A2VGEE0ZIZ8CBQ","cs_wg_v9_real1","3DPNQGW4LLGJAYDT70M04GQ18O464I","12","0","KEYBOARD","10","5","0","2237","keyboard","10","2018-01-12 17:54:41","159820"
"ALU6NGKRSTQHW","cs_wg_v9_real1","3TR2532VIPV9DGWEA794AIFKQLU6J9","5","0","STRUCTURE","9","5","0","3146","structure","9","2018-01-12 17:54:41","159821"
"A33KB8LHYO0HI9","cs_wg_v9_real1","31HQ4X3T3SBKV4IBK5OKR2O4CZVLSB","2","0","WEDDING","1","5","1","5315","wedding","1","2018-01-12 17:54:41","159822"
"A1KUW26JP1SB9","cs_wg_v9_real1","3KRVW3HTZNM41M0WKHPZRF3TC4LSMK","21","0","WEDDING","0","5","1","2195","Wedding","0","2018-01-12 17:54:42","159823"
"A3DU63P4KYJHOO","cs_wg_v9_real1","3TPZPLC3M0D628CUMIGQ0BPCPTXP3L","27","0","BOOKSHELF","0","5","0","666","bookshelf","0","2018-01-12 17:54:42","159824"
"A23Y6SGE73H4IW","cs_wg_v9_real1","3NVC2EB65Q00BM4VD5C9D2IOTY0Y3O","5","0","HELICOPTER","9","5","0","2561","helicopter","9","2018-01-12 17:54:45","159825"
"A3696JXTRKL2FI","cs_wg_v9_real1","3UOUJI6MTDFVABR4NTM8HX1F45QXUP","33","0","DOORWAY","9","5","1","1000","Doorway","9","2018-01-12 17:54:45","159826"
"A97R988SLWMU8","cs_wg_v9_real1","34Q075JO1XE74OUVITNHXH97J1810Z","9","0","MACHINE","0","5","0","2264","machine","0","2018-01-12 17:54:45","159827"
"A2Z2OV7QGU10QN","cs_wg_v9_real1","3YHH42UU5BGKUVYZB350HWILH7D0L4","2","0","STOMACH","1","5","1","4889","Stomach","1","2018-01-12 17:54:45","159828"
"A3V4AW6DGWBHDO","cs_wg_v9_real1","33NF62TLXJ3GCVH3CB35K1K2RGDJKQ","25","0","BOOKSHELF","9","5","0","2220","BOOKSHELF","9","2018-01-12 17:54:46","159829"
"A3HHHZF9N10QMQ","cs_wg_v9_real1","3I0BTBYZAXM4UU5YUIUQB4KHQMH0YW","17","0","UMBRELLA","10","5","0","1331","umbrella","10","2018-01-12 17:54:48","159830"
"ASOALSPOWW0WY","cs_wg_v9_real1","34FNN24DCMA3P1RZRO02SZG87URY5E","8","0","HELICOPTER","1","5","0","5212","Helicopter","1","2018-01-12 17:54:49","159831"
"A3DU63P4KYJHOO","cs_wg_v9_real1","3TPZPLC3M0D628CUMIGQ0BPCPTXP3L","28","0","HELICOPTER","0","5","0","824","helicopter","0","2018-01-12 17:54:49","159832"
"AQ4PZ6W8NIDH3","cs_wg_v9_real1","386PBUZZXFYRW1ZLXBF6Z1XHGGIJLT","3","0","STOMACH","10","5","1","2147","stomach","10","2018-01-12 17:54:50","159833"
"A2JRONMDBUJT3K","cs_wg_v9_real1","3WETL7AQWT929YUB237C25KVYTX35E","9","0","COMMUNITY","1","5","0","2257","community","1","2018-01-12 17:54:51","159834"
"A1FMUT3U8CWI0X","cs_wg_v9_real1","337RC3OW0530NWZFE0TP2P8BB3PLVG","15","0","STRUCTURE","1","5","0","1185","structure","1","2018-01-12 17:54:51","159835"
"AFI6RY5VKOIMA","cs_wg_v9_real1","3TUI152ZZBOVSHZUZRHWCN0PW55Q1L","15","0","COMMUNITY","10","5","0","11306","community","10","2018-01-12 17:54:51","159836"
"A2PXJTMWGUE5DC","cs_wg_v9_real1","3IFS6Q0HJIKI53A5Z2R7ZMWCVV1SI4","4","0","BOOKSHELF","1","5","1","12239","bookshelf","1","2018-01-12 17:54:52","159837"
"A3696JXTRKL2FI","cs_wg_v9_real1","3UOUJI6MTDFVABR4NTM8HX1F45QXUP","34","0","UMBRELLA","0","5","1","1210","Umbrella","0","2018-01-12 17:54:52","159838"
"A31YTICDM7ZMP6","cs_wg_v9_real1","3FE2ERCCZX9VOX5G5G0IOENNKKTOPF","12","0","DOORWAY","10","5","0","1483","doorway","10","2018-01-12 17:54:52","159839"
"A2ZNSEG0BWKTLK","cs_wg_v9_real1","3QUO65DNQUP8G2DCM2ZCYKAMS1LOUB","10","0","DOORWAY","9","5","1","4189","doorway","9","2018-01-12 17:54:53","159840"
"A1I2DW853I5VO2","cs_wg_v9_real1","32SCWG5HIH55ZRZC5KEO7E1WZKZP6R","5","0","HELICOPTER","9","5","0","4387","HELICOPTER","9","2018-01-12 17:54:53","159841"
"A1YXQDZYCKILTT","cs_wg_v9_real1","3LKC68YZ3A4L862HH2EDG8VJDHWOWA","15","0","STRUCTURE","10","5","1","5009","structure","10","2018-01-12 17:54:53","159842"
"A1KUW26JP1SB9","cs_wg_v9_real1","3KRVW3HTZNM41M0WKHPZRF3TC4LSMK","22","0","HELICOPTER","9","5","0","2604","Helicoptor","9","2018-01-12 17:54:53","159843"
"A2VGEE0ZIZ8CBQ","cs_wg_v9_real1","3DPNQGW4LLGJAYDT70M04GQ18O464I","13","0","HELICOPTER","1","5","1","1971","helicopter","1","2018-01-12 17:54:53","159844"
"A9BFBXFNK8GR1","cs_wg_v9_real1","3WMOAN2SRBYQBW20QD94FHC0GYPVNS","9","0","HELICOPTER","10","5","0","5950","helicopter","10","2018-01-12 17:54:54","159845"
"A3V4AW6DGWBHDO","cs_wg_v9_real1","33NF62TLXJ3GCVH3CB35K1K2RGDJKQ","26","0","BASKET","1","5","1","1495","BASKET","1","2018-01-12 17:54:55","159846"
"A3DU63P4KYJHOO","cs_wg_v9_real1","3TPZPLC3M0D628CUMIGQ0BPCPTXP3L","29","0","FOOTBALL","10","5","0","1077","football","10","2018-01-12 17:54:55","159847"
"A33KB8LHYO0HI9","cs_wg_v9_real1","31HQ4X3T3SBKV4IBK5OKR2O4CZVLSB","3","0","MACHINE","9","5","1","3785","machine","9","2018-01-12 17:54:56","159848"
"A5X1KZ9CCHREK","cs_wg_v9_real1","3WYGZ5XF3WG9BY0TZ5CJC2BPNZQSKF","0","0","HELICOPTER","9","5","1","7461","helicopter","9","2018-01-12 17:54:56","159849"
"ALU6NGKRSTQHW","cs_wg_v9_real1","3TR2532VIPV9DGWEA794AIFKQLU6J9","6","0","UMBRELLA","1","5","0","1697","umbrella","1","2018-01-12 17:54:57","159850"
"A23Y6SGE73H4IW","cs_wg_v9_real1","3NVC2EB65Q00BM4VD5C9D2IOTY0Y3O","6","0","HELICOPTER","9","5","0","1381","helicopter","9","2018-01-12 17:54:57","159851"
"A3HHHZF9N10QMQ","cs_wg_v9_real1","3I0BTBYZAXM4UU5YUIUQB4KHQMH0YW","18","0","BASKET","9","5","0","1217","basket","9","2018-01-12 17:54:57","159852"
"A278Q2BHCINITH","cs_wg_v9_real1","34BBWHLWHACBCKREJ718WBZX18XWIN","3","0","STRUCTURE","10","5","0","5531","STRUCTURE","10","2018-01-12 17:54:58","159853"
"A1H47GTSBAPDTW","cs_wg_v9_real1","32AT8R96GLANEU55TJGLIPKNPQOSUC","11","0","DOORWAY","1","5","1","7139","DOORWAY","1","2018-01-12 17:54:58","159854"
"A18DUG8EA8Y766","cs_wg_v9_real1","31N2WW6R9RRUBVN08FKLOHB8NNB3FX","3","0","LADDER","0","5","1","6461","laddar","0","2018-01-12 17:54:59","159855"
"A97R988SLWMU8","cs_wg_v9_real1","34Q075JO1XE74OUVITNHXH97J1810Z","10","0","STRUCTURE","1","5","0","4467","structure","1","2018-01-12 17:54:59","159856"
"AQ4PZ6W8NIDH3","cs_wg_v9_real1","386PBUZZXFYRW1ZLXBF6Z1XHGGIJLT","4","0","DOORWAY","0","5","1","2146","doorway","0","2018-01-12 17:54:59","159857"
"ASOALSPOWW0WY","cs_wg_v9_real1","34FNN24DCMA3P1RZRO02SZG87URY5E","9","0","BASKET","10","5","1","2942","Basket","10","2018-01-12 17:55:01","159858"
"A2JRONMDBUJT3K","cs_wg_v9_real1","3WETL7AQWT929YUB237C25KVYTX35E","10","0","LADDER","1","5","1","3234","ladder","1","2018-01-12 17:55:01","159859"
"A3DU63P4KYJHOO","cs_wg_v9_real1","3TPZPLC3M0D628CUMIGQ0BPCPTXP3L","30","0","LADDER","10","5","0","1327","ladder","10","2018-01-12 17:55:03","159860"
"A1JKSAQ8UNCE7B","cs_wg_v9_real1","3YWRV122CS05VAQWFLAG1YKMDWI8UT","4","0","COMMUNITY","1","5","1","10907","community ","1","2018-01-12 17:55:03","159861"
"A1KUW26JP1SB9","cs_wg_v9_real1","3KRVW3HTZNM41M0WKHPZRF3TC4LSMK","23","0","STRUCTURE","1","5","1","3193","Structure","1","2018-01-12 17:55:04","159862"
"AFI6RY5VKOIMA","cs_wg_v9_real1","3TUI152ZZBOVSHZUZRHWCN0PW55Q1L","16","0","HELICOPTER","10","5","1","4493","helicopter","10","2018-01-12 17:55:04","159863"
"A3696JXTRKL2FI","cs_wg_v9_real1","3UOUJI6MTDFVABR4NTM8HX1F45QXUP","35","0","HELICOPTER","9","5","1","4362","Helicopter","9","2018-01-12 17:55:04","159864"
"A3V4AW6DGWBHDO","cs_wg_v9_real1","33NF62TLXJ3GCVH3CB35K1K2RGDJKQ","27","0","COMMUNITY","10","5","0","1479","COMMUNITY","10","2018-01-12 17:55:04","159865"
"A1YXQDZYCKILTT","cs_wg_v9_real1","3LKC68YZ3A4L862HH2EDG8VJDHWOWA","16","0","DOORWAY","1","5","1","2449","doorway","1","2018-01-12 17:55:04","159866"
"A2VGEE0ZIZ8CBQ","cs_wg_v9_real1","3DPNQGW4LLGJAYDT70M04GQ18O464I","14","0","MACHINE","0","5","0","1468","machine","0","2018-01-12 17:55:05","159867"
"A1FMUT3U8CWI0X","cs_wg_v9_real1","337RC3OW0530NWZFE0TP2P8BB3PLVG","16","0","COMMUNITY","0","5","0","1171","community","0","2018-01-12 17:55:05","159868"
"A2Z2OV7QGU10QN","cs_wg_v9_real1","3YHH42UU5BGKUVYZB350HWILH7D0L4","3","0","BASKET","10","5","1","3680","Basket","10","2018-01-12 17:55:06","159869"
"A2ZNSEG0BWKTLK","cs_wg_v9_real1","3QUO65DNQUP8G2DCM2ZCYKAMS1LOUB","11","0","LADDER","9","5","0","5869","ladder","9","2018-01-12 17:55:07","159870"
"A3HHHZF9N10QMQ","cs_wg_v9_real1","3I0BTBYZAXM4UU5YUIUQB4KHQMH0YW","19","0","LADDER","1","5","1","2507","ladder","1","2018-01-12 17:55:07","159871"
"AQ4PZ6W8NIDH3","cs_wg_v9_real1","386PBUZZXFYRW1ZLXBF6Z1XHGGIJLT","5","0","DOORWAY","0","5","1","1833","doorway","0","2018-01-12 17:55:08","159872"
"A3DU63P4KYJHOO","cs_wg_v9_real1","3TPZPLC3M0D628CUMIGQ0BPCPTXP3L","31","0","LADDER","10","5","0","669","ladder","10","2018-01-12 17:55:09","159873"
"A2PXJTMWGUE5DC","cs_wg_v9_real1","3IFS6Q0HJIKI53A5Z2R7ZMWCVV1SI4","5","0","UMBRELLA","1","5","1","3225","umbrella","1","2018-01-12 17:55:09","159874"
"A23Y6SGE73H4IW","cs_wg_v9_real1","3NVC2EB65Q00BM4VD5C9D2IOTY0Y3O","7","0","COMMUNITY","10","5","1","2433","community","10","2018-01-12 17:55:09","159875"
"A5X1KZ9CCHREK","cs_wg_v9_real1","3WYGZ5XF3WG9BY0TZ5CJC2BPNZQSKF","1","0","DOORWAY","10","5","0","2420","doorway","10","2018-01-12 17:55:10","159876"
"A3696JXTRKL2FI","cs_wg_v9_real1","3UOUJI6MTDFVABR4NTM8HX1F45QXUP","36","0","HELICOPTER","9","5","0","1473","Helicopter","9","2018-01-12 17:55:11","159877"
"A97R988SLWMU8","cs_wg_v9_real1","34Q075JO1XE74OUVITNHXH97J1810Z","11","0","COMMUNITY","0","5","1","2407","community","0","2018-01-12 17:55:11","159878"
"A3V4AW6DGWBHDO","cs_wg_v9_real1","33NF62TLXJ3GCVH3CB35K1K2RGDJKQ","28","0","BASKET","1","5","1","1105","BASKET","1","2018-01-12 17:55:12","159879"
"A1H47GTSBAPDTW","cs_wg_v9_real1","32AT8R96GLANEU55TJGLIPKNPQOSUC","12","0","STOMACH","9","5","0","5406","STOMACH","9","2018-01-12 17:55:12","159880"
"A31YTICDM7ZMP6","cs_wg_v9_real1","3FE2ERCCZX9VOX5G5G0IOENNKKTOPF","13","0","BASKET","9","5","0","1834","basket","9","2018-01-12 17:55:12","159881"
"A1I2DW853I5VO2","cs_wg_v9_real1","32SCWG5HIH55ZRZC5KEO7E1WZKZP6R","6","0","DOORWAY","1","5","1","4338","DOORWAY","1","2018-01-12 17:55:12","159882"
"A1KUW26JP1SB9","cs_wg_v9_real1","3KRVW3HTZNM41M0WKHPZRF3TC4LSMK","24","0","STOMACH","10","5","0","1687","Stomach","10","2018-01-12 17:55:14","159883"
"A3DU63P4KYJHOO","cs_wg_v9_real1","3TPZPLC3M0D628CUMIGQ0BPCPTXP3L","32","0","DOORWAY","1","5","0","826","doorway","1","2018-01-12 17:55:15","159884"
"ALU6NGKRSTQHW","cs_wg_v9_real1","3TR2532VIPV9DGWEA794AIFKQLU6J9","7","0","LADDER","10","5","1","4972","ladder","10","2018-01-12 17:55:15","159885"
"AFI6RY5VKOIMA","cs_wg_v9_real1","3TUI152ZZBOVSHZUZRHWCN0PW55Q1L","17","0","KEYBOARD","9","5","0","4085","keyboard","9","2018-01-12 17:55:16","159886"
"A278Q2BHCINITH","cs_wg_v9_real1","34BBWHLWHACBCKREJ718WBZX18XWIN","4","0","STRUCTURE","10","5","0","3571","STRUCTURE","10","2018-01-12 17:55:16","159887"
"AQ4PZ6W8NIDH3","cs_wg_v9_real1","386PBUZZXFYRW1ZLXBF6Z1XHGGIJLT","6","0","COMMUNITY","0","5","1","1663","community ","0","2018-01-12 17:55:17","159888"
"A2VGEE0ZIZ8CBQ","cs_wg_v9_real1","3DPNQGW4LLGJAYDT70M04GQ18O464I","15","0","BASKET","10","5","0","1492","basket","10","2018-01-12 17:55:17","159889"
"A9BFBXFNK8GR1","cs_wg_v9_real1","3WMOAN2SRBYQBW20QD94FHC0GYPVNS","10","0","TRAFFIC","9","5","1","2101","traffic","9","2018-01-12 17:55:17","159890"
"A1YXQDZYCKILTT","cs_wg_v9_real1","3LKC68YZ3A4L862HH2EDG8VJDHWOWA","17","0","UMBRELLA","10","5","0","2324","umbrella","10","2018-01-12 17:55:18","159892"
"A2JRONMDBUJT3K","cs_wg_v9_real1","3WETL7AQWT929YUB237C25KVYTX35E","11","0","FOOTBALL","9","5","0","2235","football","9","2018-01-12 17:55:18","159891"
"A3HHHZF9N10QMQ","cs_wg_v9_real1","3I0BTBYZAXM4UU5YUIUQB4KHQMH0YW","20","0","STRUCTURE","1","5","0","1203","structure","1","2018-01-12 17:55:19","159893"
"A1FMUT3U8CWI0X","cs_wg_v9_real1","337RC3OW0530NWZFE0TP2P8BB3PLVG","17","0","UMBRELLA","10","5","1","2080","umbrella","10","2018-01-12 17:55:19","159894"
"A33KB8LHYO0HI9","cs_wg_v9_real1","31HQ4X3T3SBKV4IBK5OKR2O4CZVLSB","4","0","HELICOPTER","0","5","1","2925","heliocopter","0","2018-01-12 17:55:19","159895"
"A3696JXTRKL2FI","cs_wg_v9_real1","3UOUJI6MTDFVABR4NTM8HX1F45QXUP","37","0","FOOTBALL","1","5","1","1257","Football","1","2018-01-12 17:55:19","159896"
"ASOALSPOWW0WY","cs_wg_v9_real1","34FNN24DCMA3P1RZRO02SZG87URY5E","10","0","BOOKSHELF","0","5","1","5386","Bookshelf","0","2018-01-12 17:55:19","159897"
"A3V4AW6DGWBHDO","cs_wg_v9_real1","33NF62TLXJ3GCVH3CB35K1K2RGDJKQ","29","0","KEYBOARD","0","5","1","1420","KEYBOARD","0","2018-01-12 17:55:20","159898"
"A2MFQ11WV445GC","cs_wg_v9_real1","3LS2AMNW5FRGO96V5TF7OJDXPGFQO8","0","0","MACHINE","0","5","0","3643","Machine","0","2018-01-12 17:55:21","159899"
"A2Z2OV7QGU10QN","cs_wg_v9_real1","3YHH42UU5BGKUVYZB350HWILH7D0L4","4","0","COMMUNITY","0","5","1","3778","Community","0","2018-01-12 17:55:21","159900"
"A3DU63P4KYJHOO","cs_wg_v9_real1","3TPZPLC3M0D628CUMIGQ0BPCPTXP3L","33","0","BASKET","1","5","0","1160","basket","1","2018-01-12 17:55:22","159901"
"A1JKSAQ8UNCE7B","cs_wg_v9_real1","3YWRV122CS05VAQWFLAG1YKMDWI8UT","5","0","LADDER","10","5","0","6105","ladder","10","2018-01-12 17:55:22","159902"
"A1H47GTSBAPDTW","cs_wg_v9_real1","32AT8R96GLANEU55TJGLIPKNPQOSUC","13","0","STOMACH","9","5","0","2600","STOMACH","9","2018-01-12 17:55:23","159903"
"A2PXJTMWGUE5DC","cs_wg_v9_real1","3IFS6Q0HJIKI53A5Z2R7ZMWCVV1SI4","6","0","BOOKSHELF","1","5","1","3256","bookshelf","1","2018-01-12 17:55:23","159904"
"A23Y6SGE73H4IW","cs_wg_v9_real1","3NVC2EB65Q00BM4VD5C9D2IOTY0Y3O","8","0","BASKET","0","5","1","5358","basket","0","2018-01-12 17:55:23","159905"
"A1KUW26JP1SB9","cs_wg_v9_real1","3KRVW3HTZNM41M0WKHPZRF3TC4LSMK","25","0","BASKET","9","5","0","1499","Basket","9","2018-01-12 17:55:25","159906"
"A3696JXTRKL2FI","cs_wg_v9_real1","3UOUJI6MTDFVABR4NTM8HX1F45QXUP","38","0","LADDER","0","5","1","944","Ladder","0","2018-01-12 17:55:26","159907"
"AQ4PZ6W8NIDH3","cs_wg_v9_real1","386PBUZZXFYRW1ZLXBF6Z1XHGGIJLT","7","0","TRAFFIC","10","5","1","1844","traffic","10","2018-01-12 17:55:26","159908"
"A31YTICDM7ZMP6","cs_wg_v9_real1","3FE2ERCCZX9VOX5G5G0IOENNKKTOPF","14","0","WEDDING","9","5","0","5386","wedding","9","2018-01-12 17:55:26","159909"
"AFI6RY5VKOIMA","cs_wg_v9_real1","3TUI152ZZBOVSHZUZRHWCN0PW55Q1L","18","0","FOOTBALL","10","5","1","1918","football","10","2018-01-12 17:55:26","159910"
"A97R988SLWMU8","cs_wg_v9_real1","34Q075JO1XE74OUVITNHXH97J1810Z","12","0","KEYBOARD","10","5","0","3951","keyboard","10","2018-01-12 17:55:27","159911"
"A5X1KZ9CCHREK","cs_wg_v9_real1","3WYGZ5XF3WG9BY0TZ5CJC2BPNZQSKF","2","0","KEYBOARD","9","5","0","2432","keyboard","9","2018-01-12 17:55:28","159912"
"A3DU63P4KYJHOO","cs_wg_v9_real1","3TPZPLC3M0D628CUMIGQ0BPCPTXP3L","34","0","STOMACH","10","5","0","979","stomach","10","2018-01-12 17:55:28","159913"
"ALU6NGKRSTQHW","cs_wg_v9_real1","3TR2532VIPV9DGWEA794AIFKQLU6J9","8","0","BASKET","9","5","1","2285","basket","9","2018-01-12 17:55:28","159914"
"A3V4AW6DGWBHDO","cs_wg_v9_real1","33NF62TLXJ3GCVH3CB35K1K2RGDJKQ","30","0","LADDER","10","5","0","1018","LADDER","1","2018-01-12 17:55:28","159915"
"A3HHHZF9N10QMQ","cs_wg_v9_real1","3I0BTBYZAXM4UU5YUIUQB4KHQMH0YW","21","0","STRUCTURE","1","5","1","1764","strucutre","1","2018-01-12 17:55:29","159916"
"A2VGEE0ZIZ8CBQ","cs_wg_v9_real1","3DPNQGW4LLGJAYDT70M04GQ18O464I","16","0","FOOTBALL","10","5","0","1897","football","10","2018-01-12 17:55:30","159917"
"A1FMUT3U8CWI0X","cs_wg_v9_real1","337RC3OW0530NWZFE0TP2P8BB3PLVG","18","0","STOMACH","10","5","0","3553","stomach","10","2018-01-12 17:55:31","159918"
"A1YXQDZYCKILTT","cs_wg_v9_real1","3LKC68YZ3A4L862HH2EDG8VJDHWOWA","18","0","BOOKSHELF","1","5","0","3197","bookshelf","1","2018-01-12 17:55:31","159919"
"A23Y6SGE73H4IW","cs_wg_v9_real1","3NVC2EB65Q00BM4VD5C9D2IOTY0Y3O","9","0","BASKET","0","5","1","1031","basket","0","2018-01-12 17:55:32","159920"
"A1I2DW853I5VO2","cs_wg_v9_real1","32SCWG5HIH55ZRZC5KEO7E1WZKZP6R","7","0","BASKET","10","5","0","4818","BASKET","10","2018-01-12 17:55:32","159921"
"A2ZNSEG0BWKTLK","cs_wg_v9_real1","3QUO65DNQUP8G2DCM2ZCYKAMS1LOUB","12","0","STOMACH","10","5","0","13860","stomach","10","2018-01-12 17:55:32","159922"
"A33KB8LHYO0HI9","cs_wg_v9_real1","31HQ4X3T3SBKV4IBK5OKR2O4CZVLSB","5","0","LADDER","0","5","1","2772","ladder","0","2018-01-12 17:55:32","159923"
"A2Z2OV7QGU10QN","cs_wg_v9_real1","3YHH42UU5BGKUVYZB350HWILH7D0L4","5","0","MACHINE","0","5","1","3331","Machine","0","2018-01-12 17:55:33","159924"
"A18DUG8EA8Y766","cs_wg_v9_real1","31N2WW6R9RRUBVN08FKLOHB8NNB3FX","4","0","BOOKSHELF","0","5","0","8576","bookshelf","0","2018-01-12 17:55:33","159925"
"ASOALSPOWW0WY","cs_wg_v9_real1","34FNN24DCMA3P1RZRO02SZG87URY5E","11","0","LADDER","0","5","0","4094","Ladder","0","2018-01-12 17:55:33","159926"
"A3696JXTRKL2FI","cs_wg_v9_real1","3UOUJI6MTDFVABR4NTM8HX1F45QXUP","39","0","TRAFFIC","10","5","0","2272","Traffic","10","2018-01-12 17:55:33","159927"
"A2JRONMDBUJT3K","cs_wg_v9_real1","3WETL7AQWT929YUB237C25KVYTX35E","12","0","WEDDING","1","5","1","2987","wedding","1","2018-01-12 17:55:33","159928"
"A2MFQ11WV445GC","cs_wg_v9_real1","3LS2AMNW5FRGO96V5TF7OJDXPGFQO8","1","0","HELICOPTER","9","5","0","2486","Helicopter","9","2018-01-12 17:55:34","159929"
"A9BFBXFNK8GR1","cs_wg_v9_real1","3WMOAN2SRBYQBW20QD94FHC0GYPVNS","11","0","STOMACH","10","5","0","6491","stomach","10","2018-01-12 17:55:34","159930"
"A1H47GTSBAPDTW","cs_wg_v9_real1","32AT8R96GLANEU55TJGLIPKNPQOSUC","14","0","STRUCTURE","1","5","1","2041","STRUCTURE","1","2018-01-12 17:55:35","159931"
"AFI6RY5VKOIMA","cs_wg_v9_real1","3TUI152ZZBOVSHZUZRHWCN0PW55Q1L","19","0","STOMACH","9","5","0","1417","stomach","9","2018-01-12 17:55:35","159932"
"A3DU63P4KYJHOO","cs_wg_v9_real1","3TPZPLC3M0D628CUMIGQ0BPCPTXP3L","35","0","BOOKSHELF","0","5","1","1030","bookshelf","0","2018-01-12 17:55:35","159933"
"A1JKSAQ8UNCE7B","cs_wg_v9_real1","3YWRV122CS05VAQWFLAG1YKMDWI8UT","6","0","STRUCTURE","9","5","1","3394","structure","9","2018-01-12 17:55:36","159934"
"A278Q2BHCINITH","cs_wg_v9_real1","34BBWHLWHACBCKREJ718WBZX18XWIN","5","0","WEDDING","10","5","1","6744","WEDDING","10","2018-01-12 17:55:36","159935"
"A1KUW26JP1SB9","cs_wg_v9_real1","3KRVW3HTZNM41M0WKHPZRF3TC4LSMK","26","0","HELICOPTER","9","5","0","1241","Helicoptor","9","2018-01-12 17:55:36","159936"
"A3HHHZF9N10QMQ","cs_wg_v9_real1","3I0BTBYZAXM4UU5YUIUQB4KHQMH0YW","22","0","WEDDING","10","5","0","1075","wedding","10","2018-01-12 17:55:37","159937"
"A97R988SLWMU8","cs_wg_v9_real1","34Q075JO1XE74OUVITNHXH97J1810Z","13","0","DOORWAY","9","5","0","3039","doorway","9","2018-01-12 17:55:38","159938"
"A1FMUT3U8CWI0X","cs_wg_v9_real1","337RC3OW0530NWZFE0TP2P8BB3PLVG","19","0","STOMACH","10","5","0","1022","stomach","10","2018-01-12 17:55:38","159939"
"AQ4PZ6W8NIDH3","cs_wg_v9_real1","386PBUZZXFYRW1ZLXBF6Z1XHGGIJLT","8","0","WEDDING","1","5","0","4851","wedding ","1","2018-01-12 17:55:39","159940"
"A3V4AW6DGWBHDO","cs_wg_v9_real1","33NF62TLXJ3GCVH3CB35K1K2RGDJKQ","31","0","COMMUNITY","10","5","0","1497","COMMUNITY","10","2018-01-12 17:55:40","159941"
"A5X1KZ9CCHREK","cs_wg_v9_real1","3WYGZ5XF3WG9BY0TZ5CJC2BPNZQSKF","3","0","BOOKSHELF","9","5","0","3270","BOOKSHELF ","9","2018-01-12 17:55:41","159942"
"A3696JXTRKL2FI","cs_wg_v9_real1","3UOUJI6MTDFVABR4NTM8HX1F45QXUP","40","0","KEYBOARD","10","5","0","1189","Keyboard","10","2018-01-12 17:55:42","159943"
"A31YTICDM7ZMP6","cs_wg_v9_real1","3FE2ERCCZX9VOX5G5G0IOENNKKTOPF","15","0","FOOTBALL","10","5","0","4072","football","10","2018-01-12 17:55:42","159944"
"A3DU63P4KYJHOO","cs_wg_v9_real1","3TPZPLC3M0D628CUMIGQ0BPCPTXP3L","36","0","KEYBOARD","0","5","0","1286","keyboard","0","2018-01-12 17:55:42","159945"
"A23Y6SGE73H4IW","cs_wg_v9_real1","3NVC2EB65Q00BM4VD5C9D2IOTY0Y3O","10","0","KEYBOARD","10","5","0","2369","keyboard","10","2018-01-12 17:55:43","159946"
"ALU6NGKRSTQHW","cs_wg_v9_real1","3TR2532VIPV9DGWEA794AIFKQLU6J9","9","0","FOOTBALL","10","5","0","4123","football","10","2018-01-12 17:55:43","159947"
"A1YXQDZYCKILTT","cs_wg_v9_real1","3LKC68YZ3A4L862HH2EDG8VJDHWOWA","19","0","KEYBOARD","10","5","1","2274","keyboard","10","2018-01-12 17:55:43","159948"
"A2VGEE0ZIZ8CBQ","cs_wg_v9_real1","3DPNQGW4LLGJAYDT70M04GQ18O464I","17","0","COMMUNITY","0","5","1","2490","community","0","2018-01-12 17:55:44","159949"
"A2MFQ11WV445GC","cs_wg_v9_real1","3LS2AMNW5FRGO96V5TF7OJDXPGFQO8","2","0","STRUCTURE","10","5","0","1528","Structure","10","2018-01-12 17:55:45","159950"
"A2JRONMDBUJT3K","cs_wg_v9_real1","3WETL7AQWT929YUB237C25KVYTX35E","13","0","BASKET","0","5","0","1635","basket","0","2018-01-12 17:55:46","159951"
"AFI6RY5VKOIMA","cs_wg_v9_real1","3TUI152ZZBOVSHZUZRHWCN0PW55Q1L","20","0","UMBRELLA","1","5","0","1476","umbrella","1","2018-01-12 17:55:46","159952"
"A1H47GTSBAPDTW","cs_wg_v9_real1","32AT8R96GLANEU55TJGLIPKNPQOSUC","15","0","BASKET","0","5","1","1911","BASKET ","0","2018-01-12 17:55:46","159953"
"ASOALSPOWW0WY","cs_wg_v9_real1","34FNN24DCMA3P1RZRO02SZG87URY5E","12","0","STRUCTURE","10","5","0","3366","Structure","10","2018-01-12 17:55:47","159954"
"A1KUW26JP1SB9","cs_wg_v9_real1","3KRVW3HTZNM41M0WKHPZRF3TC4LSMK","27","0","TRAFFIC","10","5","1","2673","Traffic","10","2018-01-12 17:55:47","159955"
"A3HHHZF9N10QMQ","cs_wg_v9_real1","3I0BTBYZAXM4UU5YUIUQB4KHQMH0YW","23","0","KEYBOARD","1","5","1","2306","keyboard","1","2018-01-12 17:55:48","159956"
"A9BFBXFNK8GR1","cs_wg_v9_real1","3WMOAN2SRBYQBW20QD94FHC0GYPVNS","12","0","UMBRELLA","0","5","0","2564","umbrella","0","2018-01-12 17:55:48","159957"
"A2Z2OV7QGU10QN","cs_wg_v9_real1","3YHH42UU5BGKUVYZB350HWILH7D0L4","6","0","DOORWAY","1","5","1","2499","Doorway","1","2018-01-12 17:55:48","159958"
"A3V4AW6DGWBHDO","cs_wg_v9_real1","33NF62TLXJ3GCVH3CB35K1K2RGDJKQ","32","0","STOMACH","9","5","1","1933","STOMACH","9","2018-01-12 17:55:48","159959"
"A1JKSAQ8UNCE7B","cs_wg_v9_real1","3YWRV122CS05VAQWFLAG1YKMDWI8UT","7","0","COMMUNITY","1","5","1","3462","community ","1","2018-01-12 17:55:48","159960"
"A3DU63P4KYJHOO","cs_wg_v9_real1","3TPZPLC3M0D628CUMIGQ0BPCPTXP3L","37","0","HELICOPTER","0","5","0","840","helicopter","0","2018-01-12 17:55:48","159961"
"A1FMUT3U8CWI0X","cs_wg_v9_real1","337RC3OW0530NWZFE0TP2P8BB3PLVG","20","0","WEDDING","9","5","0","3413","wedding","9","2018-01-12 17:55:48","159962"
"A33KB8LHYO0HI9","cs_wg_v9_real1","31HQ4X3T3SBKV4IBK5OKR2O4CZVLSB","6","0","HELICOPTER","0","5","1","6390","helicopter","0","2018-01-12 17:55:49","159963"
"A3696JXTRKL2FI","cs_wg_v9_real1","3UOUJI6MTDFVABR4NTM8HX1F45QXUP","41","0","BOOKSHELF","9","5","1","1344","Bookshelf","9","2018-01-12 17:55:49","159964"
"A97R988SLWMU8","cs_wg_v9_real1","34Q075JO1XE74OUVITNHXH97J1810Z","14","0","BOOKSHELF","10","5","0","2392","bookself","10","2018-01-12 17:55:50","159965"
"A1I2DW853I5VO2","cs_wg_v9_real1","32SCWG5HIH55ZRZC5KEO7E1WZKZP6R","8","0","TRAFFIC","0","5","1","2693","TRAFFIC","0","2018-01-12 17:55:51","159966"
"A18DUG8EA8Y766","cs_wg_v9_real1","31N2WW6R9RRUBVN08FKLOHB8NNB3FX","5","0","TRAFFIC","0","5","0","5867","traffic","0","2018-01-12 17:55:51","159967"
"AQ4PZ6W8NIDH3","cs_wg_v9_real1","386PBUZZXFYRW1ZLXBF6Z1XHGGIJLT","9","0","KEYBOARD","0","5","1","1721","keyboard ","0","2018-01-12 17:55:52","159968"
"A23Y6SGE73H4IW","cs_wg_v9_real1","3NVC2EB65Q00BM4VD5C9D2IOTY0Y3O","11","0","WEDDING","10","5","0","1734","wedding","10","2018-01-12 17:55:53","159969"
"A31YTICDM7ZMP6","cs_wg_v9_real1","3FE2ERCCZX9VOX5G5G0IOENNKKTOPF","16","0","UMBRELLA","1","5","1","3406","umbrella","1","2018-01-12 17:55:53","159970"
"A5X1KZ9CCHREK","cs_wg_v9_real1","3WYGZ5XF3WG9BY0TZ5CJC2BPNZQSKF","4","0","BASKET","0","5","0","1662","BASKET ","0","2018-01-12 17:55:55","159971"
"A3DU63P4KYJHOO","cs_wg_v9_real1","3TPZPLC3M0D628CUMIGQ0BPCPTXP3L","38","0","BOOKSHELF","0","5","1","706","bookshelf","0","2018-01-12 17:55:55","159972"
"AFI6RY5VKOIMA","cs_wg_v9_real1","3TUI152ZZBOVSHZUZRHWCN0PW55Q1L","21","0","TRAFFIC","0","5","0","1098","traffic","0","2018-01-12 17:55:55","159973"
"A2PXJTMWGUE5DC","cs_wg_v9_real1","3IFS6Q0HJIKI53A5Z2R7ZMWCVV1SI4","7","0","BASKET","0","5","1","22637","basket","0","2018-01-12 17:55:56","159974"
"A2JRONMDBUJT3K","cs_wg_v9_real1","3WETL7AQWT929YUB237C25KVYTX35E","14","0","COMMUNITY","1","5","1","3026","community","1","2018-01-12 17:55:56","159975"
"A3696JXTRKL2FI","cs_wg_v9_real1","3UOUJI6MTDFVABR4NTM8HX1F45QXUP","42","0","COMMUNITY","10","5","0","933","Community","10","2018-01-12 17:55:56","159976"
"A278Q2BHCINITH","cs_wg_v9_real1","34BBWHLWHACBCKREJ718WBZX18XWIN","6","0","LADDER","0","5","1","5401","LADDER","0","2018-01-12 17:55:56","159977"
"A1YXQDZYCKILTT","cs_wg_v9_real1","3LKC68YZ3A4L862HH2EDG8VJDHWOWA","20","0","WEDDING","0","5","1","3379","wedding","0","2018-01-12 17:55:56","159978"
"ALU6NGKRSTQHW","cs_wg_v9_real1","3TR2532VIPV9DGWEA794AIFKQLU6J9","10","0","HELICOPTER","10","5","0","2273","helicopter","10","2018-01-12 17:55:56","159979"
"A1KUW26JP1SB9","cs_wg_v9_real1","3KRVW3HTZNM41M0WKHPZRF3TC4LSMK","28","0","HELICOPTER","9","5","0","1301","Helicoptor","9","2018-01-12 17:55:57","159980"
"A2MFQ11WV445GC","cs_wg_v9_real1","3LS2AMNW5FRGO96V5TF7OJDXPGFQO8","3","0","STOMACH","10","5","0","1581","Stomach","10","2018-01-12 17:55:57","159981"
"A2LZ0TBYJ91GYQ","cs_wg_v9_real1","3WYP994K17SZ85RDW7A7K5U83P2Y6U","14","0","UMBRELLA","1","5","0","1388","umbrella","1","2018-01-12 17:55:57","159982"
"A2VGEE0ZIZ8CBQ","cs_wg_v9_real1","3DPNQGW4LLGJAYDT70M04GQ18O464I","18","0","WEDDING","0","5","1","3300","wedding","0","2018-01-12 17:55:57","159983"
"A3HHHZF9N10QMQ","cs_wg_v9_real1","3I0BTBYZAXM4UU5YUIUQB4KHQMH0YW","24","0","STRUCTURE","1","5","0","1867","strucutre","1","2018-01-12 17:55:57","159984"
"A3V4AW6DGWBHDO","cs_wg_v9_real1","33NF62TLXJ3GCVH3CB35K1K2RGDJKQ","33","0","MACHINE","9","5","0","1632","MACHINE","9","2018-01-12 17:55:58","159985"
"A2Z2OV7QGU10QN","cs_wg_v9_real1","3YHH42UU5BGKUVYZB350HWILH7D0L4","7","0","LADDER","9","5","1","2212","Ladder","9","2018-01-12 17:55:59","159986"
"A1H47GTSBAPDTW","cs_wg_v9_real1","32AT8R96GLANEU55TJGLIPKNPQOSUC","16","0","MACHINE","10","5","1","1922","MACHIENE","10","2018-01-12 17:55:59","159987"
"ASOALSPOWW0WY","cs_wg_v9_real1","34FNN24DCMA3P1RZRO02SZG87URY5E","13","0","MACHINE","10","5","1","4278","Machine","10","2018-01-12 17:55:59","159988"
"A3DU63P4KYJHOO","cs_wg_v9_real1","3TPZPLC3M0D628CUMIGQ0BPCPTXP3L","39","0","STRUCTURE","10","5","0","630","structure","10","2018-01-12 17:56:01","159989"
"A9BFBXFNK8GR1","cs_wg_v9_real1","3WMOAN2SRBYQBW20QD94FHC0GYPVNS","13","0","HELICOPTER","10","5","0","1971","helicopter","10","2018-01-12 17:56:01","159990"
"A97R988SLWMU8","cs_wg_v9_real1","34Q075JO1XE74OUVITNHXH97J1810Z","15","0","TRAFFIC","9","5","0","1758","traffic","9","2018-01-12 17:56:02","159991"
"A1FMUT3U8CWI0X","cs_wg_v9_real1","337RC3OW0530NWZFE0TP2P8BB3PLVG","21","0","MACHINE","0","5","0","1593","machine
And please retype the word's point val","0","2018-01-12 17:56:02","159992"
"A33KB8LHYO0HI9","cs_wg_v9_real1","31HQ4X3T3SBKV4IBK5OKR2O4CZVLSB","7","0","HELICOPTER","0","5","1","2114","helicopter","0","2018-01-12 17:56:02","159993"
"A23Y6SGE73H4IW","cs_wg_v9_real1","3NVC2EB65Q00BM4VD5C9D2IOTY0Y3O","12","0","LADDER","1","5","1","1852","ladder","1","2018-01-12 17:56:03","159994"
"AQ4PZ6W8NIDH3","cs_wg_v9_real1","386PBUZZXFYRW1ZLXBF6Z1XHGGIJLT","10","0","DOORWAY","0","5","0","4720","doorway","0","2018-01-12 17:56:03","159995"
"A1JKSAQ8UNCE7B","cs_wg_v9_real1","3YWRV122CS05VAQWFLAG1YKMDWI8UT","8","0","BASKET","9","5","1","5234","basket","9","2018-01-12 17:56:03","159996"
"A3696JXTRKL2FI","cs_wg_v9_real1","3UOUJI6MTDFVABR4NTM8HX1F45QXUP","43","0","TRAFFIC","10","5","1","946","Traffic","10","2018-01-12 17:56:04","159997"
"AFI6RY5VKOIMA","cs_wg_v9_real1","3TUI152ZZBOVSHZUZRHWCN0PW55Q1L","22","0","HELICOPTER","10","5","0","1872","helicopter","10","2018-01-12 17:56:06","159998"
"A2LZ0TBYJ91GYQ","cs_wg_v9_real1","3WYP994K17SZ85RDW7A7K5U83P2Y6U","15","0","FOOTBALL","10","5","0","2108","football","10","2018-01-12 17:56:07","159999"
"A1KUW26JP1SB9","cs_wg_v9_real1","3KRVW3HTZNM41M0WKHPZRF3TC4LSMK","29","0","UMBRELLA","10","5","1","2099","Umbrella","10","2018-01-12 17:56:08","160000"
"ALU6NGKRSTQHW","cs_wg_v9_real1","3TR2532VIPV9DGWEA794AIFKQLU6J9","11","0","COMMUNITY","9","5","0","1543","community","9","2018-01-12 17:56:08","160001"
"A2VGEE0ZIZ8CBQ","cs_wg_v9_real1","3DPNQGW4LLGJAYDT70M04GQ18O464I","19","0","LADDER","9","5","1","2540","ladder","9","2018-01-12 17:56:09","160002"
"A31YTICDM7ZMP6","cs_wg_v9_real1","3FE2ERCCZX9VOX5G5G0IOENNKKTOPF","17","0","FOOTBALL","10","5","0","2732","football","10","2018-01-12 17:56:09","160003"
"A3V4AW6DGWBHDO","cs_wg_v9_real1","33NF62TLXJ3GCVH3CB35K1K2RGDJKQ","34","0","UMBRELLA","1","5","1","1790","UMBRELLA","1","2018-01-12 17:56:09","160004"
"A2Z2OV7QGU10QN","cs_wg_v9_real1","3YHH42UU5BGKUVYZB350HWILH7D0L4","8","0","KEYBOARD","0","5","1","1830","Keyboard","0","2018-01-12 17:56:10","160005"
"A3HHHZF9N10QMQ","cs_wg_v9_real1","3I0BTBYZAXM4UU5YUIUQB4KHQMH0YW","25","0","KEYBOARD","1","5","1","4923","keyboard","1","2018-01-12 17:56:10","160006"
"A1H47GTSBAPDTW","cs_wg_v9_real1","32AT8R96GLANEU55TJGLIPKNPQOSUC","17","0","STOMACH","9","5","0","1924","STOMACH","9","2018-01-12 17:56:10","160007"
"A5X1KZ9CCHREK","cs_wg_v9_real1","3WYGZ5XF3WG9BY0TZ5CJC2BPNZQSKF","5","0","UMBRELLA","1","5","1","5623","UMBRELLA ","1","2018-01-12 17:56:11","160008"
"A3DU63P4KYJHOO","cs_wg_v9_real1","3TPZPLC3M0D628CUMIGQ0BPCPTXP3L","40","0","STRUCTURE","10","5","0","792","structure","10","2018-01-12 17:56:11","160009"
"A2PXJTMWGUE5DC","cs_wg_v9_real1","3IFS6Q0HJIKI53A5Z2R7ZMWCVV1SI4","8","0","BOOKSHELF","1","5","1","3509","bookshelf","1","2018-01-12 17:56:11","160010"
"ASOALSPOWW0WY","cs_wg_v9_real1","34FNN24DCMA3P1RZRO02SZG87URY5E","14","0","BOOKSHELF","0","5","1","2394","Bookshelf","0","2018-01-12 17:56:11","160011"
"A2JRONMDBUJT3K","cs_wg_v9_real1","3WETL7AQWT929YUB237C25KVYTX35E","15","0","UMBRELLA","10","5","1","2451","umbrella","10","2018-01-12 17:56:11","160012"
"A2MFQ11WV445GC","cs_wg_v9_real1","3LS2AMNW5FRGO96V5TF7OJDXPGFQO8","4","0","MACHINE","0","5","1","4708","Machine","0","2018-01-12 17:56:11","160013"
"A1YXQDZYCKILTT","cs_wg_v9_real1","3LKC68YZ3A4L862HH2EDG8VJDHWOWA","21","0","BOOKSHELF","1","5","1","5630","bookshelf ","1","2018-01-12 17:56:11","160014"
"A1I2DW853I5VO2","cs_wg_v9_real1","32SCWG5HIH55ZRZC5KEO7E1WZKZP6R","9","0","STOMACH","0","5","0","7080","STOMACH","0","2018-01-12 17:56:13","160015"
"A97R988SLWMU8","cs_wg_v9_real1","34Q075JO1XE74OUVITNHXH97J1810Z","16","0","MACHINE","0","5","1","2055","machine","0","2018-01-12 17:56:13","160016"
"A18DUG8EA8Y766","cs_wg_v9_real1","31N2WW6R9RRUBVN08FKLOHB8NNB3FX","6","0","LADDER","0","5","1","4934","Ladder","0","2018-01-12 17:56:13","160017"
"A3696JXTRKL2FI","cs_wg_v9_real1","3UOUJI6MTDFVABR4NTM8HX1F45QXUP","44","0","WEDDING","0","5","1","1056","Wedding","0","2018-01-12 17:56:14","160018"
"A1FMUT3U8CWI0X","cs_wg_v9_real1","337RC3OW0530NWZFE0TP2P8BB3PLVG","22","0","TRAFFIC","10","5","0","2669","traffic","10","2018-01-12 17:56:14","160019"
"A23Y6SGE73H4IW","cs_wg_v9_real1","3NVC2EB65Q00BM4VD5C9D2IOTY0Y3O","13","0","WEDDING","10","5","0","2873","wedding","10","2018-01-12 17:56:14","160020"
"A199ECPSCLODO6","cs_wg_v9_real1","3OXV7EAXLERYS2UP7MHHUBYVUO836U","0","0","WEDDING","9","5","0","3147","wedding","9","2018-01-12 17:56:14","160021"
"AQ4PZ6W8NIDH3","cs_wg_v9_real1","386PBUZZXFYRW1ZLXBF6Z1XHGGIJLT","11","0","KEYBOARD","0","5","1","2470","keyboard","0","2018-01-12 17:56:15","160022"
"A2LZ0TBYJ91GYQ","cs_wg_v9_real1","3WYP994K17SZ85RDW7A7K5U83P2Y6U","16","0","DOORWAY","9","5","0","1685","doorway","9","2018-01-12 17:56:16","160023"
"A9BFBXFNK8GR1","cs_wg_v9_real1","3WMOAN2SRBYQBW20QD94FHC0GYPVNS","14","0","HELICOPTER","10","5","0","1812","helicopter","10","2018-01-12 17:56:16","160024"
"A278Q2BHCINITH","cs_wg_v9_real1","34BBWHLWHACBCKREJ718WBZX18XWIN","7","0","HELICOPTER","1","5","0","7605","HELICOPTER","1","2018-01-12 17:56:18","160025"
"A3DU63P4KYJHOO","cs_wg_v9_real1","3TPZPLC3M0D628CUMIGQ0BPCPTXP3L","41","0","HELICOPTER","0","5","1","1310","helicopter","0","2018-01-12 17:56:18","160026"
"A3V4AW6DGWBHDO","cs_wg_v9_real1","33NF62TLXJ3GCVH3CB35K1K2RGDJKQ","35","0","KEYBOARD","0","5","1","1493","KEYBOARD","0","2018-01-12 17:56:18","160027"
"AFI6RY5VKOIMA","cs_wg_v9_real1","3TUI152ZZBOVSHZUZRHWCN0PW55Q1L","23","0","KEYBOARD","9","5","1","2804","keyboard","9","2018-01-12 17:56:18","160028"
"A1KUW26JP1SB9","cs_wg_v9_real1","3KRVW3HTZNM41M0WKHPZRF3TC4LSMK","30","0","MACHINE","0","5","1","2174","Machine","0","2018-01-12 17:56:19","160029"
"A33KB8LHYO0HI9","cs_wg_v9_real1","31HQ4X3T3SBKV4IBK5OKR2O4CZVLSB","8","0","STRUCTURE","10","5","0","2270","structure","10","2018-01-12 17:56:19","160030"
"A3HHHZF9N10QMQ","cs_wg_v9_real1","3I0BTBYZAXM4UU5YUIUQB4KHQMH0YW","26","0","UMBRELLA","10","5","0","1499","umbrella","10","2018-01-12 17:56:19","160031"
"A1JKSAQ8UNCE7B","cs_wg_v9_real1","3YWRV122CS05VAQWFLAG1YKMDWI8UT","9","0","KEYBOARD","0","5","1","5338","keyboard","0","2018-01-12 17:56:20","160032"
"A2MFQ11WV445GC","cs_wg_v9_real1","3LS2AMNW5FRGO96V5TF7OJDXPGFQO8","5","0","WEDDING","1","5","0","1704","Wedding","1","2018-01-12 17:56:20","160033"
"A2Z2OV7QGU10QN","cs_wg_v9_real1","3YHH42UU5BGKUVYZB350HWILH7D0L4","9","0","BASKET","10","5","1","2027","Basket","10","2018-01-12 17:56:21","160034"
"A1H47GTSBAPDTW","cs_wg_v9_real1","32AT8R96GLANEU55TJGLIPKNPQOSUC","18","0","LADDER","0","5","1","2471","LADDER","0","2018-01-12 17:56:21","160035"
"A3696JXTRKL2FI","cs_wg_v9_real1","3UOUJI6MTDFVABR4NTM8HX1F45QXUP","45","0","STRUCTURE","0","5","1","1227","Structure","0","2018-01-12 17:56:21","160036"
"A2VGEE0ZIZ8CBQ","cs_wg_v9_real1","3DPNQGW4LLGJAYDT70M04GQ18O464I","20","0","TRAFFIC","9","5","0","3159","traffic","9","2018-01-12 17:56:22","160037"
"A2ZNSEG0BWKTLK","cs_wg_v9_real1","3QUO65DNQUP8G2DCM2ZCYKAMS1LOUB","13","0","HELICOPTER","1","5","0","2124","helicopter","1","2018-01-12 17:56:22","160038"
"A1FMUT3U8CWI0X","cs_wg_v9_real1","337RC3OW0530NWZFE0TP2P8BB3PLVG","23","0","TRAFFIC","10","5","0","944","traffic","10","2018-01-12 17:56:22","160039"
"ALU6NGKRSTQHW","cs_wg_v9_real1","3TR2532VIPV9DGWEA794AIFKQLU6J9","12","0","MACHINE","0","5","0","3704","machine","0","2018-01-12 17:56:22","160040"
"A1YXQDZYCKILTT","cs_wg_v9_real1","3LKC68YZ3A4L862HH2EDG8VJDHWOWA","22","0","KEYBOARD","10","5","0","1742","keyboard","10","2018-01-12 17:56:23","160041"
"A5X1KZ9CCHREK","cs_wg_v9_real1","3WYGZ5XF3WG9BY0TZ5CJC2BPNZQSKF","6","0","HELICOPTER","9","5","0","4266","HELICOPTER","9","2018-01-12 17:56:24","160042"
"A3DU63P4KYJHOO","cs_wg_v9_real1","3TPZPLC3M0D628CUMIGQ0BPCPTXP3L","42","0","BASKET","1","5","0","592","basket","1","2018-01-12 17:56:24","160043"
"A2JRONMDBUJT3K","cs_wg_v9_real1","3WETL7AQWT929YUB237C25KVYTX35E","16","0","STRUCTURE","9","5","1","1891","structure","9","2018-01-12 17:56:24","160044"
"A23Y6SGE73H4IW","cs_wg_v9_real1","3NVC2EB65Q00BM4VD5C9D2IOTY0Y3O","14","0","HELICOPTER","9","5","0","1603","helicopter","9","2018-01-12 17:56:25","160045"
"AQ4PZ6W8NIDH3","cs_wg_v9_real1","386PBUZZXFYRW1ZLXBF6Z1XHGGIJLT","12","0","HELICOPTER","1","5","1","1991","helicopter","1","2018-01-12 17:56:26","160046"
"A2LZ0TBYJ91GYQ","cs_wg_v9_real1","3WYP994K17SZ85RDW7A7K5U83P2Y6U","17","0","WEDDING","0","5","1","2442","wedding","0","2018-01-12 17:56:26","160047"
"A97R988SLWMU8","cs_wg_v9_real1","34Q075JO1XE74OUVITNHXH97J1810Z","17","0","COMMUNITY","0","5","1","4130","community","0","2018-01-12 17:56:26","160048"
"A2PXJTMWGUE5DC","cs_wg_v9_real1","3IFS6Q0HJIKI53A5Z2R7ZMWCVV1SI4","9","0","BASKET","0","5","1","3030","basket","0","2018-01-12 17:56:26","160049"
"A3V4AW6DGWBHDO","cs_wg_v9_real1","33NF62TLXJ3GCVH3CB35K1K2RGDJKQ","36","0","UMBRELLA","1","5","1","1841","UMBRELLA","1","2018-01-12 17:56:27","160050"
"A199ECPSCLODO6","cs_wg_v9_real1","3OXV7EAXLERYS2UP7MHHUBYVUO836U","1","0","MACHINE","0","5","0","2900","machine","0","2018-01-12 17:56:27","160051"
"ASOALSPOWW0WY","cs_wg_v9_real1","34FNN24DCMA3P1RZRO02SZG87URY5E","15","0","LADDER","0","5","1","7685","Ladder","0","2018-01-12 17:56:28","160052"
"AFI6RY5VKOIMA","cs_wg_v9_real1","3TUI152ZZBOVSHZUZRHWCN0PW55Q1L","24","0","WEDDING","0","5","1","1371","wedding","0","2018-01-12 17:56:28","160053"
"A3696JXTRKL2FI","cs_wg_v9_real1","3UOUJI6MTDFVABR4NTM8HX1F45QXUP","46","0","TRAFFIC","10","5","0","1052","Traffic","10","2018-01-12 17:56:29","160054"
"A1KUW26JP1SB9","cs_wg_v9_real1","3KRVW3HTZNM41M0WKHPZRF3TC4LSMK","31","0","COMMUNITY","10","5","0","1390","Community","10","2018-01-12 17:56:29","160055"
"A2MFQ11WV445GC","cs_wg_v9_real1","3LS2AMNW5FRGO96V5TF7OJDXPGFQO8","6","0","BASKET","10","5","0","1140","Basket","10","2018-01-12 17:56:29","160056"
"A3DU63P4KYJHOO","cs_wg_v9_real1","3TPZPLC3M0D628CUMIGQ0BPCPTXP3L","43","0","LADDER","10","5","1","1022","ladder","10","2018-01-12 17:56:30","160057"
"A1H47GTSBAPDTW","cs_wg_v9_real1","32AT8R96GLANEU55TJGLIPKNPQOSUC","19","0","TRAFFIC","10","5","1","1687","TRAFFIC","10","2018-01-12 17:56:31","160058"
"A2Z2OV7QGU10QN","cs_wg_v9_real1","3YHH42UU5BGKUVYZB350HWILH7D0L4","10","0","LADDER","9","5","1","2049","Ladder","9","2018-01-12 17:56:32","160059"
"A1FMUT3U8CWI0X","cs_wg_v9_real1","337RC3OW0530NWZFE0TP2P8BB3PLVG","24","0","HELICOPTER","9","5","0","2310","helicopter","9","2018-01-12 17:56:32","160060"
"A31YTICDM7ZMP6","cs_wg_v9_real1","3FE2ERCCZX9VOX5G5G0IOENNKKTOPF","18","0","BOOKSHELF","0","5","0","10507","bookshelf","0","2018-01-12 17:56:33","160061"
"A1I2DW853I5VO2","cs_wg_v9_real1","32SCWG5HIH55ZRZC5KEO7E1WZKZP6R","10","0","BOOKSHELF","10","5","0","2956","BOOKSHELF","10","2018-01-12 17:56:33","160062"
"A9BFBXFNK8GR1","cs_wg_v9_real1","3WMOAN2SRBYQBW20QD94FHC0GYPVNS","15","0","MACHINE","10","5","1","6547","machine","10","2018-01-12 17:56:34","160063"
"A1JKSAQ8UNCE7B","cs_wg_v9_real1","3YWRV122CS05VAQWFLAG1YKMDWI8UT","10","0","STOMACH","10","5","0","2914","stomach ","10","2018-01-12 17:56:34","160064"
"A33KB8LHYO0HI9","cs_wg_v9_real1","31HQ4X3T3SBKV4IBK5OKR2O4CZVLSB","9","0","BOOKSHELF","9","5","0","3340","bookshelf","9","2018-01-12 17:56:34","160065"
"AQ4PZ6W8NIDH3","cs_wg_v9_real1","386PBUZZXFYRW1ZLXBF6Z1XHGGIJLT","13","0","UMBRELLA","10","5","1","1449","umbrella","10","2018-01-12 17:56:35","160066"
"A18DUG8EA8Y766","cs_wg_v9_real1","31N2WW6R9RRUBVN08FKLOHB8NNB3FX","7","0","MACHINE","9","5","1","4533","machine","9","2018-01-12 17:56:35","160067"
"A1YXQDZYCKILTT","cs_wg_v9_real1","3LKC68YZ3A4L862HH2EDG8VJDHWOWA","23","0","STOMACH","0","5","1","2476","stomach","0","2018-01-12 17:56:35","160068"
"A5X1KZ9CCHREK","cs_wg_v9_real1","3WYGZ5XF3WG9BY0TZ5CJC2BPNZQSKF","7","0","BOOKSHELF","9","5","0","3602","BOOKSHELF","9","2018-01-12 17:56:35","160069"
"A2VGEE0ZIZ8CBQ","cs_wg_v9_real1","3DPNQGW4LLGJAYDT70M04GQ18O464I","21","0","LADDER","9","5","0","1583","ladder","9","2018-01-12 17:56:35","160070"
"A2LZ0TBYJ91GYQ","cs_wg_v9_real1","3WYP994K17SZ85RDW7A7K5U83P2Y6U","18","0","TRAFFIC","0","5","0","1954","traffic","0","2018-01-12 17:56:36","160071"
"A3696JXTRKL2FI","cs_wg_v9_real1","3UOUJI6MTDFVABR4NTM8HX1F45QXUP","47","0","HELICOPTER","9","5","0","1540","Helicopter","9","2018-01-12 17:56:36","160072"
"A2JRONMDBUJT3K","cs_wg_v9_real1","3WETL7AQWT929YUB237C25KVYTX35E","17","0","MACHINE","0","5","1","5659","machine","0","2018-01-12 17:56:36","160073"
"A3DU63P4KYJHOO","cs_wg_v9_real1","3TPZPLC3M0D628CUMIGQ0BPCPTXP3L","44","0","BOOKSHELF","0","5","1","758","bookshelf","0","2018-01-12 17:56:37","160074"
"A3V4AW6DGWBHDO","cs_wg_v9_real1","33NF62TLXJ3GCVH3CB35K1K2RGDJKQ","37","0","HELICOPTER","10","5","0","1195","HELICOPTER","10","2018-01-12 17:56:37","160075"
"ALU6NGKRSTQHW","cs_wg_v9_real1","3TR2532VIPV9DGWEA794AIFKQLU6J9","13","0","DOORWAY","0","5","1","4427","doorway","0","2018-01-12 17:56:37","160076"
"A23Y6SGE73H4IW","cs_wg_v9_real1","3NVC2EB65Q00BM4VD5C9D2IOTY0Y3O","15","0","KEYBOARD","10","5","0","1637","keyboard","10","2018-01-12 17:56:38","160077"
"A1KUW26JP1SB9","cs_wg_v9_real1","3KRVW3HTZNM41M0WKHPZRF3TC4LSMK","32","0","BASKET","9","5","1","2942","Basket","9","2018-01-12 17:56:38","160078"
"A3HHHZF9N10QMQ","cs_wg_v9_real1","3I0BTBYZAXM4UU5YUIUQB4KHQMH0YW","27","0","KEYBOARD","1","5","1","11812","keyboard","1","2018-01-12 17:56:39","160079"
"A278Q2BHCINITH","cs_wg_v9_real1","34BBWHLWHACBCKREJ718WBZX18XWIN","8","0","UMBRELLA","9","5","0","6952","UMBRELLA","9","2018-01-12 17:56:40","160080"
"A1FMUT3U8CWI0X","cs_wg_v9_real1","337RC3OW0530NWZFE0TP2P8BB3PLVG","25","0","WEDDING","9","5","0","833","wedding","9","2018-01-12 17:56:40","160081"
"ASOALSPOWW0WY","cs_wg_v9_real1","34FNN24DCMA3P1RZRO02SZG87URY5E","16","0","STRUCTURE","10","5","0","3091","Structure","10","2018-01-12 17:56:40","160082"
"A199ECPSCLODO6","cs_wg_v9_real1","3OXV7EAXLERYS2UP7MHHUBYVUO836U","2","0","BASKET","9","5","0","2438","basket","9","2018-01-12 17:56:41","160083"
"A1X5IZPCRLL0Z7","cs_wg_v9_real1","3JMSRU9HQIVMHQPNXE6LPUIR26OVE3","0","0","BOOKSHELF","0","5","1","3687","Bookshelf","5","2018-01-12 17:56:41","160084"
"A2Z2OV7QGU10QN","cs_wg_v9_real1","3YHH42UU5BGKUVYZB350HWILH7D0L4","11","0","MACHINE","0","5","1","1671","Machine","0","2018-01-12 17:56:41","160085"
"A31YTICDM7ZMP6","cs_wg_v9_real1","3FE2ERCCZX9VOX5G5G0IOENNKKTOPF","19","0","FOOTBALL","10","5","0","1962","football","10","2018-01-12 17:56:43","160086"
"A3696JXTRKL2FI","cs_wg_v9_real1","3UOUJI6MTDFVABR4NTM8HX1F45QXUP","48","0","MACHINE","1","5","1","837","Machine","1","2018-01-12 17:56:43","160087"
"A2MFQ11WV445GC","cs_wg_v9_real1","3LS2AMNW5FRGO96V5TF7OJDXPGFQO8","7","0","LADDER","0","5","0","854","Ladder","0","2018-01-12 17:56:43","160088"
"A1H47GTSBAPDTW","cs_wg_v9_real1","32AT8R96GLANEU55TJGLIPKNPQOSUC","20","0","HELICOPTER","0","5","1","1708","HELICOPTER","0","2018-01-12 17:56:43","160089"
"A2ZNSEG0BWKTLK","cs_wg_v9_real1","3QUO65DNQUP8G2DCM2ZCYKAMS1LOUB","14","0","STRUCTURE","1","5","0","2012","structure","1","2018-01-12 17:56:45","160090"
"A2LZ0TBYJ91GYQ","cs_wg_v9_real1","3WYP994K17SZ85RDW7A7K5U83P2Y6U","19","0","STRUCTURE","9","5","0","1165","structure","9","2018-01-12 17:56:45","160091"
"A97R988SLWMU8","cs_wg_v9_real1","34Q075JO1XE74OUVITNHXH97J1810Z","18","0","COMMUNITY","0","5","1","2242","community","0","2018-01-12 17:56:45","160092"
"A1JKSAQ8UNCE7B","cs_wg_v9_real1","3YWRV122CS05VAQWFLAG1YKMDWI8UT","11","0","FOOTBALL","0","5","1","2186","FOOTBALL","0","2018-01-12 17:56:45","160093"
"AFI6RY5VKOIMA","cs_wg_v9_real1","3TUI152ZZBOVSHZUZRHWCN0PW55Q1L","25","0","LADDER","1","5","0","9159","ladder","1","2018-01-12 17:56:46","160094"
"A3V4AW6DGWBHDO","cs_wg_v9_real1","33NF62TLXJ3GCVH3CB35K1K2RGDJKQ","38","0","COMMUNITY","10","5","0","1196","COMMUNITY","10","2018-01-12 17:56:46","160095"
"A1KUW26JP1SB9","cs_wg_v9_real1","3KRVW3HTZNM41M0WKHPZRF3TC4LSMK","33","0","LADDER","0","5","1","1648","Ladder","0","2018-01-12 17:56:47","160096"
"A1YXQDZYCKILTT","cs_wg_v9_real1","3LKC68YZ3A4L862HH2EDG8VJDHWOWA","24","0","FOOTBALL","1","5","1","3077","football","1","2018-01-12 17:56:47","160097"
"A5X1KZ9CCHREK","cs_wg_v9_real1","3WYGZ5XF3WG9BY0TZ5CJC2BPNZQSKF","8","0","DOORWAY","10","5","1","3630","DOORWAY","10","2018-01-12 17:56:47","160098"
"A33KB8LHYO0HI9","cs_wg_v9_real1","31HQ4X3T3SBKV4IBK5OKR2O4CZVLSB","10","0","STRUCTURE","10","5","0","1912","structure","10","2018-01-12 17:56:47","160099"
"AQ4PZ6W8NIDH3","cs_wg_v9_real1","386PBUZZXFYRW1ZLXBF6Z1XHGGIJLT","14","0","DOORWAY","0","5","1","1524","doorway","0","2018-01-12 17:56:48","160100"
"A3DU63P4KYJHOO","cs_wg_v9_real1","3TPZPLC3M0D628CUMIGQ0BPCPTXP3L","45","0","FOOTBALL","10","5","0","1263","football","10","2018-01-12 17:56:48","160101"
"A3HHHZF9N10QMQ","cs_wg_v9_real1","3I0BTBYZAXM4UU5YUIUQB4KHQMH0YW","28","0","MACHINE","0","5","1","2074","machine","0","2018-01-12 17:56:48","160102"
"A2VGEE0ZIZ8CBQ","cs_wg_v9_real1","3DPNQGW4LLGJAYDT70M04GQ18O464I","22","0","HELICOPTER","1","5","1","2181","helicopter","1","2018-01-12 17:56:49","160103"
"A23Y6SGE73H4IW","cs_wg_v9_real1","3NVC2EB65Q00BM4VD5C9D2IOTY0Y3O","16","0","UMBRELLA","1","5","0","1636","umbrella","1","2018-01-12 17:56:49","160104"
"A9BFBXFNK8GR1","cs_wg_v9_real1","3WMOAN2SRBYQBW20QD94FHC0GYPVNS","16","0","WEDDING","1","5","1","4036","wedding","1","2018-01-12 17:56:49","160105"
"A3696JXTRKL2FI","cs_wg_v9_real1","3UOUJI6MTDFVABR4NTM8HX1F45QXUP","49","0","DOORWAY","9","5","0","984","Doorway","9","2018-01-12 17:56:50","160106"
"A1FMUT3U8CWI0X","cs_wg_v9_real1","337RC3OW0530NWZFE0TP2P8BB3PLVG","26","0","BOOKSHELF","9","5","0","1690","bookshelf","9","2018-01-12 17:56:51","160107"
"ALU6NGKRSTQHW","cs_wg_v9_real1","3TR2532VIPV9DGWEA794AIFKQLU6J9","14","0","FOOTBALL","10","5","0","2908","football","10","2018-01-12 17:56:51","160108"
"A2JRONMDBUJT3K","cs_wg_v9_real1","3WETL7AQWT929YUB237C25KVYTX35E","18","0","KEYBOARD","9","5","1","2618","keyboard","9","2018-01-12 17:56:51","160109"
"A18DUG8EA8Y766","cs_wg_v9_real1","31N2WW6R9RRUBVN08FKLOHB8NNB3FX","8","0","WEDDING","9","5","0","3025","wedding","9","2018-01-12 17:56:52","160110"
"A1X5IZPCRLL0Z7","cs_wg_v9_real1","3JMSRU9HQIVMHQPNXE6LPUIR26OVE3","1","0","STOMACH","1","5","1","2635","Stomach","5","2018-01-12 17:56:52","160111"
"AMNRYECHXZY34","cs_wg_v9_real1","35GCEFQ6I5P0GCE09RESR9RQZS53ZL","0","0","BASKET","9","5","0","6463","BASKET","9","2018-01-12 17:56:53","160112"
"A1I2DW853I5VO2","cs_wg_v9_real1","32SCWG5HIH55ZRZC5KEO7E1WZKZP6R","11","0","LADDER","9","5","0","4604","LADDER","9","2018-01-12 17:56:53","160113"
"AFI6RY5VKOIMA","cs_wg_v9_real1","3TUI152ZZBOVSHZUZRHWCN0PW55Q1L","26","0","LADDER","1","5","1","1291","ladder","1","2018-01-12 17:56:54","160114"
"A2MFQ11WV445GC","cs_wg_v9_real1","3LS2AMNW5FRGO96V5TF7OJDXPGFQO8","8","0","HELICOPTER","9","5","0","2439","Helicopter","9","2018-01-12 17:56:54","160115"
"A3V4AW6DGWBHDO","cs_wg_v9_real1","33NF62TLXJ3GCVH3CB35K1K2RGDJKQ","39","0","LADDER","10","5","0","1542","LADDER","10","2018-01-12 17:56:54","160116"
"ASOALSPOWW0WY","cs_wg_v9_real1","34FNN24DCMA3P1RZRO02SZG87URY5E","17","0","UMBRELLA","9","5","0","4981","Umbrella","9","2018-01-12 17:56:55","160117"
"A2Z2OV7QGU10QN","cs_wg_v9_real1","3YHH42UU5BGKUVYZB350HWILH7D0L4","12","0","LADDER","9","5","0","5285","Ladder","9","2018-01-12 17:56:55","160118"
"A97R988SLWMU8","cs_wg_v9_real1","34Q075JO1XE74OUVITNHXH97J1810Z","19","0","DOORWAY","9","5","0","1780","doorway ","9","2018-01-12 17:56:56","160119"
"A278Q2BHCINITH","cs_wg_v9_real1","34BBWHLWHACBCKREJ718WBZX18XWIN","9","0","STOMACH","1","5","1","4830","STOMACH","1","2018-01-12 17:56:56","160120"
"A2LZ0TBYJ91GYQ","cs_wg_v9_real1","3WYP994K17SZ85RDW7A7K5U83P2Y6U","20","0","TRAFFIC","0","5","1","4841","traffic","0","2018-01-12 17:56:57","160121"
"A3DU63P4KYJHOO","cs_wg_v9_real1","3TPZPLC3M0D628CUMIGQ0BPCPTXP3L","46","0","STRUCTURE","10","5","0","631","structure","10
","2018-01-12 17:56:57","160122"
"A1H47GTSBAPDTW","cs_wg_v9_real1","32AT8R96GLANEU55TJGLIPKNPQOSUC","21","0","KEYBOARD","1","5","1","3039","KEYBOARD","1","2018-01-12 17:56:57","160123"
"A1KUW26JP1SB9","cs_wg_v9_real1","3KRVW3HTZNM41M0WKHPZRF3TC4LSMK","34","0","STOMACH","10","5","0","2592","Stomach","10","2018-01-12 17:56:57","160124"
"A1JKSAQ8UNCE7B","cs_wg_v9_real1","3YWRV122CS05VAQWFLAG1YKMDWI8UT","12","0","BASKET","9","5","1","2965","BASKET","9","2018-01-12 17:56:58","160125"
"A3696JXTRKL2FI","cs_wg_v9_real1","3UOUJI6MTDFVABR4NTM8HX1F45QXUP","50","0","BASKET","1","5","1","1849","Basket","1","2018-01-12 17:56:58","160126"
"A2ZNSEG0BWKTLK","cs_wg_v9_real1","3QUO65DNQUP8G2DCM2ZCYKAMS1LOUB","15","0","COMMUNITY","1","5","1","4315","community","1","2018-01-12 17:56:58","160127"
"AQ4PZ6W8NIDH3","cs_wg_v9_real1","386PBUZZXFYRW1ZLXBF6Z1XHGGIJLT","15","0","STRUCTURE","10","5","1","2370","structure","10","2018-01-12 17:56:59","160128"
"A3HHHZF9N10QMQ","cs_wg_v9_real1","3I0BTBYZAXM4UU5YUIUQB4KHQMH0YW","29","0","LADDER","1","5","1","1867","ladder","1","2018-01-12 17:56:59","160129"
"A5X1KZ9CCHREK","cs_wg_v9_real1","3WYGZ5XF3WG9BY0TZ5CJC2BPNZQSKF","9","0","STRUCTURE","0","5","0","3153","STRUCTURE","0","2018-01-12 17:56:59","160130"
"A23Y6SGE73H4IW","cs_wg_v9_real1","3NVC2EB65Q00BM4VD5C9D2IOTY0Y3O","17","0","TRAFFIC","9","5","1","2106","traffic","9","2018-01-12 17:57:00","160131"
"A1FMUT3U8CWI0X","cs_wg_v9_real1","337RC3OW0530NWZFE0TP2P8BB3PLVG","27","0","LADDER","10","5","0","1820","ladder","10","2018-01-12 17:57:00","160132"
"A31YTICDM7ZMP6","cs_wg_v9_real1","3FE2ERCCZX9VOX5G5G0IOENNKKTOPF","20","0","BASKET","9","5","0","4407","basket","9","2018-01-12 17:57:01","160133"
"A1YXQDZYCKILTT","cs_wg_v9_real1","3LKC68YZ3A4L862HH2EDG8VJDHWOWA","25","0","MACHINE","9","5","1","4911","machine","9","2018-01-12 17:57:01","160134"
"A1KM74B61EGW3Y","cs_wg_v9_real1","3I02618YA07Q12PD12CRNKFC26HPUT","0","0","BOOKSHELF","0","5","1","6424","bookshelf","0","2018-01-12 17:57:01","160135"
"A9BFBXFNK8GR1","cs_wg_v9_real1","3WMOAN2SRBYQBW20QD94FHC0GYPVNS","17","0","BOOKSHELF","10","5","0","1976","bookshelf","10","2018-01-12 17:57:02","160136"
"A33KB8LHYO0HI9","cs_wg_v9_real1","31HQ4X3T3SBKV4IBK5OKR2O4CZVLSB","11","0","BOOKSHELF","9","5","0","2985","bookshelf","9","2018-01-12 17:57:02","160137"
"AFI6RY5VKOIMA","cs_wg_v9_real1","3TUI152ZZBOVSHZUZRHWCN0PW55Q1L","27","0","WEDDING","0","5","1","1183","wedding","0","2018-01-12 17:57:02","160138"
"A3V4AW6DGWBHDO","cs_wg_v9_real1","33NF62TLXJ3GCVH3CB35K1K2RGDJKQ","40","0","HELICOPTER","10","5","0","895","HELICOPTER","10","2018-01-12 17:57:03","160139"
"A3DU63P4KYJHOO","cs_wg_v9_real1","3TPZPLC3M0D628CUMIGQ0BPCPTXP3L","47","0","MACHINE","0","5","0","929","machine","0","2018-01-12 17:57:03","160140"
"ALU6NGKRSTQHW","cs_wg_v9_real1","3TR2532VIPV9DGWEA794AIFKQLU6J9","15","0","STOMACH","0","5","1","3004","stomach","0","2018-01-12 17:57:04","160141"
"A2VGEE0ZIZ8CBQ","cs_wg_v9_real1","3DPNQGW4LLGJAYDT70M04GQ18O464I","23","0","BOOKSHELF","0","5","1","5351","bookshelf","0","2018-01-12 17:57:05","160142"
"A2JRONMDBUJT3K","cs_wg_v9_real1","3WETL7AQWT929YUB237C25KVYTX35E","19","0","BOOKSHELF","10","5","0","1403","bookshelf","10","2018-01-12 17:57:05","160143"
"A2MFQ11WV445GC","cs_wg_v9_real1","3LS2AMNW5FRGO96V5TF7OJDXPGFQO8","9","0","LADDER","0","5","0","3416","Ladder","0","2018-01-12 17:57:05","160144"
"A18DUG8EA8Y766","cs_wg_v9_real1","31N2WW6R9RRUBVN08FKLOHB8NNB3FX","9","0","UMBRELLA","10","5","0","2690","umbrella","10","2018-01-12 17:57:05","160145"
"A2LZ0TBYJ91GYQ","cs_wg_v9_real1","3WYP994K17SZ85RDW7A7K5U83P2Y6U","21","0","STRUCTURE","9","5","0","1802","structure","9","2018-01-12 17:57:06","160146"
"A1X5IZPCRLL0Z7","cs_wg_v9_real1","3JMSRU9HQIVMHQPNXE6LPUIR26OVE3","2","0","WEDDING","10","5","1","2402","Wedding","10","2018-01-12 17:57:06","160147"
"ASOALSPOWW0WY","cs_wg_v9_real1","34FNN24DCMA3P1RZRO02SZG87URY5E","18","0","STOMACH","0","5","1","2089","Stomach","0","2018-01-12 17:57:07","160148"
"A1KUW26JP1SB9","cs_wg_v9_real1","3KRVW3HTZNM41M0WKHPZRF3TC4LSMK","35","0","BOOKSHELF","1","5","0","1726","Bookshelf","1","2018-01-12 17:57:07","160149"
"A3696JXTRKL2FI","cs_wg_v9_real1","3UOUJI6MTDFVABR4NTM8HX1F45QXUP","51","0","COMMUNITY","10","5","0","1601","Community","10","2018-01-12 17:57:07","160150"
"A199ECPSCLODO6","cs_wg_v9_real1","3OXV7EAXLERYS2UP7MHHUBYVUO836U","3","0","KEYBOARD","1","5","0","1936","keyboard","1","2018-01-12 17:57:07","160151"
"A97R988SLWMU8","cs_wg_v9_real1","34Q075JO1XE74OUVITNHXH97J1810Z","20","0","STRUCTURE","1","5","1","4531","structure","1","2018-01-12 17:57:08","160152"
"A3HHHZF9N10QMQ","cs_wg_v9_real1","3I0BTBYZAXM4UU5YUIUQB4KHQMH0YW","30","0","FOOTBALL","0","5","1","2682","football","0","2018-01-12 17:57:08","160153"
"A2Z2OV7QGU10QN","cs_wg_v9_real1","3YHH42UU5BGKUVYZB350HWILH7D0L4","13","0","TRAFFIC","9","5","1","3416","Traffic","9","2018-01-12 17:57:09","160154"
"A1JKSAQ8UNCE7B","cs_wg_v9_real1","3YWRV122CS05VAQWFLAG1YKMDWI8UT","13","0","MACHINE","10","5","1","2137","MACHINE ","10","2018-01-12 17:57:09","160155"
"A1FMUT3U8CWI0X","cs_wg_v9_real1","337RC3OW0530NWZFE0TP2P8BB3PLVG","28","0","BOOKSHELF","9","5","0","1085","bookshelf","9","2018-01-12 17:57:09","160156"
"A3DU63P4KYJHOO","cs_wg_v9_real1","3TPZPLC3M0D628CUMIGQ0BPCPTXP3L","48","0","TRAFFIC","9","5","0","785","traffic","9","2018-01-12 17:57:10","160157"
"A1H47GTSBAPDTW","cs_wg_v9_real1","32AT8R96GLANEU55TJGLIPKNPQOSUC","22","0","WEDDING","10","5","0","2378","WEDDING","10","2018-01-12 17:57:10","160158"
"AFI6RY5VKOIMA","cs_wg_v9_real1","3TUI152ZZBOVSHZUZRHWCN0PW55Q1L","28","0","DOORWAY","1","5","0","1880","doorway","1","2018-01-12 17:57:11","160159"
"A5X1KZ9CCHREK","cs_wg_v9_real1","3WYGZ5XF3WG9BY0TZ5CJC2BPNZQSKF","10","0","TRAFFIC","1","5","0","3311","TRAFFIC","1","2018-01-12 17:57:11","160160"
"AMNRYECHXZY34","cs_wg_v9_real1","35GCEFQ6I5P0GCE09RESR9RQZS53ZL","1","0","HELICOPTER","10","5","0","5688","HELICOPTER","10","2018-01-12 17:57:12","160161"
"A1I2DW853I5VO2","cs_wg_v9_real1","32SCWG5HIH55ZRZC5KEO7E1WZKZP6R","12","0","COMMUNITY","1","5","1","3504","COMMUNITY","1","2018-01-12 17:57:12","160162"
"A3V4AW6DGWBHDO","cs_wg_v9_real1","33NF62TLXJ3GCVH3CB35K1K2RGDJKQ","41","0","FOOTBALL","0","5","1","2293","FOOTBALL","0","2018-01-12 17:57:12","160163"
"A31YTICDM7ZMP6","cs_wg_v9_real1","3FE2ERCCZX9VOX5G5G0IOENNKKTOPF","21","0","WEDDING","9","5","0","3352","wedding","9","2018-01-12 17:57:12","160164"
"AQ4PZ6W8NIDH3","cs_wg_v9_real1","386PBUZZXFYRW1ZLXBF6Z1XHGGIJLT","16","0","BOOKSHELF","9","5","1","3720","bookshelf","9","2018-01-12 17:57:13","160165"
"A3696JXTRKL2FI","cs_wg_v9_real1","3UOUJI6MTDFVABR4NTM8HX1F45QXUP","52","0","TRAFFIC","10","5","0","866","Traffic","10","2018-01-12 17:57:14","160166"
"A9BFBXFNK8GR1","cs_wg_v9_real1","3WMOAN2SRBYQBW20QD94FHC0GYPVNS","18","0","UMBRELLA","0","5","1","2197","umbrella","0","2018-01-12 17:57:14","160167"
"A23Y6SGE73H4IW","cs_wg_v9_real1","3NVC2EB65Q00BM4VD5C9D2IOTY0Y3O","18","0","BOOKSHELF","1","5","0","5215","bookshelf","1","2018-01-12 17:57:15","160168"
"A2LZ0TBYJ91GYQ","cs_wg_v9_real1","3WYP994K17SZ85RDW7A7K5U83P2Y6U","22","0","FOOTBALL","10","5","0","1649","football","10","2018-01-12 17:57:15","160169"
"A1YXQDZYCKILTT","cs_wg_v9_real1","3LKC68YZ3A4L862HH2EDG8VJDHWOWA","26","0","WEDDING","0","5","1","2388","wedding","0","2018-01-12 17:57:15","160170"
"A2MFQ11WV445GC","cs_wg_v9_real1","3LS2AMNW5FRGO96V5TF7OJDXPGFQO8","10","0","KEYBOARD","1","5","0","1646","Keyboard","1","2018-01-12 17:57:15","160171"
"A2ZNSEG0BWKTLK","cs_wg_v9_real1","3QUO65DNQUP8G2DCM2ZCYKAMS1LOUB","16","0","MACHINE","9","5","0","2523","machine","9","2018-01-12 17:57:15","160172"
"A2JRONMDBUJT3K","cs_wg_v9_real1","3WETL7AQWT929YUB237C25KVYTX35E","20","0","TRAFFIC","10","5","0","3571","traffic","10","2018-01-12 17:57:15","160173"
"A33KB8LHYO0HI9","cs_wg_v9_real1","31HQ4X3T3SBKV4IBK5OKR2O4CZVLSB","12","0","DOORWAY","9","5","1","2280","doorway","9","2018-01-12 17:57:16","160174"
"A1KUW26JP1SB9","cs_wg_v9_real1","3KRVW3HTZNM41M0WKHPZRF3TC4LSMK","36","0","COMMUNITY","10","5","1","1802","Community","10","2018-01-12 17:57:16","160175"
"A3DU63P4KYJHOO","cs_wg_v9_real1","3TPZPLC3M0D628CUMIGQ0BPCPTXP3L","49","0","WEDDING","9","5","0","603","wedding","9","2018-01-12 17:57:16","160176"
"ALU6NGKRSTQHW","cs_wg_v9_real1","3TR2532VIPV9DGWEA794AIFKQLU6J9","16","0","MACHINE","0","5","0","3585","machine","0","2018-01-12 17:57:18","160177"
"A97R988SLWMU8","cs_wg_v9_real1","34Q075JO1XE74OUVITNHXH97J1810Z","21","0","MACHINE","0","5","1","1732","machine","0","2018-01-12 17:57:18","160178"
"A1FMUT3U8CWI0X","cs_wg_v9_real1","337RC3OW0530NWZFE0TP2P8BB3PLVG","29","0","STOMACH","10","5","0","2026","stomach","10","2018-01-12 17:57:18","160179"
"A3HHHZF9N10QMQ","cs_wg_v9_real1","3I0BTBYZAXM4UU5YUIUQB4KHQMH0YW","31","0","STOMACH","0","5","1","1738","stomach","0","2018-01-12 17:57:18","160180"
