"subject","version","assignmentId","trial_type","word","value","alt","choice","rt","resp","resp2","stamp","id"
"AMPMTF5IAAMK8","cs_wg_v3_pilot1","3T3IWE1XG6OW11B31A16ITJI928QTF","0","BASKET","0","5","0","7397","basket","0","2017-03-22 23:24:42","61"
"AMPMTF5IAAMK8","cs_wg_v3_pilot1","3T3IWE1XG6OW11B31A16ITJI928QTF","0","MACHINE","0","5","0","7397","machine","0","2017-03-22 23:24:52","62"
"AMPMTF5IAAMK8","cs_wg_v3_pilot1","3T3IWE1XG6OW11B31A16ITJI928QTF","0","KEYBOARD","9","5","0","7397","keyboard","9","2017-03-22 23:25:03","63"
"A1LRDHZZUVF9AZ","cs_wg_v3_pilot1","3YJ6NA41JBHHNMEJP38DGI6Z64VJPC","0","HELICOPTER","9","5","0","7763","HELICOPTER","9","2017-03-22 23:25:15","64"
"AMPMTF5IAAMK8","cs_wg_v3_pilot1","3T3IWE1XG6OW11B31A16ITJI928QTF","0","BOOKSHELF","0","5","0","7397","bookshelf","0","2017-03-22 23:25:20","65"
"A1LRDHZZUVF9AZ","cs_wg_v3_pilot1","3YJ6NA41JBHHNMEJP38DGI6Z64VJPC","0","DOORWAY","2","5","1","7763","DOORWAY","2","2017-03-22 23:25:30","66"
"AMPMTF5IAAMK8","cs_wg_v3_pilot1","3T3IWE1XG6OW11B31A16ITJI928QTF","0","MACHINE","0","5","1","7397","machine","0","2017-03-22 23:25:35","67"
"A1LRDHZZUVF9AZ","cs_wg_v3_pilot1","3YJ6NA41JBHHNMEJP38DGI6Z64VJPC","0","BASKET","10","5","1","7763","BASKET","10","2017-03-22 23:25:39","68"
"AMPMTF5IAAMK8","cs_wg_v3_pilot1","3T3IWE1XG6OW11B31A16ITJI928QTF","0","BOOKSHELF","0","5","1","7397","bookshelf","0","2017-03-22 23:25:45","69"
"A1LRDHZZUVF9AZ","cs_wg_v3_pilot1","3YJ6NA41JBHHNMEJP38DGI6Z64VJPC","0","WEDDING","0","5","1","7763","WEDDING","0","2017-03-22 23:25:49","70"
"AMPMTF5IAAMK8","cs_wg_v3_pilot1","3T3IWE1XG6OW11B31A16ITJI928QTF","0","FOOTBALL","1","5","1","7397","football","1","2017-03-22 23:25:54","71"
"AMPMTF5IAAMK8","cs_wg_v3_pilot1","3T3IWE1XG6OW11B31A16ITJI928QTF","0","COMMUNITY","9","5","1","7397","community","9","2017-03-22 23:26:09","72"
"AMPMTF5IAAMK8","cs_wg_v3_pilot1","3T3IWE1XG6OW11B31A16ITJI928QTF","0","BOOKSHELF","0","5","0","7397","bookshelf","0","2017-03-22 23:26:20","73"
"AMPMTF5IAAMK8","cs_wg_v3_pilot1","3T3IWE1XG6OW11B31A16ITJI928QTF","0","MACHINE","0","5","1","7397","machine","0","2017-03-22 23:26:35","74"
"AMPMTF5IAAMK8","cs_wg_v3_pilot1","3T3IWE1XG6OW11B31A16ITJI928QTF","0","TRAFFIC","10","5","1","7397","traffic","10","2017-03-22 23:26:44","75"
"APR6H3HAOE9OU","cs_wg_v3_pilot1","3NOKK93PR195FF312OHBPQU3NPXEE1","0","LADDER","0","5","1","5820","ladder","0","2017-03-22 23:26:57","76"
"AMPMTF5IAAMK8","cs_wg_v3_pilot1","3T3IWE1XG6OW11B31A16ITJI928QTF","0","HELICOPTER","8","5","1","7397","helicoptor","8","2017-03-22 23:27:01","77"
"A1O0DVNTMUGRLK","cs_wg_v3_pilot1","352YTHGROVEZ7NXA3JD417FP2GVH4E","0","KEYBOARD","8","5","0","3828","keyboard","8","2017-03-22 23:27:02","78"
"APR6H3HAOE9OU","cs_wg_v3_pilot1","3NOKK93PR195FF312OHBPQU3NPXEE1","0","DOORWAY","1","5","1","5820","doorway","1","2017-03-22 23:27:10","79"
"AMPMTF5IAAMK8","cs_wg_v3_pilot1","3T3IWE1XG6OW11B31A16ITJI928QTF","0","MACHINE","0","5","0","7397","MACHINE","0","2017-03-22 23:27:11","80"
"A1O0DVNTMUGRLK","cs_wg_v3_pilot1","352YTHGROVEZ7NXA3JD417FP2GVH4E","0","STRUCTURE","10","5","0","3828","structure ","10","2017-03-22 23:27:19","81"
"AMPMTF5IAAMK8","cs_wg_v3_pilot1","3T3IWE1XG6OW11B31A16ITJI928QTF","0","WEDDING","2","5","1","7397","WEDDING","2","2017-03-22 23:27:20","82"
"APR6H3HAOE9OU","cs_wg_v3_pilot1","3NOKK93PR195FF312OHBPQU3NPXEE1","0","BOOKSHELF","8","5","1","5820","bookshelf","8","2017-03-22 23:27:21","83"
"AMPMTF5IAAMK8","cs_wg_v3_pilot1","3T3IWE1XG6OW11B31A16ITJI928QTF","0","WEDDING","2","5","1","7397","WEDDING","2","2017-03-22 23:27:30","84"
"APR6H3HAOE9OU","cs_wg_v3_pilot1","3NOKK93PR195FF312OHBPQU3NPXEE1","0","KEYBOARD","9","5","1","5820","keyboard","9","2017-03-22 23:27:32","85"
"AMPMTF5IAAMK8","cs_wg_v3_pilot1","3T3IWE1XG6OW11B31A16ITJI928QTF","0","TRAFFIC","10","5","0","7397","traffic ","10","2017-03-22 23:27:42","86"
"APR6H3HAOE9OU","cs_wg_v3_pilot1","3NOKK93PR195FF312OHBPQU3NPXEE1","0","DOORWAY","1","5","1","5820","doorway","1","2017-03-22 23:27:45","87"
"A3MPHGI584PR1U","cs_wg_v3_pilot1","3VAR3R6G1P2AI56ZJZY72SSVGO5O8G","0","WEDDING","1","5","0","2952","wedding","1","2017-03-22 23:27:47","88"
"AMPMTF5IAAMK8","cs_wg_v3_pilot1","3T3IWE1XG6OW11B31A16ITJI928QTF","0","FOOTBALL","1","5","1","7397","FOOTBALL","1","2017-03-22 23:27:51","89"
"A1O0DVNTMUGRLK","cs_wg_v3_pilot1","352YTHGROVEZ7NXA3JD417FP2GVH4E","0","BASKET","10","5","0","3828","basket ","10","2017-03-22 23:27:51","90"
"APR6H3HAOE9OU","cs_wg_v3_pilot1","3NOKK93PR195FF312OHBPQU3NPXEE1","0","WEDDING","0","5","1","5820","wedding","0","2017-03-22 23:27:57","91"
"AMPMTF5IAAMK8","cs_wg_v3_pilot1","3T3IWE1XG6OW11B31A16ITJI928QTF","0","UMBRELLA","10","5","1","7397","UMBRELLA","10","2017-03-22 23:28:00","92"
"A3MPHGI584PR1U","cs_wg_v3_pilot1","3VAR3R6G1P2AI56ZJZY72SSVGO5O8G","0","STRUCTURE","10","5","0","2952","structure","10","2017-03-22 23:28:04","93"
"APR6H3HAOE9OU","cs_wg_v3_pilot1","3NOKK93PR195FF312OHBPQU3NPXEE1","0","FOOTBALL","9","5","1","5820","football","9","2017-03-22 23:28:07","94"
"AMPMTF5IAAMK8","cs_wg_v3_pilot1","3T3IWE1XG6OW11B31A16ITJI928QTF","0","DOORWAY","10","5","0","7397","DOORWAY","10","2017-03-22 23:28:10","95"
"A1O0DVNTMUGRLK","cs_wg_v3_pilot1","352YTHGROVEZ7NXA3JD417FP2GVH4E","0","FOOTBALL","2","5","0","3828","football","2","2017-03-22 23:28:11","96"
"A3MPHGI584PR1U","cs_wg_v3_pilot1","3VAR3R6G1P2AI56ZJZY72SSVGO5O8G","0","DOORWAY","0","5","0","2952","doorway","0","2017-03-22 23:28:16","97"
"APR6H3HAOE9OU","cs_wg_v3_pilot1","3NOKK93PR195FF312OHBPQU3NPXEE1","0","MACHINE","10","5","1","5820","machine","10","2017-03-22 23:28:17","98"
"AMPMTF5IAAMK8","cs_wg_v3_pilot1","3T3IWE1XG6OW11B31A16ITJI928QTF","0","STOMACH","1","5","1","7397","stomach","1","2017-03-22 23:28:20","99"
"A1O0DVNTMUGRLK","cs_wg_v3_pilot1","352YTHGROVEZ7NXA3JD417FP2GVH4E","0","FOOTBALL","2","5","1","3828","football ","2","2017-03-22 23:28:25","100"
"A3MPHGI584PR1U","cs_wg_v3_pilot1","3VAR3R6G1P2AI56ZJZY72SSVGO5O8G","0","LADDER","1","5","0","2952","ladder","1","2017-03-22 23:28:27","101"
"AMPMTF5IAAMK8","cs_wg_v3_pilot1","3T3IWE1XG6OW11B31A16ITJI928QTF","0","TRAFFIC","10","5","0","7397","TRAFFIC","10","2017-03-22 23:28:30","102"
"APR6H3HAOE9OU","cs_wg_v3_pilot1","3NOKK93PR195FF312OHBPQU3NPXEE1","0","KEYBOARD","9","5","0","5820","keyboard","9","2017-03-22 23:28:34","103"
"AMPMTF5IAAMK8","cs_wg_v3_pilot1","3T3IWE1XG6OW11B31A16ITJI928QTF","0","BOOKSHELF","0","5","1","7397","BOOKSHELF","0","2017-03-22 23:28:39","104"
"A3MPHGI584PR1U","cs_wg_v3_pilot1","3VAR3R6G1P2AI56ZJZY72SSVGO5O8G","0","MACHINE","9","5","0","2952","machine","9","2017-03-22 23:28:41","105"
"APR6H3HAOE9OU","cs_wg_v3_pilot1","3NOKK93PR195FF312OHBPQU3NPXEE1","0","DOORWAY","1","5","1","5820","doorway","1","2017-03-22 23:28:44","106"
"A1O0DVNTMUGRLK","cs_wg_v3_pilot1","352YTHGROVEZ7NXA3JD417FP2GVH4E","0","TRAFFIC","8","5","0","3828","traffic","8","2017-03-22 23:28:45","107"
"AMPMTF5IAAMK8","cs_wg_v3_pilot1","3T3IWE1XG6OW11B31A16ITJI928QTF","0","FOOTBALL","1","5","1","7397","FOOTBALL","1","2017-03-22 23:28:49","108"
"APR6H3HAOE9OU","cs_wg_v3_pilot1","3NOKK93PR195FF312OHBPQU3NPXEE1","0","BASKET","2","5","1","5820","basket","2","2017-03-22 23:28:54","109"
"AMPMTF5IAAMK8","cs_wg_v3_pilot1","3T3IWE1XG6OW11B31A16ITJI928QTF","0","DOORWAY","10","5","1","7397","DOORWAY","10","2017-03-22 23:28:58","110"
"A1O0DVNTMUGRLK","cs_wg_v3_pilot1","352YTHGROVEZ7NXA3JD417FP2GVH4E","0","BOOKSHELF","10","5","0","3828","bookshelf","10","2017-03-22 23:29:00","111"
"A3MPHGI584PR1U","cs_wg_v3_pilot1","3VAR3R6G1P2AI56ZJZY72SSVGO5O8G","0","STOMACH","2","5","1","2952","stomach","2","2017-03-22 23:29:02","112"
"APR6H3HAOE9OU","cs_wg_v3_pilot1","3NOKK93PR195FF312OHBPQU3NPXEE1","0","UMBRELLA","2","5","1","5820","umbrella","2","2017-03-22 23:29:08","113"
"A1O0DVNTMUGRLK","cs_wg_v3_pilot1","352YTHGROVEZ7NXA3JD417FP2GVH4E","0","BOOKSHELF","10","5","0","3828","bookshelf","10","2017-03-22 23:29:13","114"
"AMPMTF5IAAMK8","cs_wg_v3_pilot1","3T3IWE1XG6OW11B31A16ITJI928QTF","0","LADDER","8","5","0","7397","LADDER","8","2017-03-22 23:29:16","115"
"A3MPHGI584PR1U","cs_wg_v3_pilot1","3VAR3R6G1P2AI56ZJZY72SSVGO5O8G","0","BASKET","10","5","1","2952","basket","10","2017-03-22 23:29:17","116"
"APR6H3HAOE9OU","cs_wg_v3_pilot1","3NOKK93PR195FF312OHBPQU3NPXEE1","0","DOORWAY","1","5","1","5820","doorway","1","2017-03-22 23:29:20","117"
"A1O0DVNTMUGRLK","cs_wg_v3_pilot1","352YTHGROVEZ7NXA3JD417FP2GVH4E","0","TRAFFIC","8","5","0","3828","traffic","8","2017-03-22 23:29:25","118"
"AMPMTF5IAAMK8","cs_wg_v3_pilot1","3T3IWE1XG6OW11B31A16ITJI928QTF","0","LADDER","8","5","0","7397","LADDER","8","2017-03-22 23:29:25","119"
"A3MPHGI584PR1U","cs_wg_v3_pilot1","3VAR3R6G1P2AI56ZJZY72SSVGO5O8G","0","TRAFFIC","9","5","0","2952","traffic","9","2017-03-22 23:29:31","120"
"AMPMTF5IAAMK8","cs_wg_v3_pilot1","3T3IWE1XG6OW11B31A16ITJI928QTF","0","MACHINE","0","5","1","7397","MACHINE","0","2017-03-22 23:29:34","121"
"APR6H3HAOE9OU","cs_wg_v3_pilot1","3NOKK93PR195FF312OHBPQU3NPXEE1","0","COMMUNITY","10","5","0","5820","community","10","2017-03-22 23:29:34","122"
"A1O0DVNTMUGRLK","cs_wg_v3_pilot1","352YTHGROVEZ7NXA3JD417FP2GVH4E","0","UMBRELLA","0","5","0","3828","umbrella","0","2017-03-22 23:29:41","123"
"APR6H3HAOE9OU","cs_wg_v3_pilot1","3NOKK93PR195FF312OHBPQU3NPXEE1","0","MACHINE","10","5","0","5820","machine","10","2017-03-22 23:29:46","124"
"A3MPHGI584PR1U","cs_wg_v3_pilot1","3VAR3R6G1P2AI56ZJZY72SSVGO5O8G","0","UMBRELLA","10","5","1","2952","umbrella","10","2017-03-22 23:29:46","125"
"AMPMTF5IAAMK8","cs_wg_v3_pilot1","3T3IWE1XG6OW11B31A16ITJI928QTF","0","STRUCTURE","2","5","0","7397","STRUCTURE","2","2017-03-22 23:29:47","126"
"APR6H3HAOE9OU","cs_wg_v3_pilot1","3NOKK93PR195FF312OHBPQU3NPXEE1","0","STOMACH","0","5","1","5820","stomach","0","2017-03-22 23:29:56","127"
"A1O0DVNTMUGRLK","cs_wg_v3_pilot1","352YTHGROVEZ7NXA3JD417FP2GVH4E","0","KEYBOARD","8","5","0","3828","keybroad","8","2017-03-22 23:30:00","128"
"AMPMTF5IAAMK8","cs_wg_v3_pilot1","3T3IWE1XG6OW11B31A16ITJI928QTF","0","BASKET","0","5","1","7397","BASKET","0","2017-03-22 23:30:00","129"
"A3BUWQ5C39GRQC","cs_wg_v3_pilot1","3HHRAGRYX86AWAP9OR4L2ON60UNO95","0","TRAFFIC","0","5","0","4572","traffic","0","2017-03-22 23:30:01","130"
"APR6H3HAOE9OU","cs_wg_v3_pilot1","3NOKK93PR195FF312OHBPQU3NPXEE1","0","TRAFFIC","10","5","1","5820","traffic","10","2017-03-22 23:30:06","131"
"A3MPHGI584PR1U","cs_wg_v3_pilot1","3VAR3R6G1P2AI56ZJZY72SSVGO5O8G","0","TRAFFIC","9","5","0","2952","traffic","10","2017-03-22 23:30:09","132"
"A1O0DVNTMUGRLK","cs_wg_v3_pilot1","352YTHGROVEZ7NXA3JD417FP2GVH4E","0","STRUCTURE","10","5","0","3828","structure ","10","2017-03-22 23:30:11","133"
"AMPMTF5IAAMK8","cs_wg_v3_pilot1","3T3IWE1XG6OW11B31A16ITJI928QTF","0","DOORWAY","10","5","0","7397","DOORWAY","10","2017-03-22 23:30:14","134"
"APR6H3HAOE9OU","cs_wg_v3_pilot1","3NOKK93PR195FF312OHBPQU3NPXEE1","0","UMBRELLA","2","5","1","5820","umbrella","2","2017-03-22 23:30:18","135"
"A3BUWQ5C39GRQC","cs_wg_v3_pilot1","3HHRAGRYX86AWAP9OR4L2ON60UNO95","0","FOOTBALL","8","5","1","4572","football","8","2017-03-22 23:30:19","136"
"A3MPHGI584PR1U","cs_wg_v3_pilot1","3VAR3R6G1P2AI56ZJZY72SSVGO5O8G","0","UMBRELLA","10","5","0","2952","umbrella","10","2017-03-22 23:30:24","137"
"AMPMTF5IAAMK8","cs_wg_v3_pilot1","3T3IWE1XG6OW11B31A16ITJI928QTF","0","BOOKSHELF","0","5","1","7397","BOOKSHELF","0","2017-03-22 23:30:24","138"
"APR6H3HAOE9OU","cs_wg_v3_pilot1","3NOKK93PR195FF312OHBPQU3NPXEE1","0","UMBRELLA","2","5","1","5820","umbrella","2","2017-03-22 23:30:28","139"
"AMPMTF5IAAMK8","cs_wg_v3_pilot1","3T3IWE1XG6OW11B31A16ITJI928QTF","0","WEDDING","2","5","1","7397","WEDDING","2","2017-03-22 23:30:32","140"
"A3BUWQ5C39GRQC","cs_wg_v3_pilot1","3HHRAGRYX86AWAP9OR4L2ON60UNO95","0","WEDDING","10","5","0","4572","wedding","10","2017-03-22 23:30:34","141"
"A1O0DVNTMUGRLK","cs_wg_v3_pilot1","352YTHGROVEZ7NXA3JD417FP2GVH4E","0","WEDDING","1","5","0","3828","wedding","1","2017-03-22 23:30:38","142"
"A3MPHGI584PR1U","cs_wg_v3_pilot1","3VAR3R6G1P2AI56ZJZY72SSVGO5O8G","0","COMMUNITY","0","5","1","2952","community","0","2017-03-22 23:30:38","143"
"APR6H3HAOE9OU","cs_wg_v3_pilot1","3NOKK93PR195FF312OHBPQU3NPXEE1","0","TRAFFIC","10","5","0","5820","traffic","10","2017-03-22 23:30:39","144"
"AMPMTF5IAAMK8","cs_wg_v3_pilot1","3T3IWE1XG6OW11B31A16ITJI928QTF","0","STOMACH","1","5","1","7397","STOMACH","1","2017-03-22 23:30:41","145"
"A3BUWQ5C39GRQC","cs_wg_v3_pilot1","3HHRAGRYX86AWAP9OR4L2ON60UNO95","0","DOORWAY","2","5","0","4572","doorway","2","2017-03-22 23:30:46","146"
"AMPMTF5IAAMK8","cs_wg_v3_pilot1","3T3IWE1XG6OW11B31A16ITJI928QTF","0","HELICOPTER","8","5","1","7397","HELICOPTER","8","2017-03-22 23:30:50","147"
"APR6H3HAOE9OU","cs_wg_v3_pilot1","3NOKK93PR195FF312OHBPQU3NPXEE1","0","LADDER","0","5","1","5820","ladder","0","2017-03-22 23:30:50","148"
"A3MPHGI584PR1U","cs_wg_v3_pilot1","3VAR3R6G1P2AI56ZJZY72SSVGO5O8G","0","STRUCTURE","10","5","0","2952","structure","10","2017-03-22 23:30:51","149"
"A1O0DVNTMUGRLK","cs_wg_v3_pilot1","352YTHGROVEZ7NXA3JD417FP2GVH4E","0","DOORWAY","2","5","0","3828","doorway","2","2017-03-22 23:30:52","150"
"AMPMTF5IAAMK8","cs_wg_v3_pilot1","3T3IWE1XG6OW11B31A16ITJI928QTF","0","UMBRELLA","10","5","0","7397","UMBRELLA","10","2017-03-22 23:31:02","151"
"A3MPHGI584PR1U","cs_wg_v3_pilot1","3VAR3R6G1P2AI56ZJZY72SSVGO5O8G","0","LADDER","1","5","1","2952","ladder","1","2017-03-22 23:31:02","152"
"A3BUWQ5C39GRQC","cs_wg_v3_pilot1","3HHRAGRYX86AWAP9OR4L2ON60UNO95","0","HELICOPTER","8","5","1","4572","helicopter","8","2017-03-22 23:31:03","153"
"A1O0DVNTMUGRLK","cs_wg_v3_pilot1","352YTHGROVEZ7NXA3JD417FP2GVH4E","0","TRAFFIC","8","5","0","3828","traffic","8","2017-03-22 23:31:05","154"
"APR6H3HAOE9OU","cs_wg_v3_pilot1","3NOKK93PR195FF312OHBPQU3NPXEE1","0","STRUCTURE","8","5","0","5820","structure","8","2017-03-22 23:31:07","155"
"AMPMTF5IAAMK8","cs_wg_v3_pilot1","3T3IWE1XG6OW11B31A16ITJI928QTF","0","HELICOPTER","8","5","0","7397","HELICOPTER","8","2017-03-22 23:31:11","156"
"APR6H3HAOE9OU","cs_wg_v3_pilot1","3NOKK93PR195FF312OHBPQU3NPXEE1","0","DOORWAY","1","5","1","5820","doorway","1","2017-03-22 23:31:17","157"
"A3MPHGI584PR1U","cs_wg_v3_pilot1","3VAR3R6G1P2AI56ZJZY72SSVGO5O8G","0","HELICOPTER","0","5","1","2952","helicopter","0","2017-03-22 23:31:18","158"
"A1O0DVNTMUGRLK","cs_wg_v3_pilot1","352YTHGROVEZ7NXA3JD417FP2GVH4E","0","KEYBOARD","8","5","0","3828","keybroad","8","2017-03-22 23:31:20","159"
"A3BUWQ5C39GRQC","cs_wg_v3_pilot1","3HHRAGRYX86AWAP9OR4L2ON60UNO95","0","LADDER","9","5","0","4572","ladder","9","2017-03-22 23:31:20","160"
"AMPMTF5IAAMK8","cs_wg_v3_pilot1","3T3IWE1XG6OW11B31A16ITJI928QTF","0","KEYBOARD","9","5","1","7397","KEYBOARD","9","2017-03-22 23:31:20","161"
"AMPMTF5IAAMK8","cs_wg_v3_pilot1","3T3IWE1XG6OW11B31A16ITJI928QTF","0","DOORWAY","10","5","1","7397","DOORWAY","10","2017-03-22 23:31:29","162"
"APR6H3HAOE9OU","cs_wg_v3_pilot1","3NOKK93PR195FF312OHBPQU3NPXEE1","0","HELICOPTER","1","5","0","5820","helicopter","1","2017-03-22 23:31:29","163"
"A3MPHGI584PR1U","cs_wg_v3_pilot1","3VAR3R6G1P2AI56ZJZY72SSVGO5O8G","0","LADDER","1","5","1","2952","ladder","1","2017-03-22 23:31:30","164"
"A1O0DVNTMUGRLK","cs_wg_v3_pilot1","352YTHGROVEZ7NXA3JD417FP2GVH4E","0","UMBRELLA","0","5","1","3828","umbrella","0","2017-03-22 23:31:33","165"
"A3BUWQ5C39GRQC","cs_wg_v3_pilot1","3HHRAGRYX86AWAP9OR4L2ON60UNO95","0","LADDER","9","5","0","4572","ladder","8","2017-03-22 23:31:38","166"
"APR6H3HAOE9OU","cs_wg_v3_pilot1","3NOKK93PR195FF312OHBPQU3NPXEE1","0","WEDDING","0","5","0","5820","wedding","0","2017-03-22 23:31:39","167"
"AMPMTF5IAAMK8","cs_wg_v3_pilot1","3T3IWE1XG6OW11B31A16ITJI928QTF","0","LADDER","8","5","1","7397","LADDER","8","2017-03-22 23:31:39","168"
"A3MPHGI584PR1U","cs_wg_v3_pilot1","3VAR3R6G1P2AI56ZJZY72SSVGO5O8G","0","HELICOPTER","0","5","1","2952","helicopter","0","2017-03-22 23:31:43","169"
"A1O0DVNTMUGRLK","cs_wg_v3_pilot1","352YTHGROVEZ7NXA3JD417FP2GVH4E","0","KEYBOARD","8","5","0","3828","keyboard ","8","2017-03-22 23:31:44","170"
"AMPMTF5IAAMK8","cs_wg_v3_pilot1","3T3IWE1XG6OW11B31A16ITJI928QTF","0","FOOTBALL","1","5","0","7397","FOOTBALL","1","2017-03-22 23:31:48","171"
"APR6H3HAOE9OU","cs_wg_v3_pilot1","3NOKK93PR195FF312OHBPQU3NPXEE1","0","TRAFFIC","10","5","0","5820","traffic","10","2017-03-22 23:31:48","172"
"A3BUWQ5C39GRQC","cs_wg_v3_pilot1","3HHRAGRYX86AWAP9OR4L2ON60UNO95","0","MACHINE","2","5","0","4572","machine","2","2017-03-22 23:31:50","173"
"A3MPHGI584PR1U","cs_wg_v3_pilot1","3VAR3R6G1P2AI56ZJZY72SSVGO5O8G","0","WEDDING","1","5","1","2952","wedding","1","2017-03-22 23:31:55","174"
"AMPMTF5IAAMK8","cs_wg_v3_pilot1","3T3IWE1XG6OW11B31A16ITJI928QTF","0","COMMUNITY","9","5","0","7397","COMMUNITY","9","2017-03-22 23:31:58","175"
"APR6H3HAOE9OU","cs_wg_v3_pilot1","3NOKK93PR195FF312OHBPQU3NPXEE1","0","HELICOPTER","1","5","1","5820","helicopter","1","2017-03-22 23:31:58","176"
"A1O0DVNTMUGRLK","cs_wg_v3_pilot1","352YTHGROVEZ7NXA3JD417FP2GVH4E","0","MACHINE","9","5","0","3828","machine","9","2017-03-22 23:31:59","177"
"A3BUWQ5C39GRQC","cs_wg_v3_pilot1","3HHRAGRYX86AWAP9OR4L2ON60UNO95","0","DOORWAY","2","5","1","4572","doorway","2","2017-03-22 23:32:04","178"
"A3MPHGI584PR1U","cs_wg_v3_pilot1","3VAR3R6G1P2AI56ZJZY72SSVGO5O8G","0","STRUCTURE","10","5","0","2952","structure","10","2017-03-22 23:32:06","179"
"APR6H3HAOE9OU","cs_wg_v3_pilot1","3NOKK93PR195FF312OHBPQU3NPXEE1","0","BOOKSHELF","8","5","1","5820","bookshelf","8","2017-03-22 23:32:09","180"
"A1O0DVNTMUGRLK","cs_wg_v3_pilot1","352YTHGROVEZ7NXA3JD417FP2GVH4E","0","STRUCTURE","10","5","0","3828","structure","10","2017-03-22 23:32:11","181"
"AMPMTF5IAAMK8","cs_wg_v3_pilot1","3T3IWE1XG6OW11B31A16ITJI928QTF","0","STOMACH","1","5","1","7397","STOMACH","1","2017-03-22 23:32:15","182"
"A3BUWQ5C39GRQC","cs_wg_v3_pilot1","3HHRAGRYX86AWAP9OR4L2ON60UNO95","0","BASKET","0","5","0","4572","basket","0","2017-03-22 23:32:16","183"
"A3MPHGI584PR1U","cs_wg_v3_pilot1","3VAR3R6G1P2AI56ZJZY72SSVGO5O8G","0","TRAFFIC","9","5","0","2952","traffic","9","2017-03-22 23:32:16","184"
"APR6H3HAOE9OU","cs_wg_v3_pilot1","3NOKK93PR195FF312OHBPQU3NPXEE1","0","STOMACH","0","5","1","5820","stomach","0","2017-03-22 23:32:20","185"
"AMPMTF5IAAMK8","cs_wg_v3_pilot1","3T3IWE1XG6OW11B31A16ITJI928QTF","0","WEDDING","2","5","1","7397","WEDDING","2","2017-03-22 23:32:25","186"
"A1O0DVNTMUGRLK","cs_wg_v3_pilot1","352YTHGROVEZ7NXA3JD417FP2GVH4E","0","LADDER","0","5","0","3828","ladder","0","2017-03-22 23:32:27","187"
"A3MPHGI584PR1U","cs_wg_v3_pilot1","3VAR3R6G1P2AI56ZJZY72SSVGO5O8G","0","LADDER","1","5","1","2952","ladder","1","2017-03-22 23:32:27","188"
"A3BUWQ5C39GRQC","cs_wg_v3_pilot1","3HHRAGRYX86AWAP9OR4L2ON60UNO95","0","HELICOPTER","8","5","0","4572","helicopter","8","2017-03-22 23:32:28","189"
"APR6H3HAOE9OU","cs_wg_v3_pilot1","3NOKK93PR195FF312OHBPQU3NPXEE1","0","HELICOPTER","1","5","1","5820","helicopter","1","2017-03-22 23:32:31","190"
"AMPMTF5IAAMK8","cs_wg_v3_pilot1","3T3IWE1XG6OW11B31A16ITJI928QTF","0","TRAFFIC","10","5","0","7397","TRAFFIC","10","2017-03-22 23:32:35","191"
"A3MPHGI584PR1U","cs_wg_v3_pilot1","3VAR3R6G1P2AI56ZJZY72SSVGO5O8G","0","TRAFFIC","9","5","0","2952","traffic","9","2017-03-22 23:32:37","192"
"A3BUWQ5C39GRQC","cs_wg_v3_pilot1","3HHRAGRYX86AWAP9OR4L2ON60UNO95","0","DOORWAY","2","5","1","4572","doorway","2","2017-03-22 23:32:41","193"
"APR6H3HAOE9OU","cs_wg_v3_pilot1","3NOKK93PR195FF312OHBPQU3NPXEE1","0","HELICOPTER","1","5","1","5820","helicopter","1","2017-03-22 23:32:43","194"
"AMPMTF5IAAMK8","cs_wg_v3_pilot1","3T3IWE1XG6OW11B31A16ITJI928QTF","0","BASKET","0","5","0","7397","BASKET","0","2017-03-22 23:32:47","195"
"A1O0DVNTMUGRLK","cs_wg_v3_pilot1","352YTHGROVEZ7NXA3JD417FP2GVH4E","0","STOMACH","0","5","0","3828","stomach","0","2017-03-22 23:32:48","196"
"A3MPHGI584PR1U","cs_wg_v3_pilot1","3VAR3R6G1P2AI56ZJZY72SSVGO5O8G","0","WEDDING","1","5","1","2952","wedding","1","2017-03-22 23:32:49","197"
"A3BUWQ5C39GRQC","cs_wg_v3_pilot1","3HHRAGRYX86AWAP9OR4L2ON60UNO95","0","DOORWAY","2","5","1","4572","doorway","2","2017-03-22 23:32:52","198"
"APR6H3HAOE9OU","cs_wg_v3_pilot1","3NOKK93PR195FF312OHBPQU3NPXEE1","0","COMMUNITY","10","5","0","5820","community","10","2017-03-22 23:32:53","199"
"A3MPHGI584PR1U","cs_wg_v3_pilot1","3VAR3R6G1P2AI56ZJZY72SSVGO5O8G","0","LADDER","1","5","1","2952","ladder","1","2017-03-22 23:33:02","200"
"APR6H3HAOE9OU","cs_wg_v3_pilot1","3NOKK93PR195FF312OHBPQU3NPXEE1","0","MACHINE","10","5","0","5820","machine","10","2017-03-22 23:33:03","201"
"A1O0DVNTMUGRLK","cs_wg_v3_pilot1","352YTHGROVEZ7NXA3JD417FP2GVH4E","0","HELICOPTER","1","5","0","3828","helicopter ","1","2017-03-22 23:33:04","202"
"A3BUWQ5C39GRQC","cs_wg_v3_pilot1","3HHRAGRYX86AWAP9OR4L2ON60UNO95","0","HELICOPTER","8","5","0","4572","helicopter","8","2017-03-22 23:33:05","203"
"A3BUWQ5C39GRQC","cs_wg_v3_pilot1","3HHRAGRYX86AWAP9OR4L2ON60UNO95","0","STRUCTURE","10","5","0","4572","structure","10","2017-03-22 23:33:14","204"
"A3MPHGI584PR1U","cs_wg_v3_pilot1","3VAR3R6G1P2AI56ZJZY72SSVGO5O8G","0","STOMACH","2","5","1","2952","stomach","2","2017-03-22 23:33:14","205"
"APR6H3HAOE9OU","cs_wg_v3_pilot1","3NOKK93PR195FF312OHBPQU3NPXEE1","0","KEYBOARD","9","5","1","5820","keyboard","9","2017-03-22 23:33:15","206"
"A1O0DVNTMUGRLK","cs_wg_v3_pilot1","352YTHGROVEZ7NXA3JD417FP2GVH4E","0","COMMUNITY","9","5","0","3828","community","9","2017-03-22 23:33:16","207"
"A3MPHGI584PR1U","cs_wg_v3_pilot1","3VAR3R6G1P2AI56ZJZY72SSVGO5O8G","0","MACHINE","9","5","0","2952","machine","9","2017-03-22 23:33:25","208"
"A3BUWQ5C39GRQC","cs_wg_v3_pilot1","3HHRAGRYX86AWAP9OR4L2ON60UNO95","0","BOOKSHELF","10","5","0","4572","bookshelf","10","2017-03-22 23:33:25","209"
"APR6H3HAOE9OU","cs_wg_v3_pilot1","3NOKK93PR195FF312OHBPQU3NPXEE1","0","KEYBOARD","9","5","0","5820","keyboard","9","2017-03-22 23:33:25","210"
"A1O0DVNTMUGRLK","cs_wg_v3_pilot1","352YTHGROVEZ7NXA3JD417FP2GVH4E","0","LADDER","0","5","1","3828","ladder","0","2017-03-22 23:33:28","211"
"APR6H3HAOE9OU","cs_wg_v3_pilot1","3NOKK93PR195FF312OHBPQU3NPXEE1","0","UMBRELLA","2","5","1","5820","umbrella","2","2017-03-22 23:33:36","212"
"A3BUWQ5C39GRQC","cs_wg_v3_pilot1","3HHRAGRYX86AWAP9OR4L2ON60UNO95","0","COMMUNITY","1","5","1","4572","community","1","2017-03-22 23:33:37","213"
"A3MPHGI584PR1U","cs_wg_v3_pilot1","3VAR3R6G1P2AI56ZJZY72SSVGO5O8G","0","HELICOPTER","0","5","1","2952","helicopter","0","2017-03-22 23:33:40","214"
"A1O0DVNTMUGRLK","cs_wg_v3_pilot1","352YTHGROVEZ7NXA3JD417FP2GVH4E","0","HELICOPTER","1","5","1","3828","helicopter","1","2017-03-22 23:33:43","215"
"APR6H3HAOE9OU","cs_wg_v3_pilot1","3NOKK93PR195FF312OHBPQU3NPXEE1","0","TRAFFIC","10","5","0","5820","traffic","10","2017-03-22 23:33:47","216"
"A3BUWQ5C39GRQC","cs_wg_v3_pilot1","3HHRAGRYX86AWAP9OR4L2ON60UNO95","0","TRAFFIC","0","5","1","4572","traffic","0","2017-03-22 23:33:48","217"
"A1O0DVNTMUGRLK","cs_wg_v3_pilot1","352YTHGROVEZ7NXA3JD417FP2GVH4E","0","HELICOPTER","1","5","1","3828","helicopter","1","2017-03-22 23:33:53","218"
"A3MPHGI584PR1U","cs_wg_v3_pilot1","3VAR3R6G1P2AI56ZJZY72SSVGO5O8G","0","MACHINE","9","5","0","2952","machine","9","2017-03-22 23:33:56","219"
"APR6H3HAOE9OU","cs_wg_v3_pilot1","3NOKK93PR195FF312OHBPQU3NPXEE1","0","LADDER","0","5","1","5820","ladder","0","2017-03-22 23:33:57","220"
"A3BUWQ5C39GRQC","cs_wg_v3_pilot1","3HHRAGRYX86AWAP9OR4L2ON60UNO95","0","BASKET","0","5","0","4572","basket","0","2017-03-22 23:33:58","221"
"A3BUWQ5C39GRQC","cs_wg_v3_pilot1","3HHRAGRYX86AWAP9OR4L2ON60UNO95","0","STOMACH","1","5","0","4572","stomach","1","2017-03-22 23:34:07","222"
"APR6H3HAOE9OU","cs_wg_v3_pilot1","3NOKK93PR195FF312OHBPQU3NPXEE1","0","MACHINE","10","5","0","5820","machine","10","2017-03-22 23:34:07","223"
"A3MPHGI584PR1U","cs_wg_v3_pilot1","3VAR3R6G1P2AI56ZJZY72SSVGO5O8G","0","DOORWAY","0","5","1","2952","doorway","0","2017-03-22 23:34:08","224"
"A1O0DVNTMUGRLK","cs_wg_v3_pilot1","352YTHGROVEZ7NXA3JD417FP2GVH4E","0","STOMACH","0","5","1","3828","stomach","0","2017-03-22 23:34:09","225"
"A3BUWQ5C39GRQC","cs_wg_v3_pilot1","3HHRAGRYX86AWAP9OR4L2ON60UNO95","0","UMBRELLA","9","5","1","4572","umbrella","9","2017-03-22 23:34:18","226"
"APR6H3HAOE9OU","cs_wg_v3_pilot1","3NOKK93PR195FF312OHBPQU3NPXEE1","0","MACHINE","10","5","0","5820","machine","10","2017-03-22 23:34:22","227"
"A1O0DVNTMUGRLK","cs_wg_v3_pilot1","352YTHGROVEZ7NXA3JD417FP2GVH4E","0","MACHINE","9","5","0","3828","machine","9","2017-03-22 23:34:23","228"
"A3MPHGI584PR1U","cs_wg_v3_pilot1","3VAR3R6G1P2AI56ZJZY72SSVGO5O8G","0","STOMACH","2","5","1","2952","doorway","0","2017-03-22 23:34:25","229"
"A3BUWQ5C39GRQC","cs_wg_v3_pilot1","3HHRAGRYX86AWAP9OR4L2ON60UNO95","0","BOOKSHELF","10","5","0","4572","bookshelf","9","2017-03-22 23:34:31","230"
"APR6H3HAOE9OU","cs_wg_v3_pilot1","3NOKK93PR195FF312OHBPQU3NPXEE1","0","STOMACH","0","5","1","5820","stomach","0","2017-03-22 23:34:33","231"
"A1O0DVNTMUGRLK","cs_wg_v3_pilot1","352YTHGROVEZ7NXA3JD417FP2GVH4E","0","BOOKSHELF","10","5","0","3828","bookshelf","10","2017-03-22 23:34:36","232"
"A3MPHGI584PR1U","cs_wg_v3_pilot1","3VAR3R6G1P2AI56ZJZY72SSVGO5O8G","0","MACHINE","9","5","0","2952","machine","9","2017-03-22 23:34:36","233"
"A3BUWQ5C39GRQC","cs_wg_v3_pilot1","3HHRAGRYX86AWAP9OR4L2ON60UNO95","0","COMMUNITY","1","5","1","4572","community","1","2017-03-22 23:34:41","234"
"APR6H3HAOE9OU","cs_wg_v3_pilot1","3NOKK93PR195FF312OHBPQU3NPXEE1","0","FOOTBALL","9","5","0","5820","football","9","2017-03-22 23:34:43","235"
"A3MPHGI584PR1U","cs_wg_v3_pilot1","3VAR3R6G1P2AI56ZJZY72SSVGO5O8G","0","BASKET","10","5","0","2952","basket","10","2017-03-22 23:34:47","236"
"A1O0DVNTMUGRLK","cs_wg_v3_pilot1","352YTHGROVEZ7NXA3JD417FP2GVH4E","0","STOMACH","0","5","1","3828","stomach","0
","2017-03-22 23:34:48","237"
"A3BUWQ5C39GRQC","cs_wg_v3_pilot1","3HHRAGRYX86AWAP9OR4L2ON60UNO95","0","WEDDING","10","5","1","4572","wedding","10","2017-03-22 23:34:51","238"
"APR6H3HAOE9OU","cs_wg_v3_pilot1","3NOKK93PR195FF312OHBPQU3NPXEE1","0","FOOTBALL","9","5","0","5820","football","9","2017-03-22 23:34:59","239"
"A3MPHGI584PR1U","cs_wg_v3_pilot1","3VAR3R6G1P2AI56ZJZY72SSVGO5O8G","0","STOMACH","2","5","1","2952","stomach","2","2017-03-22 23:35:03","240"
"A3BUWQ5C39GRQC","cs_wg_v3_pilot1","3HHRAGRYX86AWAP9OR4L2ON60UNO95","0","UMBRELLA","9","5","1","4572","umbrella","9","2017-03-22 23:35:04","241"
"A1O0DVNTMUGRLK","cs_wg_v3_pilot1","352YTHGROVEZ7NXA3JD417FP2GVH4E","0","KEYBOARD","8","5","0","3828","keyboard","8","2017-03-22 23:35:06","242"
"APR6H3HAOE9OU","cs_wg_v3_pilot1","3NOKK93PR195FF312OHBPQU3NPXEE1","0","HELICOPTER","1","5","1","5820","helicopter","1","2017-03-22 23:35:10","243"
"A3MPHGI584PR1U","cs_wg_v3_pilot1","3VAR3R6G1P2AI56ZJZY72SSVGO5O8G","0","UMBRELLA","10","5","0","2952","umbrella","10","2017-03-22 23:35:13","244"
"A3BUWQ5C39GRQC","cs_wg_v3_pilot1","3HHRAGRYX86AWAP9OR4L2ON60UNO95","0","STRUCTURE","10","5","1","4572","structure","10","2017-03-22 23:35:15","245"
"A3TOUB8313BPVS","cs_wg_v3_pilot1","3IX2EGZR7BK2ZZUY2VC2LD6E7MJJR4","0","BASKET","10","5","0","2471","basket","10","2017-03-22 23:35:19","246"
"APR6H3HAOE9OU","cs_wg_v3_pilot1","3NOKK93PR195FF312OHBPQU3NPXEE1","0","WEDDING","0","5","0","5820","wedding","0","2017-03-22 23:35:21","247"
"AGFWV1U4CJXP5



","cs_wg_v3_pilot1","35K3O9HUABEXLT3XXZ1H78F3ZQCEFJ","0","UMBRELLA","1","5","0","4496","umbrella","5","2017-03-22 23:35:23","248"
"A3MPHGI584PR1U","cs_wg_v3_pilot1","3VAR3R6G1P2AI56ZJZY72SSVGO5O8G","0","UMBRELLA","10","5","0","2952","umbrella","10","2017-03-22 23:35:24","249"
"A1O0DVNTMUGRLK","cs_wg_v3_pilot1","352YTHGROVEZ7NXA3JD417FP2GVH4E","0","DOORWAY","2","5","0","3828","doorway","2","2017-03-22 23:35:27","250"
"A3BUWQ5C39GRQC","cs_wg_v3_pilot1","3HHRAGRYX86AWAP9OR4L2ON60UNO95","0","LADDER","9","5","0","4572","ladder","9","2017-03-22 23:35:28","251"
"APR6H3HAOE9OU","cs_wg_v3_pilot1","3NOKK93PR195FF312OHBPQU3NPXEE1","0","BASKET","2","5","0","5820","basket","2","2017-03-22 23:35:31","252"
"A3MPHGI584PR1U","cs_wg_v3_pilot1","3VAR3R6G1P2AI56ZJZY72SSVGO5O8G","0","COMMUNITY","0","5","1","2952","community","0","2017-03-22 23:35:33","253"
"A1O0DVNTMUGRLK","cs_wg_v3_pilot1","352YTHGROVEZ7NXA3JD417FP2GVH4E","0","BOOKSHELF","10","5","0","3828","bookshelf","10","2017-03-22 23:35:38","254"
"AGFWV1U4CJXP5



","cs_wg_v3_pilot1","35K3O9HUABEXLT3XXZ1H78F3ZQCEFJ","0","TRAFFIC","0","5","1","4496","traffic","5
","2017-03-22 23:35:39","255"
"A3BUWQ5C39GRQC","cs_wg_v3_pilot1","3HHRAGRYX86AWAP9OR4L2ON60UNO95","0","HELICOPTER","8","5","0","4572","helicopter","8","2017-03-22 23:35:43","256"
"APR6H3HAOE9OU","cs_wg_v3_pilot1","3NOKK93PR195FF312OHBPQU3NPXEE1","0","BOOKSHELF","8","5","1","5820","bookshelf","8","2017-03-22 23:35:44","257"
"A3MPHGI584PR1U","cs_wg_v3_pilot1","3VAR3R6G1P2AI56ZJZY72SSVGO5O8G","0","TRAFFIC","9","5","0","2952","traffic","9","2017-03-22 23:35:44","258"
"A1O0DVNTMUGRLK","cs_wg_v3_pilot1","352YTHGROVEZ7NXA3JD417FP2GVH4E","0","BOOKSHELF","10","5","0","3828","bookshelf","10","2017-03-22 23:35:46","259"
"A3MPHGI584PR1U","cs_wg_v3_pilot1","3VAR3R6G1P2AI56ZJZY72SSVGO5O8G","0","COMMUNITY","0","5","1","2952","community","0","2017-03-22 23:35:53","260"
"A3BUWQ5C39GRQC","cs_wg_v3_pilot1","3HHRAGRYX86AWAP9OR4L2ON60UNO95","0","BOOKSHELF","10","5","0","4572","bookshelf","10","2017-03-22 23:35:53","261"
"AGFWV1U4CJXP5



","cs_wg_v3_pilot1","35K3O9HUABEXLT3XXZ1H78F3ZQCEFJ","0","UMBRELLA","1","5","1","4496","umbrella","1","2017-03-22 23:35:55","262"
"A1O0DVNTMUGRLK","cs_wg_v3_pilot1","352YTHGROVEZ7NXA3JD417FP2GVH4E","0","KEYBOARD","8","5","0","3828","keybroad","8","2017-03-22 23:35:57","263"
"APR6H3HAOE9OU","cs_wg_v3_pilot1","3NOKK93PR195FF312OHBPQU3NPXEE1","0","TRAFFIC","10","5","0","5820","traffic","10","2017-03-22 23:35:58","264"
"A3BUWQ5C39GRQC","cs_wg_v3_pilot1","3HHRAGRYX86AWAP9OR4L2ON60UNO95","0","MACHINE","2","5","0","4572","machine","2","2017-03-22 23:36:04","265"
"AGFWV1U4CJXP5



","cs_wg_v3_pilot1","35K3O9HUABEXLT3XXZ1H78F3ZQCEFJ","0","MACHINE","9","5","0","4496","machine","9","2017-03-22 23:36:06","266"
"A1O0DVNTMUGRLK","cs_wg_v3_pilot1","352YTHGROVEZ7NXA3JD417FP2GVH4E","0","BOOKSHELF","10","5","0","3828","bookshelf","10
","2017-03-22 23:36:08","267"
"APR6H3HAOE9OU","cs_wg_v3_pilot1","3NOKK93PR195FF312OHBPQU3NPXEE1","0","TRAFFIC","10","5","0","5820","traffic","10","2017-03-22 23:36:08","268"
"A3MPHGI584PR1U","cs_wg_v3_pilot1","3VAR3R6G1P2AI56ZJZY72SSVGO5O8G","0","BOOKSHELF","8","5","1","2952","bookshelf","8","2017-03-22 23:36:10","269"
"A3BUWQ5C39GRQC","cs_wg_v3_pilot1","3HHRAGRYX86AWAP9OR4L2ON60UNO95","0","STOMACH","1","5","1","4572","stomach","1","2017-03-22 23:36:13","270"
"APR6H3HAOE9OU","cs_wg_v3_pilot1","3NOKK93PR195FF312OHBPQU3NPXEE1","0","FOOTBALL","9","5","0","5820","football","9","2017-03-22 23:36:18","271"
"A1O0DVNTMUGRLK","cs_wg_v3_pilot1","352YTHGROVEZ7NXA3JD417FP2GVH4E","0","LADDER","0","5","1","3828","ladder","0","2017-03-22 23:36:19","272"
"AGFWV1U4CJXP5



","cs_wg_v3_pilot1","35K3O9HUABEXLT3XXZ1H78F3ZQCEFJ","0","STRUCTURE","2","5","0","4496","structure","2","2017-03-22 23:36:20","273"
"A3MPHGI584PR1U","cs_wg_v3_pilot1","3VAR3R6G1P2AI56ZJZY72SSVGO5O8G","0","COMMUNITY","0","5","1","2952","communtiy","0","2017-03-22 23:36:26","274"
"A3BUWQ5C39GRQC","cs_wg_v3_pilot1","3HHRAGRYX86AWAP9OR4L2ON60UNO95","0","HELICOPTER","8","5","0","4572","helicopter","8","2017-03-22 23:36:26","275"
"APR6H3HAOE9OU","cs_wg_v3_pilot1","3NOKK93PR195FF312OHBPQU3NPXEE1","0","STRUCTURE","8","5","1","5820","structure","8","2017-03-22 23:36:28","276"
"A1O0DVNTMUGRLK","cs_wg_v3_pilot1","352YTHGROVEZ7NXA3JD417FP2GVH4E","0","DOORWAY","2","5","1","3828","doorway","2
","2017-03-22 23:36:30","277"
"AGFWV1U4CJXP5



","cs_wg_v3_pilot1","35K3O9HUABEXLT3XXZ1H78F3ZQCEFJ","0","WEDDING","10","5","0","4496","wedding","10","2017-03-22 23:36:32","278"
"A3BUWQ5C39GRQC","cs_wg_v3_pilot1","3HHRAGRYX86AWAP9OR4L2ON60UNO95","0","TRAFFIC","0","5","0","4572","traffic","0","2017-03-22 23:36:35","279"
"APR6H3HAOE9OU","cs_wg_v3_pilot1","3NOKK93PR195FF312OHBPQU3NPXEE1","0","STRUCTURE","8","5","0","5820","structure","8","2017-03-22 23:36:37","280"
"A1O0DVNTMUGRLK","cs_wg_v3_pilot1","352YTHGROVEZ7NXA3JD417FP2GVH4E","0","STRUCTURE","10","5","0","3828","structure","10","2017-03-22 23:36:39","281"
"AGFWV1U4CJXP5



","cs_wg_v3_pilot1","35K3O9HUABEXLT3XXZ1H78F3ZQCEFJ","0","COMMUNITY","10","5","1","4496","community","10","2017-03-22 23:36:45","282"
"A3BUWQ5C39GRQC","cs_wg_v3_pilot1","3HHRAGRYX86AWAP9OR4L2ON60UNO95","0","WEDDING","10","5","0","4572","wedding","10","2017-03-22 23:36:45","283"
"A3MPHGI584PR1U","cs_wg_v3_pilot1","3VAR3R6G1P2AI56ZJZY72SSVGO5O8G","0","BOOKSHELF","8","5","0","2952","bookshelf","8","2017-03-22 23:36:46","284"
"APR6H3HAOE9OU","cs_wg_v3_pilot1","3NOKK93PR195FF312OHBPQU3NPXEE1","0","FOOTBALL","9","5","0","5820","football","9","2017-03-22 23:36:46","285"
"A1O0DVNTMUGRLK","cs_wg_v3_pilot1","352YTHGROVEZ7NXA3JD417FP2GVH4E","0","BOOKSHELF","10","5","0","3828","bookshelf","10","2017-03-22 23:36:48","286"
"APR6H3HAOE9OU","cs_wg_v3_pilot1","3NOKK93PR195FF312OHBPQU3NPXEE1","0","BASKET","2","5","1","5820","basket","2","2017-03-22 23:36:56","287"
"A3BUWQ5C39GRQC","cs_wg_v3_pilot1","3HHRAGRYX86AWAP9OR4L2ON60UNO95","0","COMMUNITY","1","5","1","4572","community","1","2017-03-22 23:36:56","288"
"A3MPHGI584PR1U","cs_wg_v3_pilot1","3VAR3R6G1P2AI56ZJZY72SSVGO5O8G","0","COMMUNITY","0","5","1","2952","community","0","2017-03-22 23:36:57","289"
"AGFWV1U4CJXP5



","cs_wg_v3_pilot1","35K3O9HUABEXLT3XXZ1H78F3ZQCEFJ","0","KEYBOARD","9","5","0","4496","keyboard","9","2017-03-22 23:36:57","290"
"A1O0DVNTMUGRLK","cs_wg_v3_pilot1","352YTHGROVEZ7NXA3JD417FP2GVH4E","0","DOORWAY","2","5","1","3828","doorway","2
","2017-03-22 23:37:01","291"
"A3BUWQ5C39GRQC","cs_wg_v3_pilot1","3HHRAGRYX86AWAP9OR4L2ON60UNO95","0","MACHINE","2","5","0","4572","machine","2","2017-03-22 23:37:05","292"
"APR6H3HAOE9OU","cs_wg_v3_pilot1","3NOKK93PR195FF312OHBPQU3NPXEE1","0","HELICOPTER","1","5","1","5820","helicopter","1","2017-03-22 23:37:06","293"
"A3MPHGI584PR1U","cs_wg_v3_pilot1","3VAR3R6G1P2AI56ZJZY72SSVGO5O8G","0","WEDDING","1","5","1","2952","wedding","1","2017-03-22 23:37:07","294"
"A1O0DVNTMUGRLK","cs_wg_v3_pilot1","352YTHGROVEZ7NXA3JD417FP2GVH4E","0","DOORWAY","2","5","1","3828","doorway","2","2017-03-22 23:37:12","295"
"A3BUWQ5C39GRQC","cs_wg_v3_pilot1","3HHRAGRYX86AWAP9OR4L2ON60UNO95","0","STOMACH","1","5","1","4572","stomach","1","2017-03-22 23:37:16","296"
"AGFWV1U4CJXP5



","cs_wg_v3_pilot1","35K3O9HUABEXLT3XXZ1H78F3ZQCEFJ","0","HELICOPTER","0","5","1","4496","helicopter","0","2017-03-22 23:37:16","297"
"APR6H3HAOE9OU","cs_wg_v3_pilot1","3NOKK93PR195FF312OHBPQU3NPXEE1","0","UMBRELLA","2","5","0","5820","umbrella","2","2017-03-22 23:37:17","298"
"AMPMTF5IAAMK8","cs_wg_v3_pilot1","3T3IWE1XG6OW11B31A16ITJI928QTF","0","MACHINE","0","5","0","7397","MACHINE","0","2017-03-22 23:37:18","299"
"A3BUWQ5C39GRQC","cs_wg_v3_pilot1","3HHRAGRYX86AWAP9OR4L2ON60UNO95","0","LADDER","9","5","0","4572","ladder","9","2017-03-22 23:37:25","300"
"APR6H3HAOE9OU","cs_wg_v3_pilot1","3NOKK93PR195FF312OHBPQU3NPXEE1","0","UMBRELLA","2","5","1","5820","umbrella","2","2017-03-22 23:37:27","301"
"AGFWV1U4CJXP5



","cs_wg_v3_pilot1","35K3O9HUABEXLT3XXZ1H78F3ZQCEFJ","0","DOORWAY","1","5","0","4496","doorway","1","2017-03-22 23:37:27","302"
"AMPMTF5IAAMK8","cs_wg_v3_pilot1","3T3IWE1XG6OW11B31A16ITJI928QTF","0","WEDDING","2","5","0","7397","WEDDING","2","2017-03-22 23:37:28","303"
"A3MPHGI584PR1U","cs_wg_v3_pilot1","3VAR3R6G1P2AI56ZJZY72SSVGO5O8G","0","KEYBOARD","8","5","1","2952","keyboard","8","2017-03-22 23:37:31","304"
"A3BUWQ5C39GRQC","cs_wg_v3_pilot1","3HHRAGRYX86AWAP9OR4L2ON60UNO95","0","LADDER","9","5","0","4572","ladder","9","2017-03-22 23:37:36","305"
"APR6H3HAOE9OU","cs_wg_v3_pilot1","3NOKK93PR195FF312OHBPQU3NPXEE1","0","MACHINE","10","5","0","5820","machine","10","2017-03-22 23:37:37","306"
"AMPMTF5IAAMK8","cs_wg_v3_pilot1","3T3IWE1XG6OW11B31A16ITJI928QTF","0","BASKET","0","5","0","7397","BASKET","0","2017-03-22 23:37:37","307"
"A3BUWQ5C39GRQC","cs_wg_v3_pilot1","3HHRAGRYX86AWAP9OR4L2ON60UNO95","0","COMMUNITY","1","5","1","4572","community","1","2017-03-22 23:37:46","308"
"AMPMTF5IAAMK8","cs_wg_v3_pilot1","3T3IWE1XG6OW11B31A16ITJI928QTF","0","WEDDING","2","5","1","7397","WEDDING","2","2017-03-22 23:37:46","309"
"APR6H3HAOE9OU","cs_wg_v3_pilot1","3NOKK93PR195FF312OHBPQU3NPXEE1","0","BASKET","2","5","1","5820","basket","2","2017-03-22 23:37:47","310"
"A1O0DVNTMUGRLK","cs_wg_v3_pilot1","352YTHGROVEZ7NXA3JD417FP2GVH4E","0","UMBRELLA","0","5","1","3828","umbrella","0","2017-03-22 23:37:52","311"
"A3MPHGI584PR1U","cs_wg_v3_pilot1","3VAR3R6G1P2AI56ZJZY72SSVGO5O8G","0","FOOTBALL","2","5","0","2952","football","2","2017-03-22 23:37:53","312"
"AGFWV1U4CJXP5



","cs_wg_v3_pilot1","35K3O9HUABEXLT3XXZ1H78F3ZQCEFJ","0","HELICOPTER","0","5","1","4496","helicopter","0","2017-03-22 23:37:55","313"
"A3BUWQ5C39GRQC","cs_wg_v3_pilot1","3HHRAGRYX86AWAP9OR4L2ON60UNO95","0","FOOTBALL","8","5","1","4572","football","8","2017-03-22 23:37:57","314"
"AMPMTF5IAAMK8","cs_wg_v3_pilot1","3T3IWE1XG6OW11B31A16ITJI928QTF","0","COMMUNITY","9","5","0","7397","COMMUNITY","9","2017-03-22 23:38:01","315"
"A3MPHGI584PR1U","cs_wg_v3_pilot1","3VAR3R6G1P2AI56ZJZY72SSVGO5O8G","0","MACHINE","9","5","0","2952","machine","9","2017-03-22 23:38:02","316"
"A1O0DVNTMUGRLK","cs_wg_v3_pilot1","352YTHGROVEZ7NXA3JD417FP2GVH4E","0","WEDDING","1","5","1","3828","wedding","1
","2017-03-22 23:38:04","317"
"A3BUWQ5C39GRQC","cs_wg_v3_pilot1","3HHRAGRYX86AWAP9OR4L2ON60UNO95","0","STOMACH","1","5","1","4572","stomach","1","2017-03-22 23:38:06","318"
"AMPMTF5IAAMK8","cs_wg_v3_pilot1","3T3IWE1XG6OW11B31A16ITJI928QTF","0","TRAFFIC","10","5","0","7397","TRAFFIC","10","2017-03-22 23:38:09","319"
"AGFWV1U4CJXP5



","cs_wg_v3_pilot1","35K3O9HUABEXLT3XXZ1H78F3ZQCEFJ","0","FOOTBALL","10","5","0","4496","football","10","2017-03-22 23:38:10","320"
"A3MPHGI584PR1U","cs_wg_v3_pilot1","3VAR3R6G1P2AI56ZJZY72SSVGO5O8G","0","STRUCTURE","10","5","0","2952","structure","10","2017-03-22 23:38:14","321"
"APR6H3HAOE9OU","cs_wg_v3_pilot1","3NOKK93PR195FF312OHBPQU3NPXEE1","0","HELICOPTER","1","5","1","5820","helicopter","1","2017-03-22 23:38:14","322"
"A3BUWQ5C39GRQC","cs_wg_v3_pilot1","3HHRAGRYX86AWAP9OR4L2ON60UNO95","0","STOMACH","1","5","1","4572","stomach","1","2017-03-22 23:38:15","323"
"A1O0DVNTMUGRLK","cs_wg_v3_pilot1","352YTHGROVEZ7NXA3JD417FP2GVH4E","0","STOMACH","0","5","1","3828","stomach","0","2017-03-22 23:38:16","324"
"AMPMTF5IAAMK8","cs_wg_v3_pilot1","3T3IWE1XG6OW11B31A16ITJI928QTF","0","LADDER","8","5","1","7397","LADDER","8","2017-03-22 23:38:18","325"
"A3MPHGI584PR1U","cs_wg_v3_pilot1","3VAR3R6G1P2AI56ZJZY72SSVGO5O8G","0","STOMACH","2","5","1","2952","stomach","2","2017-03-22 23:38:25","326"
"A3BUWQ5C39GRQC","cs_wg_v3_pilot1","3HHRAGRYX86AWAP9OR4L2ON60UNO95","0","KEYBOARD","0","5","0","4572","keyboard","0","2017-03-22 23:38:27","327"
"AMPMTF5IAAMK8","cs_wg_v3_pilot1","3T3IWE1XG6OW11B31A16ITJI928QTF","0","DOORWAY","10","5","0","7397","DOORWAY","10","2017-03-22 23:38:28","328"
"A1O0DVNTMUGRLK","cs_wg_v3_pilot1","352YTHGROVEZ7NXA3JD417FP2GVH4E","0","BASKET","10","5","0","3828","basket","10","2017-03-22 23:38:29","329"
"A3MPHGI584PR1U","cs_wg_v3_pilot1","3VAR3R6G1P2AI56ZJZY72SSVGO5O8G","0","BASKET","10","5","0","2952","basket","10","2017-03-22 23:38:36","330"
"AMPMTF5IAAMK8","cs_wg_v3_pilot1","3T3IWE1XG6OW11B31A16ITJI928QTF","0","STRUCTURE","2","5","0","7397","STRUCTURE","2","2017-03-22 23:38:36","331"
"A3BUWQ5C39GRQC","cs_wg_v3_pilot1","3HHRAGRYX86AWAP9OR4L2ON60UNO95","0","BASKET","0","5","1","4572","basket","0","2017-03-22 23:38:37","332"
"A1O0DVNTMUGRLK","cs_wg_v3_pilot1","352YTHGROVEZ7NXA3JD417FP2GVH4E","0","LADDER","0","5","1","3828","ladder","0","2017-03-22 23:38:38","333"
"AMPMTF5IAAMK8","cs_wg_v3_pilot1","3T3IWE1XG6OW11B31A16ITJI928QTF","0","BOOKSHELF","0","5","0","7397","BOOKSHELF","0","2017-03-22 23:38:45","334"
"A1O0DVNTMUGRLK","cs_wg_v3_pilot1","352YTHGROVEZ7NXA3JD417FP2GVH4E","0","LADDER","0","5","1","3828","ladder","0
","2017-03-22 23:38:46","335"
"A3BUWQ5C39GRQC","cs_wg_v3_pilot1","3HHRAGRYX86AWAP9OR4L2ON60UNO95","0","STRUCTURE","10","5","0","4572","structure","10","2017-03-22 23:38:47","336"
"A3MPHGI584PR1U","cs_wg_v3_pilot1","3VAR3R6G1P2AI56ZJZY72SSVGO5O8G","0","UMBRELLA","10","5","0","2952","umbrella","10","2017-03-22 23:38:47","337"
"APR6H3HAOE9OU","cs_wg_v3_pilot1","3NOKK93PR195FF312OHBPQU3NPXEE1","0","BASKET","2","5","1","5820","basket","2","2017-03-22 23:38:49","338"
"A3BUWQ5C39GRQC","cs_wg_v3_pilot1","3HHRAGRYX86AWAP9OR4L2ON60UNO95","0","DOORWAY","2","5","0","4572","doorway","2","2017-03-22 23:38:58","339"
"A1O0DVNTMUGRLK","cs_wg_v3_pilot1","352YTHGROVEZ7NXA3JD417FP2GVH4E","0","STOMACH","0","5","1","3828","stomach","0","2017-03-22 23:38:59","340"
"APR6H3HAOE9OU","cs_wg_v3_pilot1","3NOKK93PR195FF312OHBPQU3NPXEE1","0","BOOKSHELF","8","5","0","5820","bookshelf","8","2017-03-22 23:38:59","341"
"A3MPHGI584PR1U","cs_wg_v3_pilot1","3VAR3R6G1P2AI56ZJZY72SSVGO5O8G","0","KEYBOARD","8","5","0","2952","keyboard","8","2017-03-22 23:39:04","342"
"A3BUWQ5C39GRQC","cs_wg_v3_pilot1","3HHRAGRYX86AWAP9OR4L2ON60UNO95","0","HELICOPTER","8","5","0","4572","helicopter","8","2017-03-22 23:39:07","343"
"A1O0DVNTMUGRLK","cs_wg_v3_pilot1","352YTHGROVEZ7NXA3JD417FP2GVH4E","0","FOOTBALL","2","5","1","3828","football","2
","2017-03-22 23:39:10","344"
"APR6H3HAOE9OU","cs_wg_v3_pilot1","3NOKK93PR195FF312OHBPQU3NPXEE1","0","TRAFFIC","10","5","0","5820","traffic","10","2017-03-22 23:39:10","345"
"A3MPHGI584PR1U","cs_wg_v3_pilot1","3VAR3R6G1P2AI56ZJZY72SSVGO5O8G","0","MACHINE","9","5","0","2952","machine","9","2017-03-22 23:39:14","346"
"A3BUWQ5C39GRQC","cs_wg_v3_pilot1","3HHRAGRYX86AWAP9OR4L2ON60UNO95","0","FOOTBALL","8","5","0","4572","football","8","2017-03-22 23:39:17","347"
"A1O0DVNTMUGRLK","cs_wg_v3_pilot1","352YTHGROVEZ7NXA3JD417FP2GVH4E","0","WEDDING","1","5","1","3828","wedding","1","2017-03-22 23:39:19","348"
"APR6H3HAOE9OU","cs_wg_v3_pilot1","3NOKK93PR195FF312OHBPQU3NPXEE1","0","KEYBOARD","9","5","0","5820","keyboard","9","2017-03-22 23:39:19","349"
"A3MPHGI584PR1U","cs_wg_v3_pilot1","3VAR3R6G1P2AI56ZJZY72SSVGO5O8G","0","STOMACH","2","5","1","2952","stomach","2","2017-03-22 23:39:26","350"
"A3BUWQ5C39GRQC","cs_wg_v3_pilot1","3HHRAGRYX86AWAP9OR4L2ON60UNO95","0","BOOKSHELF","10","5","0","4572","bookshelf","10","2017-03-22 23:39:27","351"
"A1O0DVNTMUGRLK","cs_wg_v3_pilot1","352YTHGROVEZ7NXA3JD417FP2GVH4E","0","BASKET","10","5","0","3828","basket","10
","2017-03-22 23:39:28","352"
"APR6H3HAOE9OU","cs_wg_v3_pilot1","3NOKK93PR195FF312OHBPQU3NPXEE1","0","BASKET","2","5","1","5820","basket","2","2017-03-22 23:39:28","353"
"A3MPHGI584PR1U","cs_wg_v3_pilot1","3VAR3R6G1P2AI56ZJZY72SSVGO5O8G","0","KEYBOARD","8","5","0","2952","keyboard","8","2017-03-22 23:39:36","354"
"A3BUWQ5C39GRQC","cs_wg_v3_pilot1","3HHRAGRYX86AWAP9OR4L2ON60UNO95","0","FOOTBALL","8","5","0","4572","football","8","2017-03-22 23:39:37","355"
"A1O0DVNTMUGRLK","cs_wg_v3_pilot1","352YTHGROVEZ7NXA3JD417FP2GVH4E","0","UMBRELLA","0","5","1","3828","umbrella","0","2017-03-22 23:39:40","356"
"A3MPHGI584PR1U","cs_wg_v3_pilot1","3VAR3R6G1P2AI56ZJZY72SSVGO5O8G","0","LADDER","1","5","1","2952","ladder","1","2017-03-22 23:39:47","357"
"A1O0DVNTMUGRLK","cs_wg_v3_pilot1","352YTHGROVEZ7NXA3JD417FP2GVH4E","0","BASKET","10","5","0","3828","basket","10","2017-03-22 23:39:48","358"
"A3BUWQ5C39GRQC","cs_wg_v3_pilot1","3HHRAGRYX86AWAP9OR4L2ON60UNO95","0","DOORWAY","2","5","1","4572","doorway","2","2017-03-22 23:39:52","359"
"A1O0DVNTMUGRLK","cs_wg_v3_pilot1","352YTHGROVEZ7NXA3JD417FP2GVH4E","0","STOMACH","0","5","1","3828","stomach","0","2017-03-22 23:39:57","360"
"A3MPHGI584PR1U","cs_wg_v3_pilot1","3VAR3R6G1P2AI56ZJZY72SSVGO5O8G","0","TRAFFIC","9","5","0","2952","traffic","10","2017-03-22 23:39:57","361"
"A3BUWQ5C39GRQC","cs_wg_v3_pilot1","3HHRAGRYX86AWAP9OR4L2ON60UNO95","0","UMBRELLA","9","5","0","4572","umbrella","9","2017-03-22 23:40:03","362"
"A1O0DVNTMUGRLK","cs_wg_v3_pilot1","352YTHGROVEZ7NXA3JD417FP2GVH4E","0","STRUCTURE","10","5","0","3828","structure","10
","2017-03-22 23:40:12","363"
"A3MPHGI584PR1U","cs_wg_v3_pilot1","3VAR3R6G1P2AI56ZJZY72SSVGO5O8G","0","TRAFFIC","9","5","0","2952","traffic","9","2017-03-22 23:40:13","364"
"A3BUWQ5C39GRQC","cs_wg_v3_pilot1","3HHRAGRYX86AWAP9OR4L2ON60UNO95","0","KEYBOARD","0","5","1","4572","keyboard","0","2017-03-22 23:40:16","365"
"A1O0DVNTMUGRLK","cs_wg_v3_pilot1","352YTHGROVEZ7NXA3JD417FP2GVH4E","0","COMMUNITY","9","5","0","3828","community","9","2017-03-22 23:40:21","366"
"A3MPHGI584PR1U","cs_wg_v3_pilot1","3VAR3R6G1P2AI56ZJZY72SSVGO5O8G","0","BOOKSHELF","8","5","0","2952","bookshelf","8","2017-03-22 23:40:22","367"
"A3BUWQ5C39GRQC","cs_wg_v3_pilot1","3HHRAGRYX86AWAP9OR4L2ON60UNO95","0","LADDER","9","5","0","4572","ladder","9","2017-03-22 23:40:25","368"
"A1O0DVNTMUGRLK","cs_wg_v3_pilot1","352YTHGROVEZ7NXA3JD417FP2GVH4E","0","COMMUNITY","9","5","0","3828","community","9","2017-03-22 23:40:30","369"
"A3MPHGI584PR1U","cs_wg_v3_pilot1","3VAR3R6G1P2AI56ZJZY72SSVGO5O8G","0","UMBRELLA","10","5","0","2952","umbrella","9 ","2017-03-22 23:40:34","370"
"A3BUWQ5C39GRQC","cs_wg_v3_pilot1","3HHRAGRYX86AWAP9OR4L2ON60UNO95","0","BOOKSHELF","10","5","0","4572","bookshelf","10","2017-03-22 23:40:35","371"
"APR6H3HAOE9OU","cs_wg_v3_pilot1","3NOKK93PR195FF312OHBPQU3NPXEE1","0","STRUCTURE","8","5","0","5820","structure","8","2017-03-22 23:40:36","372"
"A1O0DVNTMUGRLK","cs_wg_v3_pilot1","352YTHGROVEZ7NXA3JD417FP2GVH4E","0","COMMUNITY","9","5","0","3828","community","9","2017-03-22 23:40:39","373"
"AGFWV1U4CJXP5



","cs_wg_v3_pilot1","35K3O9HUABEXLT3XXZ1H78F3ZQCEFJ","0","STRUCTURE","2","5","0","4496","structure","2","2017-03-22 23:40:43","374"
"A3BUWQ5C39GRQC","cs_wg_v3_pilot1","3HHRAGRYX86AWAP9OR4L2ON60UNO95","0","COMMUNITY","1","5","1","4572","community","1","2017-03-22 23:40:46","375"
"APR6H3HAOE9OU","cs_wg_v3_pilot1","3NOKK93PR195FF312OHBPQU3NPXEE1","0","LADDER","0","5","1","5820","ladder","0","2017-03-22 23:40:47","376"
"A3MPHGI584PR1U","cs_wg_v3_pilot1","3VAR3R6G1P2AI56ZJZY72SSVGO5O8G","0","WEDDING","1","5","1","2952","wedding","1","2017-03-22 23:40:47","377"
"A1O0DVNTMUGRLK","cs_wg_v3_pilot1","352YTHGROVEZ7NXA3JD417FP2GVH4E","0","STRUCTURE","10","5","0","3828","structure ","10","2017-03-22 23:40:48","378"
"AGFWV1U4CJXP5



","cs_wg_v3_pilot1","35K3O9HUABEXLT3XXZ1H78F3ZQCEFJ","0","UMBRELLA","1","5","1","4496","umbrella","1","2017-03-22 23:40:54","379"
"A3BUWQ5C39GRQC","cs_wg_v3_pilot1","3HHRAGRYX86AWAP9OR4L2ON60UNO95","0","STRUCTURE","10","5","0","4572","structure","10","2017-03-22 23:40:55","380"
"A1O0DVNTMUGRLK","cs_wg_v3_pilot1","352YTHGROVEZ7NXA3JD417FP2GVH4E","0","BASKET","10","5","0","3828","basket","10","2017-03-22 23:40:56","381"
"APR6H3HAOE9OU","cs_wg_v3_pilot1","3NOKK93PR195FF312OHBPQU3NPXEE1","0","STRUCTURE","8","5","0","5820","structure","8","2017-03-22 23:40:58","382"
"AMPMTF5IAAMK8","cs_wg_v3_pilot1","3T3IWE1XG6OW11B31A16ITJI928QTF","0","STOMACH","1","5","1","7397","STOMACH","1","2017-03-22 23:41:00","383"
"A3MPHGI584PR1U","cs_wg_v3_pilot1","3VAR3R6G1P2AI56ZJZY72SSVGO5O8G","0","BOOKSHELF","8","5","0","2952","bookshelf","8","2017-03-22 23:41:00","384"
"A3BUWQ5C39GRQC","cs_wg_v3_pilot1","3HHRAGRYX86AWAP9OR4L2ON60UNO95","0","WEDDING","10","5","0","4572","wedding","10","2017-03-22 23:41:03","385"
"A1O0DVNTMUGRLK","cs_wg_v3_pilot1","352YTHGROVEZ7NXA3JD417FP2GVH4E","0","LADDER","0","5","1","3828","ladder","0","2017-03-22 23:41:05","386"
"APR6H3HAOE9OU","cs_wg_v3_pilot1","3NOKK93PR195FF312OHBPQU3NPXEE1","0","FOOTBALL","9","5","0","5820","football","9","2017-03-22 23:41:06","387"
"AGFWV1U4CJXP5



","cs_wg_v3_pilot1","35K3O9HUABEXLT3XXZ1H78F3ZQCEFJ","0","TRAFFIC","0","5","0","4496","traffic","0","2017-03-22 23:41:07","388"
"A3BUWQ5C39GRQC","cs_wg_v3_pilot1","3HHRAGRYX86AWAP9OR4L2ON60UNO95","0","FOOTBALL","8","5","0","4572","football","8","2017-03-22 23:41:12","389"
"AMPMTF5IAAMK8","cs_wg_v3_pilot1","3T3IWE1XG6OW11B31A16ITJI928QTF","0","KEYBOARD","9","5","0","7397","KEYBOARD","9","2017-03-22 23:41:13","390"
"A1O0DVNTMUGRLK","cs_wg_v3_pilot1","352YTHGROVEZ7NXA3JD417FP2GVH4E","0","DOORWAY","2","5","1","3828","doorway","2
","2017-03-22 23:41:15","391"
"APR6H3HAOE9OU","cs_wg_v3_pilot1","3NOKK93PR195FF312OHBPQU3NPXEE1","0","DOORWAY","1","5","1","5820","doorway","1","2017-03-22 23:41:15","392"
"A3MPHGI584PR1U","cs_wg_v3_pilot1","3VAR3R6G1P2AI56ZJZY72SSVGO5O8G","0","WEDDING","1","5","1","2952","wedding","1","2017-03-22 23:41:17","393"
"AGFWV1U4CJXP5



","cs_wg_v3_pilot1","35K3O9HUABEXLT3XXZ1H78F3ZQCEFJ","0","DOORWAY","1","5","1","4496","doorway","1","2017-03-22 23:41:18","394"
"A3BUWQ5C39GRQC","cs_wg_v3_pilot1","3HHRAGRYX86AWAP9OR4L2ON60UNO95","0","KEYBOARD","0","5","1","4572","keyboard","0","2017-03-22 23:41:23","395"
"AMPMTF5IAAMK8","cs_wg_v3_pilot1","3T3IWE1XG6OW11B31A16ITJI928QTF","0","HELICOPTER","8","5","0","7397","HELICOPTER","8","2017-03-22 23:41:23","396"
"A1O0DVNTMUGRLK","cs_wg_v3_pilot1","352YTHGROVEZ7NXA3JD417FP2GVH4E","0","WEDDING","1","5","1","3828","wedding","1","2017-03-22 23:41:27","397"
"APR6H3HAOE9OU","cs_wg_v3_pilot1","3NOKK93PR195FF312OHBPQU3NPXEE1","0","WEDDING","0","5","1","5820","wedding","0","2017-03-22 23:41:28","398"
"A3MPHGI584PR1U","cs_wg_v3_pilot1","3VAR3R6G1P2AI56ZJZY72SSVGO5O8G","0","LADDER","1","5","1","2952","ladder","1","2017-03-22 23:41:29","399"
"AGFWV1U4CJXP5



","cs_wg_v3_pilot1","35K3O9HUABEXLT3XXZ1H78F3ZQCEFJ","0","FOOTBALL","10","5","0","4496","football","10","2017-03-22 23:41:30","400"
"A3BUWQ5C39GRQC","cs_wg_v3_pilot1","3HHRAGRYX86AWAP9OR4L2ON60UNO95","0","HELICOPTER","8","5","0","4572","helicopter","8","2017-03-22 23:41:34","401"
"AMPMTF5IAAMK8","cs_wg_v3_pilot1","3T3IWE1XG6OW11B31A16ITJI928QTF","0","FOOTBALL","1","5","0","7397","FOOTBALL","1","2017-03-22 23:41:36","402"
"APR6H3HAOE9OU","cs_wg_v3_pilot1","3NOKK93PR195FF312OHBPQU3NPXEE1","0","KEYBOARD","9","5","0","5820","keyboard","9","2017-03-22 23:41:37","403"
"A1O0DVNTMUGRLK","cs_wg_v3_pilot1","352YTHGROVEZ7NXA3JD417FP2GVH4E","0","HELICOPTER","1","5","1","3828","helicopter","1
","2017-03-22 23:41:40","404"
"AGFWV1U4CJXP5



","cs_wg_v3_pilot1","35K3O9HUABEXLT3XXZ1H78F3ZQCEFJ","0","COMMUNITY","10","5","0","4496","community","10","2017-03-22 23:41:41","405"
"A3BUWQ5C39GRQC","cs_wg_v3_pilot1","3HHRAGRYX86AWAP9OR4L2ON60UNO95","0","MACHINE","2","5","0","4572","machine","2","2017-03-22 23:41:43","406"
"A3MPHGI584PR1U","cs_wg_v3_pilot1","3VAR3R6G1P2AI56ZJZY72SSVGO5O8G","0","DOORWAY","0","5","1","2952","doorway","0","2017-03-22 23:41:47","407"
"APR6H3HAOE9OU","cs_wg_v3_pilot1","3NOKK93PR195FF312OHBPQU3NPXEE1","0","STRUCTURE","8","5","0","5820","structure","8","2017-03-22 23:41:48","408"
"AGFWV1U4CJXP5



","cs_wg_v3_pilot1","35K3O9HUABEXLT3XXZ1H78F3ZQCEFJ","0","STOMACH","2","5","0","4496","stomach","2","2017-03-22 23:41:53","409"
"A3BUWQ5C39GRQC","cs_wg_v3_pilot1","3HHRAGRYX86AWAP9OR4L2ON60UNO95","0","UMBRELLA","9","5","0","4572","umbrella","9","2017-03-22 23:41:53","410"
"A1O0DVNTMUGRLK","cs_wg_v3_pilot1","352YTHGROVEZ7NXA3JD417FP2GVH4E","0","FOOTBALL","2","5","1","3828","football","2","2017-03-22 23:41:54","411"
"A3MPHGI584PR1U","cs_wg_v3_pilot1","3VAR3R6G1P2AI56ZJZY72SSVGO5O8G","0","MACHINE","9","5","0","2952","machine","9","2017-03-22 23:41:55","412"
"APR6H3HAOE9OU","cs_wg_v3_pilot1","3NOKK93PR195FF312OHBPQU3NPXEE1","0","STOMACH","0","5","1","5820","stomach","0","2017-03-22 23:41:57","413"
"A1O0DVNTMUGRLK","cs_wg_v3_pilot1","352YTHGROVEZ7NXA3JD417FP2GVH4E","0","FOOTBALL","2","5","1","3828","football","2","2017-03-22 23:42:02","414"
"A3BUWQ5C39GRQC","cs_wg_v3_pilot1","3HHRAGRYX86AWAP9OR4L2ON60UNO95","0","DOORWAY","2","5","1","4572","doorway","2","2017-03-22 23:42:03","415"
"AGFWV1U4CJXP5



","cs_wg_v3_pilot1","35K3O9HUABEXLT3XXZ1H78F3ZQCEFJ","0","BOOKSHELF","8","5","0","4496","bookshelf","8","2017-03-22 23:42:04","416"
"A3MPHGI584PR1U","cs_wg_v3_pilot1","3VAR3R6G1P2AI56ZJZY72SSVGO5O8G","0","FOOTBALL","2","5","1","2952","football","2","2017-03-22 23:42:09","417"
"A1O0DVNTMUGRLK","cs_wg_v3_pilot1","352YTHGROVEZ7NXA3JD417FP2GVH4E","0","UMBRELLA","0","5","1","3828","umbrella","0","2017-03-22 23:42:10","418"
"AGFWV1U4CJXP5



","cs_wg_v3_pilot1","35K3O9HUABEXLT3XXZ1H78F3ZQCEFJ","0","TRAFFIC","0","5","0","4496","traffic","0","2017-03-22 23:42:14","419"
"A3BUWQ5C39GRQC","cs_wg_v3_pilot1","3HHRAGRYX86AWAP9OR4L2ON60UNO95","0","STRUCTURE","10","5","0","4572","structure","10","2017-03-22 23:42:15","420"
"A1O0DVNTMUGRLK","cs_wg_v3_pilot1","352YTHGROVEZ7NXA3JD417FP2GVH4E","0","BASKET","10","5","0","3828","basket","10","2017-03-22 23:42:17","421"
"A3MPHGI584PR1U","cs_wg_v3_pilot1","3VAR3R6G1P2AI56ZJZY72SSVGO5O8G","0","HELICOPTER","0","5","1","2952"," helicopter","0 ","2017-03-22 23:42:20","422"
"A3BUWQ5C39GRQC","cs_wg_v3_pilot1","3HHRAGRYX86AWAP9OR4L2ON60UNO95","0","BASKET","0","5","1","4572","basket","0","2017-03-22 23:42:24","423"
"AGFWV1U4CJXP5



","cs_wg_v3_pilot1","35K3O9HUABEXLT3XXZ1H78F3ZQCEFJ","0","STRUCTURE","2","5","0","4496","structure","2","2017-03-22 23:42:25","424"
"A1O0DVNTMUGRLK","cs_wg_v3_pilot1","352YTHGROVEZ7NXA3JD417FP2GVH4E","0","TRAFFIC","8","5","0","3828","traffic","8","2017-03-22 23:42:28","425"
"AMPMTF5IAAMK8","cs_wg_v3_pilot1","3T3IWE1XG6OW11B31A16ITJI928QTF","0","STOMACH","1","5","0","7397","STOMACH","1","2017-03-22 23:42:34","426"
"A3BUWQ5C39GRQC","cs_wg_v3_pilot1","3HHRAGRYX86AWAP9OR4L2ON60UNO95","0","UMBRELLA","9","5","0","4572","umbrella","9","2017-03-22 23:42:34","427"
"AGFWV1U4CJXP5



","cs_wg_v3_pilot1","35K3O9HUABEXLT3XXZ1H78F3ZQCEFJ","0","COMMUNITY","10","5","0","4496","community","10","2017-03-22 23:42:36","428"
"A3BUWQ5C39GRQC","cs_wg_v3_pilot1","3HHRAGRYX86AWAP9OR4L2ON60UNO95","0","BASKET","0","5","1","4572","basket","0","2017-03-22 23:42:42","429"
"A1O0DVNTMUGRLK","cs_wg_v3_pilot1","352YTHGROVEZ7NXA3JD417FP2GVH4E","0","UMBRELLA","0","5","1","3828","umbrella","0
","2017-03-22 23:42:47","430"
"AGFWV1U4CJXP5



","cs_wg_v3_pilot1","35K3O9HUABEXLT3XXZ1H78F3ZQCEFJ","0","KEYBOARD","9","5","0","4496","keyboard","9","2017-03-22 23:42:48","431"
"A3BUWQ5C39GRQC","cs_wg_v3_pilot1","3HHRAGRYX86AWAP9OR4L2ON60UNO95","0","TRAFFIC","0","5","1","4572","traffic","0","2017-03-22 23:42:51","432"
"A3MPHGI584PR1U","cs_wg_v3_pilot1","3VAR3R6G1P2AI56ZJZY72SSVGO5O8G","0","FOOTBALL","2","5","1","2952","football","2","2017-03-22 23:42:52","433"
"A1O0DVNTMUGRLK","cs_wg_v3_pilot1","352YTHGROVEZ7NXA3JD417FP2GVH4E","0","HELICOPTER","1","5","1","3828","helicopter","1","2017-03-22 23:42:58","434"
"AGFWV1U4CJXP5



","cs_wg_v3_pilot1","35K3O9HUABEXLT3XXZ1H78F3ZQCEFJ","0","BOOKSHELF","8","5","0","4496","bookshelf","9","2017-03-22 23:43:00","435"
"A3BUWQ5C39GRQC","cs_wg_v3_pilot1","3HHRAGRYX86AWAP9OR4L2ON60UNO95","0","STOMACH","1","5","1","4572","stomach","1","2017-03-22 23:43:00","436"
"A3MPHGI584PR1U","cs_wg_v3_pilot1","3VAR3R6G1P2AI56ZJZY72SSVGO5O8G","0","TRAFFIC","9","5","0","2952","traffic","9","2017-03-22 23:43:01","437"
"A1O0DVNTMUGRLK","cs_wg_v3_pilot1","352YTHGROVEZ7NXA3JD417FP2GVH4E","0","BOOKSHELF","10","5","0","3828","bookshelf","10","2017-03-22 23:43:07","438"
"A3MPHGI584PR1U","cs_wg_v3_pilot1","3VAR3R6G1P2AI56ZJZY72SSVGO5O8G","0","DOORWAY","0","5","1","2952","doorway","0","2017-03-22 23:43:10","439"
"AGFWV1U4CJXP5



","cs_wg_v3_pilot1","35K3O9HUABEXLT3XXZ1H78F3ZQCEFJ","0","BOOKSHELF","8","5","0","4496","bookshelf","8","2017-03-22 23:43:11","440"
"A1O0DVNTMUGRLK","cs_wg_v3_pilot1","352YTHGROVEZ7NXA3JD417FP2GVH4E","0","UMBRELLA","0","5","1","3828","umbrella","0","2017-03-22 23:43:14","441"
"A3BUWQ5C39GRQC","cs_wg_v3_pilot1","3HHRAGRYX86AWAP9OR4L2ON60UNO95","0","BOOKSHELF","10","5","0","4572","bookshelve","10","2017-03-22 23:43:16","442"
"AMPMTF5IAAMK8","cs_wg_v3_pilot1","3T3IWE1XG6OW11B31A16ITJI928QTF","0","HELICOPTER","8","5","0","7397","HELICOPTER","8","2017-03-22 23:43:20","443"
"A3MPHGI584PR1U","cs_wg_v3_pilot1","3VAR3R6G1P2AI56ZJZY72SSVGO5O8G","0","BASKET","10","5","0","2952","basket","10","2017-03-22 23:43:21","444"
"A1O0DVNTMUGRLK","cs_wg_v3_pilot1","352YTHGROVEZ7NXA3JD417FP2GVH4E","0","COMMUNITY","9","5","1","3828","community","9","2017-03-22 23:43:23","445"
"AGFWV1U4CJXP5



","cs_wg_v3_pilot1","35K3O9HUABEXLT3XXZ1H78F3ZQCEFJ","0","BOOKSHELF","8","5","1","4496","bookshelf","8","2017-03-22 23:43:26","446"
"A3BUWQ5C39GRQC","cs_wg_v3_pilot1","3HHRAGRYX86AWAP9OR4L2ON60UNO95","0","HELICOPTER","8","5","0","4572","helicopter","8","2017-03-22 23:43:26","447"
"AMPMTF5IAAMK8","cs_wg_v3_pilot1","3T3IWE1XG6OW11B31A16ITJI928QTF","0","COMMUNITY","9","5","0","7397","COMMUNITY","9","2017-03-22 23:43:28","448"
"A3MPHGI584PR1U","cs_wg_v3_pilot1","3VAR3R6G1P2AI56ZJZY72SSVGO5O8G","0","STOMACH","2","5","1","2952","stomach","2","2017-03-22 23:43:32","449"
"AGFWV1U4CJXP5



","cs_wg_v3_pilot1","35K3O9HUABEXLT3XXZ1H78F3ZQCEFJ","0","DOORWAY","1","5","0","4496","doorway","1","2017-03-22 23:43:36","450"
"A3BUWQ5C39GRQC","cs_wg_v3_pilot1","3HHRAGRYX86AWAP9OR4L2ON60UNO95","0","STOMACH","1","5","1","4572","stomach","1","2017-03-22 23:43:36","451"
"AMPMTF5IAAMK8","cs_wg_v3_pilot1","3T3IWE1XG6OW11B31A16ITJI928QTF","0","TRAFFIC","10","5","0","7397","TRAFFIC","10","2017-03-22 23:43:39","452"
"A3MPHGI584PR1U","cs_wg_v3_pilot1","3VAR3R6G1P2AI56ZJZY72SSVGO5O8G","0","STRUCTURE","10","5","0","2952","structure","10","2017-03-22 23:43:43","453"
"AGFWV1U4CJXP5



","cs_wg_v3_pilot1","35K3O9HUABEXLT3XXZ1H78F3ZQCEFJ","0","DOORWAY","1","5","0","4496","doorway","1","2017-03-22 23:43:44","454"
"A3BUWQ5C39GRQC","cs_wg_v3_pilot1","3HHRAGRYX86AWAP9OR4L2ON60UNO95","0","TRAFFIC","0","5","1","4572","traffic","0","2017-03-22 23:43:46","455"
"AMPMTF5IAAMK8","cs_wg_v3_pilot1","3T3IWE1XG6OW11B31A16ITJI928QTF","0","COMMUNITY","9","5","0","7397","COMMUNITY","9","2017-03-22 23:43:47","456"
"A3MPHGI584PR1U","cs_wg_v3_pilot1","3VAR3R6G1P2AI56ZJZY72SSVGO5O8G","0","STOMACH","2","5","1","2952","stomach","2","2017-03-22 23:43:53","457"
"A3BUWQ5C39GRQC","cs_wg_v3_pilot1","3HHRAGRYX86AWAP9OR4L2ON60UNO95","0","KEYBOARD","0","5","1","4572","keyboard","0","2017-03-22 23:43:56","458"
"AMPMTF5IAAMK8","cs_wg_v3_pilot1","3T3IWE1XG6OW11B31A16ITJI928QTF","0","BASKET","0","5","1","7397","BASKET","0","2017-03-22 23:43:58","459"
"AGFWV1U4CJXP5



","cs_wg_v3_pilot1","35K3O9HUABEXLT3XXZ1H78F3ZQCEFJ","0","BOOKSHELF","8","5","0","4496","bookshelf","8","2017-03-22 23:43:58","460"
"A3MPHGI584PR1U","cs_wg_v3_pilot1","3VAR3R6G1P2AI56ZJZY72SSVGO5O8G","0","FOOTBALL","2","5","1","2952","football","2","2017-03-22 23:44:01","461"
"A3BUWQ5C39GRQC","cs_wg_v3_pilot1","3HHRAGRYX86AWAP9OR4L2ON60UNO95","0","TRAFFIC","0","5","1","4572","traffic","0","2017-03-22 23:44:05","462"
"APR6H3HAOE9OU","cs_wg_v3_pilot1","3NOKK93PR195FF312OHBPQU3NPXEE1","0","FOOTBALL","9","5","0","5820","football","9","2017-03-22 23:44:06","463"
"AMPMTF5IAAMK8","cs_wg_v3_pilot1","3T3IWE1XG6OW11B31A16ITJI928QTF","0","BOOKSHELF","0","5","1","7397","BOOKSHELF","0","2017-03-22 23:44:06","464"
"AGFWV1U4CJXP5



","cs_wg_v3_pilot1","35K3O9HUABEXLT3XXZ1H78F3ZQCEFJ","0","UMBRELLA","1","5","1","4496","umbrella","1","2017-03-22 23:44:08","465"
"A3MPHGI584PR1U","cs_wg_v3_pilot1","3VAR3R6G1P2AI56ZJZY72SSVGO5O8G","0","COMMUNITY","0","5","1","2952","community","0","2017-03-22 23:44:10","466"
"AMPMTF5IAAMK8","cs_wg_v3_pilot1","3T3IWE1XG6OW11B31A16ITJI928QTF","0","STRUCTURE","2","5","1","7397","STRUCTURE","2","2017-03-22 23:44:14","467"
"A3BUWQ5C39GRQC","cs_wg_v3_pilot1","3HHRAGRYX86AWAP9OR4L2ON60UNO95","0","MACHINE","2","5","1","4572","machine","2","2017-03-22 23:44:19","468"
"APR6H3HAOE9OU","cs_wg_v3_pilot1","3NOKK93PR195FF312OHBPQU3NPXEE1","0","WEDDING","0","5","1","5820","wedding","0","2017-03-22 23:44:19","469"
"A3MPHGI584PR1U","cs_wg_v3_pilot1","3VAR3R6G1P2AI56ZJZY72SSVGO5O8G","0","BASKET","10","5","0","2952","basket","10","2017-03-22 23:44:20","470"
"AMPMTF5IAAMK8","cs_wg_v3_pilot1","3T3IWE1XG6OW11B31A16ITJI928QTF","0","WEDDING","2","5","0","7397","WEDDING","2","2017-03-22 23:44:22","471"
"APR6H3HAOE9OU","cs_wg_v3_pilot1","3NOKK93PR195FF312OHBPQU3NPXEE1","0","UMBRELLA","2","5","1","5820","umbrella","2","2017-03-22 23:44:29","472"
"AMPMTF5IAAMK8","cs_wg_v3_pilot1","3T3IWE1XG6OW11B31A16ITJI928QTF","0","DOORWAY","10","5","0","7397","DOORWAY","10","2017-03-22 23:44:31","473"
"A3MPHGI584PR1U","cs_wg_v3_pilot1","3VAR3R6G1P2AI56ZJZY72SSVGO5O8G","0","HELICOPTER","0","5","1","2952","helicopter","0","2017-03-22 23:44:33","474"
"A3BUWQ5C39GRQC","cs_wg_v3_pilot1","3HHRAGRYX86AWAP9OR4L2ON60UNO95","0","UMBRELLA","9","5","0","4572","umbrella","9","2017-03-22 23:44:33","475"
"AMPMTF5IAAMK8","cs_wg_v3_pilot1","3T3IWE1XG6OW11B31A16ITJI928QTF","0","STOMACH","1","5","0","7397","STOMACH","1","2017-03-22 23:44:40","476"
"APR6H3HAOE9OU","cs_wg_v3_pilot1","3NOKK93PR195FF312OHBPQU3NPXEE1","0","HELICOPTER","1","5","1","5820","helicopter","1","2017-03-22 23:44:41","477"
"A3MPHGI584PR1U","cs_wg_v3_pilot1","3VAR3R6G1P2AI56ZJZY72SSVGO5O8G","0","BOOKSHELF","8","5","0","2952","bookshelf"," 8","2017-03-22 23:44:42","478"
"A3BUWQ5C39GRQC","cs_wg_v3_pilot1","3HHRAGRYX86AWAP9OR4L2ON60UNO95","0","KEYBOARD","0","5","1","4572","keyboard","0","2017-03-22 23:44:44","479"
"AMPMTF5IAAMK8","cs_wg_v3_pilot1","3T3IWE1XG6OW11B31A16ITJI928QTF","0","KEYBOARD","9","5","0","7397","KEYBOARD","9","2017-03-22 23:44:50","480"
"A3MPHGI584PR1U","cs_wg_v3_pilot1","3VAR3R6G1P2AI56ZJZY72SSVGO5O8G","0","HELICOPTER","0","5","1","2952","helicopter","0","2017-03-22 23:44:52","481"
"A3BUWQ5C39GRQC","cs_wg_v3_pilot1","3HHRAGRYX86AWAP9OR4L2ON60UNO95","0","DOORWAY","2","5","1","4572","doorway","2","2017-03-22 23:44:54","482"
"AMPMTF5IAAMK8","cs_wg_v3_pilot1","3T3IWE1XG6OW11B31A16ITJI928QTF","0","UMBRELLA","10","5","0","7397","UMBRELLA","10","2017-03-22 23:44:58","483"
"A3MPHGI584PR1U","cs_wg_v3_pilot1","3VAR3R6G1P2AI56ZJZY72SSVGO5O8G","0","COMMUNITY","0","5","1","2952","community","0","2017-03-22 23:45:03","484"
"A3BUWQ5C39GRQC","cs_wg_v3_pilot1","3HHRAGRYX86AWAP9OR4L2ON60UNO95","0","MACHINE","2","5","1","4572","machine","2","2017-03-22 23:45:03","485"
"APR6H3HAOE9OU","cs_wg_v3_pilot1","3NOKK93PR195FF312OHBPQU3NPXEE1","0","DOORWAY","1","5","0","5820","doorway","1","2017-03-22 23:45:04","486"
"AMPMTF5IAAMK8","cs_wg_v3_pilot1","3T3IWE1XG6OW11B31A16ITJI928QTF","0","DOORWAY","10","5","0","7397","DOORWAY","10","2017-03-22 23:45:07","487"
"A3MPHGI584PR1U","cs_wg_v3_pilot1","3VAR3R6G1P2AI56ZJZY72SSVGO5O8G","0","DOORWAY","0","5","1","2952","doorway","0","2017-03-22 23:45:12","488"
"AMPMTF5IAAMK8","cs_wg_v3_pilot1","3T3IWE1XG6OW11B31A16ITJI928QTF","0","UMBRELLA","10","5","0","7397","UMBRELLA","10","2017-03-22 23:45:17","489"
"A3BUWQ5C39GRQC","cs_wg_v3_pilot1","3HHRAGRYX86AWAP9OR4L2ON60UNO95","0","COMMUNITY","1","5","1","4572","community","1","2017-03-22 23:45:19","490"
"DOORWAY = 2 points
A1O0DVNTMUGRLK","cs_wg_v3_pilot1","352YTHGROVEZ7NXA3JD417FP2GVH4E","0","KEYBOARD","0","5","0","1494","keybroad","0","2017-03-22 23:45:20","491"
"A3MPHGI584PR1U","cs_wg_v3_pilot1","3VAR3R6G1P2AI56ZJZY72SSVGO5O8G","0","HELICOPTER","0","5","1","2952","helicopter","0","2017-03-22 23:45:22","492"
"AMPMTF5IAAMK8","cs_wg_v3_pilot1","3T3IWE1XG6OW11B31A16ITJI928QTF","0","TRAFFIC","10","5","0","7397","TRAFFIC","10","2017-03-22 23:45:27","493"
"A3MPHGI584PR1U","cs_wg_v3_pilot1","3VAR3R6G1P2AI56ZJZY72SSVGO5O8G","0","DOORWAY","0","5","1","2952","doorway","0","2017-03-22 23:45:31","494"
"A3BUWQ5C39GRQC","cs_wg_v3_pilot1","3HHRAGRYX86AWAP9OR4L2ON60UNO95","0","FOOTBALL","8","5","0","4572","football","8","2017-03-22 23:45:31","495"
"DOORWAY = 2 points
A1O0DVNTMUGRLK","cs_wg_v3_pilot1","352YTHGROVEZ7NXA3JD417FP2GVH4E","0","MACHINE","10","5","0","1494","machine","10","2017-03-22 23:45:32","496"
"AMPMTF5IAAMK8","cs_wg_v3_pilot1","3T3IWE1XG6OW11B31A16ITJI928QTF","0","HELICOPTER","8","5","0","7397","HELICOPTER","8","2017-03-22 23:45:39","497"
"A3BUWQ5C39GRQC","cs_wg_v3_pilot1","3HHRAGRYX86AWAP9OR4L2ON60UNO95","0","LADDER","9","5","0","4572","ladder","9","2017-03-22 23:45:40","498"
"A3MPHGI584PR1U","cs_wg_v3_pilot1","3VAR3R6G1P2AI56ZJZY72SSVGO5O8G","0","STRUCTURE","10","5","0","2952","structure","10","2017-03-22 23:45:42","499"
"DOORWAY = 2 points
A1O0DVNTMUGRLK","cs_wg_v3_pilot1","352YTHGROVEZ7NXA3JD417FP2GVH4E","0","STOMACH","10","5","0","1494","stomach","10","2017-03-22 23:45:42","500"
"AMPMTF5IAAMK8","cs_wg_v3_pilot1","3T3IWE1XG6OW11B31A16ITJI928QTF","0","UMBRELLA","10","5","0","7397","UMBRELLA","10","2017-03-22 23:45:47","501"
"A3BUWQ5C39GRQC","cs_wg_v3_pilot1","3HHRAGRYX86AWAP9OR4L2ON60UNO95","0","WEDDING","10","5","0","4572","wedding","10","2017-03-22 23:45:50","502"
"DOORWAY = 2 points
A1O0DVNTMUGRLK","cs_wg_v3_pilot1","352YTHGROVEZ7NXA3JD417FP2GVH4E","0","TRAFFIC","0","5","0","1494","traffic","0","2017-03-22 23:45:51","503"
"A3MPHGI584PR1U","cs_wg_v3_pilot1","3VAR3R6G1P2AI56ZJZY72SSVGO5O8G","0","BOOKSHELF","8","5","0","2952","bookshelf","8","2017-03-22 23:45:52","504"
"AGFWV1U4CJXP5



","cs_wg_v3_pilot1","35K3O9HUABEXLT3XXZ1H78F3ZQCEFJ","0","STRUCTURE","2","5","0","4496","structure","2","2017-03-22 23:45:54","505"
"AMPMTF5IAAMK8","cs_wg_v3_pilot1","3T3IWE1XG6OW11B31A16ITJI928QTF","0","BASKET","0","5","1","7397","BASKET","0","2017-03-22 23:45:59","506"
"A3MPHGI584PR1U","cs_wg_v3_pilot1","3VAR3R6G1P2AI56ZJZY72SSVGO5O8G","0","FOOTBALL","2","5","1","2952","football","2","2017-03-22 23:46:01","507"
"A3BUWQ5C39GRQC","cs_wg_v3_pilot1","3HHRAGRYX86AWAP9OR4L2ON60UNO95","0","STRUCTURE","10","5","0","4572","structure","10","2017-03-22 23:46:03","508"
"AGFWV1U4CJXP5



","cs_wg_v3_pilot1","35K3O9HUABEXLT3XXZ1H78F3ZQCEFJ","0","LADDER","0","5","0","4496","ladder","0","2017-03-22 23:46:04","509"
"AMPMTF5IAAMK8","cs_wg_v3_pilot1","3T3IWE1XG6OW11B31A16ITJI928QTF","0","UMBRELLA","10","5","0","7397","UMBRELLA","10","2017-03-22 23:46:07","510"
"A3MPHGI584PR1U","cs_wg_v3_pilot1","3VAR3R6G1P2AI56ZJZY72SSVGO5O8G","0","DOORWAY","0","5","1","2952","doorway","0","2017-03-22 23:46:10","511"
"DOORWAY = 2 points
A1O0DVNTMUGRLK","cs_wg_v3_pilot1","352YTHGROVEZ7NXA3JD417FP2GVH4E","0","COMMUNITY","10","5","0","1494","community ","10","2017-03-22 23:46:12","512"
"AGFWV1U4CJXP5



","cs_wg_v3_pilot1","35K3O9HUABEXLT3XXZ1H78F3ZQCEFJ","0","WEDDING","10","5","1","4496","wedding","10","2017-03-22 23:46:15","513"
"AMPMTF5IAAMK8","cs_wg_v3_pilot1","3T3IWE1XG6OW11B31A16ITJI928QTF","0","STRUCTURE","2","5","0","7397","STRUCTURE","2","2017-03-22 23:46:15","514"
"A3MPHGI584PR1U","cs_wg_v3_pilot1","3VAR3R6G1P2AI56ZJZY72SSVGO5O8G","0","BASKET","10","5","0","2952","basket","10","2017-03-22 23:46:19","515"
"A3BUWQ5C39GRQC","cs_wg_v3_pilot1","3HHRAGRYX86AWAP9OR4L2ON60UNO95","0","UMBRELLA","9","5","0","4572","umbrella","9","2017-03-22 23:46:21","516"
"DOORWAY = 2 points
A1O0DVNTMUGRLK","cs_wg_v3_pilot1","352YTHGROVEZ7NXA3JD417FP2GVH4E","0","KEYBOARD","0","5","0","1494","keyboard ","0","2017-03-22 23:46:23","517"
"AMPMTF5IAAMK8","cs_wg_v3_pilot1","3T3IWE1XG6OW11B31A16ITJI928QTF","0","STRUCTURE","2","5","0","7397","STRUCTURE","2","2017-03-22 23:46:25","518"
"AGFWV1U4CJXP5



","cs_wg_v3_pilot1","35K3O9HUABEXLT3XXZ1H78F3ZQCEFJ","0","KEYBOARD","9","5","1","4496","keyboard","9","2017-03-22 23:46:26","519"
"A3MPHGI584PR1U","cs_wg_v3_pilot1","3VAR3R6G1P2AI56ZJZY72SSVGO5O8G","0","HELICOPTER","0","5","1","2952","helicopter","0","2017-03-22 23:46:28","520"
"A3BUWQ5C39GRQC","cs_wg_v3_pilot1","3HHRAGRYX86AWAP9OR4L2ON60UNO95","0","BASKET","0","5","1","4572","basket","0","2017-03-22 23:46:30","521"
"AMPMTF5IAAMK8","cs_wg_v3_pilot1","3T3IWE1XG6OW11B31A16ITJI928QTF","0","STRUCTURE","2","5","1","7397","STRUCTURE","2","2017-03-22 23:46:34","522"
"AGFWV1U4CJXP5



","cs_wg_v3_pilot1","35K3O9HUABEXLT3XXZ1H78F3ZQCEFJ","0","WEDDING","10","5","0","4496","wedding","10","2017-03-22 23:46:36","523"
"DOORWAY = 2 points
A1O0DVNTMUGRLK","cs_wg_v3_pilot1","352YTHGROVEZ7NXA3JD417FP2GVH4E","0","BASKET","8","5","0","1494","basket","8","2017-03-22 23:46:37","524"
"A3BUWQ5C39GRQC","cs_wg_v3_pilot1","3HHRAGRYX86AWAP9OR4L2ON60UNO95","0","LADDER","9","5","0","4572","ladder","9","2017-03-22 23:46:41","525"
"A3MPHGI584PR1U","cs_wg_v3_pilot1","3VAR3R6G1P2AI56ZJZY72SSVGO5O8G","0","STRUCTURE","10","5","0","2952","structure","10","2017-03-22 23:46:42","526"
"AMPMTF5IAAMK8","cs_wg_v3_pilot1","3T3IWE1XG6OW11B31A16ITJI928QTF","0","STOMACH","1","5","1","7397","STOMACH","1","2017-03-22 23:46:45","527"
"DOORWAY = 2 points
A1O0DVNTMUGRLK","cs_wg_v3_pilot1","352YTHGROVEZ7NXA3JD417FP2GVH4E","0","KEYBOARD","0","5","1","1494","keybroad","0","2017-03-22 23:46:47","528"
"AGFWV1U4CJXP5



","cs_wg_v3_pilot1","35K3O9HUABEXLT3XXZ1H78F3ZQCEFJ","0","LADDER","0","5","1","4496","ladder","0","2017-03-22 23:46:47","529"
"A3BUWQ5C39GRQC","cs_wg_v3_pilot1","3HHRAGRYX86AWAP9OR4L2ON60UNO95","0","WEDDING","10","5","0","4572","wedding","10","2017-03-22 23:46:51","530"
"A3MPHGI584PR1U","cs_wg_v3_pilot1","3VAR3R6G1P2AI56ZJZY72SSVGO5O8G","0","UMBRELLA","10","5","0","2952","umbrella","10","2017-03-22 23:46:51","531"
"AMPMTF5IAAMK8","cs_wg_v3_pilot1","3T3IWE1XG6OW11B31A16ITJI928QTF","0","HELICOPTER","8","5","0","7397","HELICOPTER","8","2017-03-22 23:46:54","532"
"AGFWV1U4CJXP5



","cs_wg_v3_pilot1","35K3O9HUABEXLT3XXZ1H78F3ZQCEFJ","0","LADDER","0","5","0","4496","ladder","0","2017-03-22 23:46:58","533"
"DOORWAY = 2 points
A1O0DVNTMUGRLK","cs_wg_v3_pilot1","352YTHGROVEZ7NXA3JD417FP2GVH4E","0","FOOTBALL","1","5","0","1494","football","1","2017-03-22 23:46:59","534"
"A3MPHGI584PR1U","cs_wg_v3_pilot1","3VAR3R6G1P2AI56ZJZY72SSVGO5O8G","0","FOOTBALL","2","5","1","2952","football","2","2017-03-22 23:47:00","535"
"A3BUWQ5C39GRQC","cs_wg_v3_pilot1","3HHRAGRYX86AWAP9OR4L2ON60UNO95","0","BOOKSHELF","10","5","0","4572","bookshelf","10","2017-03-22 23:47:04","536"
"AMPMTF5IAAMK8","cs_wg_v3_pilot1","3T3IWE1XG6OW11B31A16ITJI928QTF","0","STRUCTURE","2","5","1","7397","STRUCTURE","2","2017-03-22 23:47:05","537"
"A3MPHGI584PR1U","cs_wg_v3_pilot1","3VAR3R6G1P2AI56ZJZY72SSVGO5O8G","0","BASKET","10","5","0","2952","basket","10","2017-03-22 23:47:08","538"
"AGFWV1U4CJXP5



","cs_wg_v3_pilot1","35K3O9HUABEXLT3XXZ1H78F3ZQCEFJ","0","BASKET","8","5","1","4496","basket","8","2017-03-22 23:47:09","539"
"DOORWAY = 2 points
A1O0DVNTMUGRLK","cs_wg_v3_pilot1","352YTHGROVEZ7NXA3JD417FP2GVH4E","0","STOMACH","10","5","0","1494","stomach","10","2017-03-22 23:47:10","540"
"AMPMTF5IAAMK8","cs_wg_v3_pilot1","3T3IWE1XG6OW11B31A16ITJI928QTF","0","MACHINE","0","5","1","7397","MACHINE","0","2017-03-22 23:47:14","541"
"A3MPHGI584PR1U","cs_wg_v3_pilot1","3VAR3R6G1P2AI56ZJZY72SSVGO5O8G","0","BOOKSHELF","8","5","0","2952","bookshelf","8","2017-03-22 23:47:18","542"
"AGFWV1U4CJXP5



","cs_wg_v3_pilot1","35K3O9HUABEXLT3XXZ1H78F3ZQCEFJ","0","MACHINE","9","5","0","4496","machine","9","2017-03-22 23:47:19","543"
"A3BUWQ5C39GRQC","cs_wg_v3_pilot1","3HHRAGRYX86AWAP9OR4L2ON60UNO95","0","BOOKSHELF","10","5","0","4572","wedding","10","2017-03-22 23:47:22","544"
"DOORWAY = 2 points
A1O0DVNTMUGRLK","cs_wg_v3_pilot1","352YTHGROVEZ7NXA3JD417FP2GVH4E","0","KEYBOARD","0","5","0","1494","keybroad","0","2017-03-22 23:47:25","545"
"AMPMTF5IAAMK8","cs_wg_v3_pilot1","3T3IWE1XG6OW11B31A16ITJI928QTF","0","HELICOPTER","8","5","0","7397","HELICOPTER","8","2017-03-22 23:47:25","546"
"A3MPHGI584PR1U","cs_wg_v3_pilot1","3VAR3R6G1P2AI56ZJZY72SSVGO5O8G","0","UMBRELLA","10","5","0","2952","umbrella","10","2017-03-22 23:47:27","547"
"A3BUWQ5C39GRQC","cs_wg_v3_pilot1","3HHRAGRYX86AWAP9OR4L2ON60UNO95","0","MACHINE","2","5","1","4572","machine","2","2017-03-22 23:47:31","548"
"AGFWV1U4CJXP5



","cs_wg_v3_pilot1","35K3O9HUABEXLT3XXZ1H78F3ZQCEFJ","0","KEYBOARD","9","5","0","4496","keyboard ","9","2017-03-22 23:47:36","549"
"DOORWAY = 2 points
A1O0DVNTMUGRLK","cs_wg_v3_pilot1","352YTHGROVEZ7NXA3JD417FP2GVH4E","0","COMMUNITY","10","5","0","1494","community","10","2017-03-22 23:47:37","550"
"AMPMTF5IAAMK8","cs_wg_v3_pilot1","3T3IWE1XG6OW11B31A16ITJI928QTF","0","FOOTBALL","1","5","0","7397","FOOTBALL","1","2017-03-22 23:47:41","551"
"A3MPHGI584PR1U","cs_wg_v3_pilot1","3VAR3R6G1P2AI56ZJZY72SSVGO5O8G","0","KEYBOARD","8","5","0","2952","keyboard","8","2017-03-22 23:47:41","552"
"A3BUWQ5C39GRQC","cs_wg_v3_pilot1","3HHRAGRYX86AWAP9OR4L2ON60UNO95","0","FOOTBALL","8","5","0","4572","football","8","2017-03-22 23:47:43","553"
"APR6H3HAOE9OU","cs_wg_v3_pilot1","3NOKK93PR195FF312OHBPQU3NPXEE1","0","LADDER","0","5","1","5820","ladder","0","2017-03-22 23:47:43","554"
"AMPMTF5IAAMK8","cs_wg_v3_pilot1","3T3IWE1XG6OW11B31A16ITJI928QTF","0","KEYBOARD","9","5","0","7397","KEYBOARD","9","2017-03-22 23:47:49","555"
"A3MPHGI584PR1U","cs_wg_v3_pilot1","3VAR3R6G1P2AI56ZJZY72SSVGO5O8G","0","BOOKSHELF","8","5","0","2952","bookshelf","8","2017-03-22 23:47:50","556"
"AGFWV1U4CJXP5



","cs_wg_v3_pilot1","35K3O9HUABEXLT3XXZ1H78F3ZQCEFJ","0","WEDDING","10","5","0","4496","wedding","10","2017-03-22 23:47:52","557"
"APR6H3HAOE9OU","cs_wg_v3_pilot1","3NOKK93PR195FF312OHBPQU3NPXEE1","0","DOORWAY","1","5","1","5820","doorway","1","2017-03-22 23:47:53","558"
"DOORWAY = 2 points
A1O0DVNTMUGRLK","cs_wg_v3_pilot1","352YTHGROVEZ7NXA3JD417FP2GVH4E","0","UMBRELLA","2","5","0","1494","umrella","2","2017-03-22 23:47:53","559"
"A3FCZNB9E8K3CX","cs_wg_v3_pilot1","3PJ71Z61R43P0II8IP6AQSAY7JD913","0","STRUCTURE","0","5","0","4235","structure","0","2017-03-22 23:47:54","560"
"A3BUWQ5C39GRQC","cs_wg_v3_pilot1","3HHRAGRYX86AWAP9OR4L2ON60UNO95","0","WEDDING","10","5","0","4572","wedding","10","2017-03-22 23:47:56","561"
"AMPMTF5IAAMK8","cs_wg_v3_pilot1","3T3IWE1XG6OW11B31A16ITJI928QTF","0","COMMUNITY","9","5","0","7397","COMMUNITY","9","2017-03-22 23:47:58","562"
"A3MPHGI584PR1U","cs_wg_v3_pilot1","3VAR3R6G1P2AI56ZJZY72SSVGO5O8G","0","MACHINE","9","5","0","2952","machine","9","2017-03-22 23:47:59","563"
"APR6H3HAOE9OU","cs_wg_v3_pilot1","3NOKK93PR195FF312OHBPQU3NPXEE1","0","KEYBOARD","9","5","0","5820","keyboard","9","2017-03-22 23:48:01","564"
"AGFWV1U4CJXP5



","cs_wg_v3_pilot1","35K3O9HUABEXLT3XXZ1H78F3ZQCEFJ","0","DOORWAY","1","5","0","4496","doorway","1","2017-03-22 23:48:02","565"
"A3FCZNB9E8K3CX","cs_wg_v3_pilot1","3PJ71Z61R43P0II8IP6AQSAY7JD913","0","BASKET","0","5","0","4235","basket","0","2017-03-22 23:48:05","566"
"A3BUWQ5C39GRQC","cs_wg_v3_pilot1","3HHRAGRYX86AWAP9OR4L2ON60UNO95","0","MACHINE","2","5","1","4572","machine","2","2017-03-22 23:48:07","567"
"AMPMTF5IAAMK8","cs_wg_v3_pilot1","3T3IWE1XG6OW11B31A16ITJI928QTF","0","COMMUNITY","9","5","0","7397","COMMUNITY","9","2017-03-22 23:48:07","568"
"A3MPHGI584PR1U","cs_wg_v3_pilot1","3VAR3R6G1P2AI56ZJZY72SSVGO5O8G","0","LADDER","1","5","1","2952","ladder","1","2017-03-22 23:48:08","569"
"APR6H3HAOE9OU","cs_wg_v3_pilot1","3NOKK93PR195FF312OHBPQU3NPXEE1","0","LADDER","0","5","1","5820","ladder","0","2017-03-22 23:48:10","570"
"A2106ZBHRHGX64","cs_wg_v3_pilot1","326O153BMIZ0N9P16T6RJ8CINDWED8","0","STRUCTURE","1","5","0","3406","structure","5","2017-03-22 23:48:10","571"
"DOORWAY = 2 points
A1O0DVNTMUGRLK","cs_wg_v3_pilot1","352YTHGROVEZ7NXA3JD417FP2GVH4E","0","TRAFFIC","0","5","1","1494","traffic","0","2017-03-22 23:48:11","572"
"AGFWV1U4CJXP5



","cs_wg_v3_pilot1","35K3O9HUABEXLT3XXZ1H78F3ZQCEFJ","0","BOOKSHELF","8","5","0","4496","bookshelf","8","2017-03-22 23:48:13","573"
"AMPMTF5IAAMK8","cs_wg_v3_pilot1","3T3IWE1XG6OW11B31A16ITJI928QTF","0","BASKET","0","5","1","7397","BASKET","0","2017-03-22 23:48:15","574"
"A3FCZNB9E8K3CX","cs_wg_v3_pilot1","3PJ71Z61R43P0II8IP6AQSAY7JD913","0","TRAFFIC","2","5","0","4235","traffic","2","2017-03-22 23:48:16","575"
"A3BUWQ5C39GRQC","cs_wg_v3_pilot1","3HHRAGRYX86AWAP9OR4L2ON60UNO95","0","TRAFFIC","0","5","0","4572","traffic","0","2017-03-22 23:48:16","576"
"A3MPHGI584PR1U","cs_wg_v3_pilot1","3VAR3R6G1P2AI56ZJZY72SSVGO5O8G","0","FOOTBALL","2","5","1","2952","football","2","2017-03-22 23:48:18","577"
"APR6H3HAOE9OU","cs_wg_v3_pilot1","3NOKK93PR195FF312OHBPQU3NPXEE1","0","BASKET","2","5","1","5820","basket","2","2017-03-22 23:48:18","578"
"DOORWAY = 2 points
A1O0DVNTMUGRLK","cs_wg_v3_pilot1","352YTHGROVEZ7NXA3JD417FP2GVH4E","0","BASKET","8","5","0","1494","basket","8","2017-03-22 23:48:22","579"
"A2106ZBHRHGX64","cs_wg_v3_pilot1","326O153BMIZ0N9P16T6RJ8CINDWED8","0","STOMACH","8","5","0","3406","stomach","8","2017-03-22 23:48:24","580"
"AGFWV1U4CJXP5



","cs_wg_v3_pilot1","35K3O9HUABEXLT3XXZ1H78F3ZQCEFJ","0","COMMUNITY","10","5","1","4496","community","10","2017-03-22 23:48:24","581"
"AMPMTF5IAAMK8","cs_wg_v3_pilot1","3T3IWE1XG6OW11B31A16ITJI928QTF","0","FOOTBALL","1","5","1","7397","FOOTBALL","1","2017-03-22 23:48:25","582"
"A3BUWQ5C39GRQC","cs_wg_v3_pilot1","3HHRAGRYX86AWAP9OR4L2ON60UNO95","0","TRAFFIC","0","5","1","4572","traffic","0","2017-03-22 23:48:26","583"
"APR6H3HAOE9OU","cs_wg_v3_pilot1","3NOKK93PR195FF312OHBPQU3NPXEE1","0","MACHINE","10","5","0","5820","machine","10","2017-03-22 23:48:27","584"
"A3MPHGI584PR1U","cs_wg_v3_pilot1","3VAR3R6G1P2AI56ZJZY72SSVGO5O8G","0","FOOTBALL","2","5","1","2952","football","2","2017-03-22 23:48:27","585"
"A3FCZNB9E8K3CX","cs_wg_v3_pilot1","3PJ71Z61R43P0II8IP6AQSAY7JD913","0","BOOKSHELF","8","5","0","4235","bookshelf","8","2017-03-22 23:48:28","586"
"DOORWAY = 2 points
A1O0DVNTMUGRLK","cs_wg_v3_pilot1","352YTHGROVEZ7NXA3JD417FP2GVH4E","0","COMMUNITY","10","5","0","1494","community","10","2017-03-22 23:48:32","587"
"A2106ZBHRHGX64","cs_wg_v3_pilot1","326O153BMIZ0N9P16T6RJ8CINDWED8","0","WEDDING","2","5","0","3406","wedding","2","2017-03-22 23:48:34","588"
"AGFWV1U4CJXP5



","cs_wg_v3_pilot1","35K3O9HUABEXLT3XXZ1H78F3ZQCEFJ","0","LADDER","0","5","1","4496","ladder","0","2017-03-22 23:48:35","589"
"A3MPHGI584PR1U","cs_wg_v3_pilot1","3VAR3R6G1P2AI56ZJZY72SSVGO5O8G","0","WEDDING","1","5","1","2952","wedding","1","2017-03-22 23:48:36","590"
"APR6H3HAOE9OU","cs_wg_v3_pilot1","3NOKK93PR195FF312OHBPQU3NPXEE1","0","UMBRELLA","2","5","1","5820","umbrella","2","2017-03-22 23:48:36","591"
"A3BUWQ5C39GRQC","cs_wg_v3_pilot1","3HHRAGRYX86AWAP9OR4L2ON60UNO95","0","STOMACH","1","5","1","4572","stomach","1","2017-03-22 23:48:36","592"
"AMPMTF5IAAMK8","cs_wg_v3_pilot1","3T3IWE1XG6OW11B31A16ITJI928QTF","0","WEDDING","2","5","1","7397","WEDDING","2","2017-03-22 23:48:39","593"
"A3FCZNB9E8K3CX","cs_wg_v3_pilot1","3PJ71Z61R43P0II8IP6AQSAY7JD913","0","STRUCTURE","0","5","1","4235","structure","0","2017-03-22 23:48:42","594"
"AGFWV1U4CJXP5



","cs_wg_v3_pilot1","35K3O9HUABEXLT3XXZ1H78F3ZQCEFJ","0","UMBRELLA","1","5","0","4496","umbrella","1","2017-03-22 23:48:45","595"
"DOORWAY = 2 points
A1O0DVNTMUGRLK","cs_wg_v3_pilot1","352YTHGROVEZ7NXA3JD417FP2GVH4E","0","LADDER","1","5","0","1494","ladder","1","2017-03-22 23:48:45","596"
"APR6H3HAOE9OU","cs_wg_v3_pilot1","3NOKK93PR195FF312OHBPQU3NPXEE1","0","BOOKSHELF","8","5","0","5820","bookshelf","8","2017-03-22 23:48:45","597"
"A3BUWQ5C39GRQC","cs_wg_v3_pilot1","3HHRAGRYX86AWAP9OR4L2ON60UNO95","0","KEYBOARD","0","5","1","4572","keyboard","0","2017-03-22 23:48:47","598"
"AMPMTF5IAAMK8","cs_wg_v3_pilot1","3T3IWE1XG6OW11B31A16ITJI928QTF","0","BASKET","0","5","1","7397","BASKET","0","2017-03-22 23:48:48","599"
"A3MPHGI584PR1U","cs_wg_v3_pilot1","3VAR3R6G1P2AI56ZJZY72SSVGO5O8G","0","KEYBOARD","8","5","0","2952","keyboard","8","2017-03-22 23:48:49","600"
"A3FCZNB9E8K3CX","cs_wg_v3_pilot1","3PJ71Z61R43P0II8IP6AQSAY7JD913","0","TRAFFIC","2","5","1","4235","traffic","2","2017-03-22 23:48:52","601"
"DOORWAY = 2 points
A1O0DVNTMUGRLK","cs_wg_v3_pilot1","352YTHGROVEZ7NXA3JD417FP2GVH4E","0","MACHINE","10","5","0","1494","machine","10","2017-03-22 23:48:54","602"
"A3BUWQ5C39GRQC","cs_wg_v3_pilot1","3HHRAGRYX86AWAP9OR4L2ON60UNO95","0","KEYBOARD","0","5","1","4572","keyboard","0","2017-03-22 23:48:56","603"
"AMPMTF5IAAMK8","cs_wg_v3_pilot1","3T3IWE1XG6OW11B31A16ITJI928QTF","0","LADDER","8","5","1","7397","LADDER","8","2017-03-22 23:48:57","604"
"A2106ZBHRHGX64","cs_wg_v3_pilot1","326O153BMIZ0N9P16T6RJ8CINDWED8","0","UMBRELLA","9","5","0","3406","umbrella","9","2017-03-22 23:48:58","605"
"APR6H3HAOE9OU","cs_wg_v3_pilot1","3NOKK93PR195FF312OHBPQU3NPXEE1","0","COMMUNITY","10","5","0","5820","community","10","2017-03-22 23:48:59","606"
"A3MPHGI584PR1U","cs_wg_v3_pilot1","3VAR3R6G1P2AI56ZJZY72SSVGO5O8G","0","STRUCTURE","10","5","0","2952","structure","10","2017-03-22 23:48:59","607"
"A3FCZNB9E8K3CX","cs_wg_v3_pilot1","3PJ71Z61R43P0II8IP6AQSAY7JD913","0","FOOTBALL","10","5","0","4235","football","10","2017-03-22 23:49:02","608"
"DOORWAY = 2 points
A1O0DVNTMUGRLK","cs_wg_v3_pilot1","352YTHGROVEZ7NXA3JD417FP2GVH4E","0","BOOKSHELF","2","5","0","1494","bookshelf","2","2017-03-22 23:49:04","609"
"AMPMTF5IAAMK8","cs_wg_v3_pilot1","3T3IWE1XG6OW11B31A16ITJI928QTF","0","TRAFFIC","10","5","0","7397","TRAFFIC","10","2017-03-22 23:49:06","610"
"A3BUWQ5C39GRQC","cs_wg_v3_pilot1","3HHRAGRYX86AWAP9OR4L2ON60UNO95","0","COMMUNITY","1","5","1","4572","community","1","2017-03-22 23:49:06","611"
"A3MPHGI584PR1U","cs_wg_v3_pilot1","3VAR3R6G1P2AI56ZJZY72SSVGO5O8G","0","KEYBOARD","8","5","0","2952","keyboard","8","2017-03-22 23:49:08","612"
"APR6H3HAOE9OU","cs_wg_v3_pilot1","3NOKK93PR195FF312OHBPQU3NPXEE1","0","STRUCTURE","8","5","0","5820","structure","9","2017-03-22 23:49:09","613"
"A2106ZBHRHGX64","cs_wg_v3_pilot1","326O153BMIZ0N9P16T6RJ8CINDWED8","0","HELICOPTER","10","5","0","3406","helicopter","10","2017-03-22 23:49:11","614"
"A3FCZNB9E8K3CX","cs_wg_v3_pilot1","3PJ71Z61R43P0II8IP6AQSAY7JD913","0","STRUCTURE","0","5","1","4235","structure","0","2017-03-22 23:49:12","615"
"DOORWAY = 2 points
A1O0DVNTMUGRLK","cs_wg_v3_pilot1","352YTHGROVEZ7NXA3JD417FP2GVH4E","0","BASKET","8","5","0","1494","basket","8","2017-03-22 23:49:14","616"
"AMPMTF5IAAMK8","cs_wg_v3_pilot1","3T3IWE1XG6OW11B31A16ITJI928QTF","0","UMBRELLA","10","5","0","7397","UMBRELLA","10","2017-03-22 23:49:15","617"
"A3BUWQ5C39GRQC","cs_wg_v3_pilot1","3HHRAGRYX86AWAP9OR4L2ON60UNO95","0","COMMUNITY","1","5","1","4572","community","1","2017-03-22 23:49:16","618"
"APR6H3HAOE9OU","cs_wg_v3_pilot1","3NOKK93PR195FF312OHBPQU3NPXEE1","0","STRUCTURE","8","5","0","5820","structure","8","2017-03-22 23:49:18","619"
"A2106ZBHRHGX64","cs_wg_v3_pilot1","326O153BMIZ0N9P16T6RJ8CINDWED8","0","MACHINE","1","5","0","3406","machine","1","2017-03-22 23:49:20","620"
"A3MPHGI584PR1U","cs_wg_v3_pilot1","3VAR3R6G1P2AI56ZJZY72SSVGO5O8G","0","DOORWAY","0","5","1","2952","doorway","0","2017-03-22 23:49:20","621"
"AMPMTF5IAAMK8","cs_wg_v3_pilot1","3T3IWE1XG6OW11B31A16ITJI928QTF","0","KEYBOARD","9","5","0","7397","KEYBOARD","9","2017-03-22 23:49:23","622"
"A3FCZNB9E8K3CX","cs_wg_v3_pilot1","3PJ71Z61R43P0II8IP6AQSAY7JD913","0","FOOTBALL","10","5","0","4235","football","10","2017-03-22 23:49:24","623"
"A3BUWQ5C39GRQC","cs_wg_v3_pilot1","3HHRAGRYX86AWAP9OR4L2ON60UNO95","0","KEYBOARD","0","5","1","4572","keyboard","0","2017-03-22 23:49:27","624"
"DOORWAY = 2 points
A1O0DVNTMUGRLK","cs_wg_v3_pilot1","352YTHGROVEZ7NXA3JD417FP2GVH4E","0","HELICOPTER","9","5","0","1494","helicopter","9","2017-03-22 23:49:27","625"
"A3MPHGI584PR1U","cs_wg_v3_pilot1","3VAR3R6G1P2AI56ZJZY72SSVGO5O8G","0","COMMUNITY","0","5","1","2952","community","0","2017-03-22 23:49:28","626"
"A2106ZBHRHGX64","cs_wg_v3_pilot1","326O153BMIZ0N9P16T6RJ8CINDWED8","0","COMMUNITY","2","5","0","3406","community","2","2017-03-22 23:49:28","627"
"APR6H3HAOE9OU","cs_wg_v3_pilot1","3NOKK93PR195FF312OHBPQU3NPXEE1","0","TRAFFIC","10","5","0","5820","traffic","10","2017-03-22 23:49:29","628"
"AMPMTF5IAAMK8","cs_wg_v3_pilot1","3T3IWE1XG6OW11B31A16ITJI928QTF","0","LADDER","8","5","1","7397","LADDER","8","2017-03-22 23:49:31","629"
"A3FCZNB9E8K3CX","cs_wg_v3_pilot1","3PJ71Z61R43P0II8IP6AQSAY7JD913","0","STRUCTURE","0","5","1","4235","structure","0","2017-03-22 23:49:34","630"
"A3BUWQ5C39GRQC","cs_wg_v3_pilot1","3HHRAGRYX86AWAP9OR4L2ON60UNO95","0","BASKET","0","5","1","4572","basket","0","2017-03-22 23:49:36","631"
"DOORWAY = 2 points
A1O0DVNTMUGRLK","cs_wg_v3_pilot1","352YTHGROVEZ7NXA3JD417FP2GVH4E","0","DOORWAY","0","5","0","1494","doorway","0","2017-03-22 23:49:37","632"
"A2106ZBHRHGX64","cs_wg_v3_pilot1","326O153BMIZ0N9P16T6RJ8CINDWED8","0","BASKET","10","5","0","3406","basket","10","2017-03-22 23:49:37","633"
"A3MPHGI584PR1U","cs_wg_v3_pilot1","3VAR3R6G1P2AI56ZJZY72SSVGO5O8G","0","KEYBOARD","8","5","0","2952","keyboard","8","2017-03-22 23:49:38","634"
"APR6H3HAOE9OU","cs_wg_v3_pilot1","3NOKK93PR195FF312OHBPQU3NPXEE1","0","MACHINE","10","5","0","5820","machine","10","2017-03-22 23:49:39","635"
"AMPMTF5IAAMK8","cs_wg_v3_pilot1","3T3IWE1XG6OW11B31A16ITJI928QTF","0","BOOKSHELF","0","5","0","7397","BOOKSHELF","0","2017-03-22 23:49:41","636"
"A3FCZNB9E8K3CX","cs_wg_v3_pilot1","3PJ71Z61R43P0II8IP6AQSAY7JD913","0","COMMUNITY","8","5","0","4235","community","8","2017-03-22 23:49:45","637"
"A3BUWQ5C39GRQC","cs_wg_v3_pilot1","3HHRAGRYX86AWAP9OR4L2ON60UNO95","0","STRUCTURE","10","5","0","4572","structure","10","2017-03-22 23:49:46","638"
"APR6H3HAOE9OU","cs_wg_v3_pilot1","3NOKK93PR195FF312OHBPQU3NPXEE1","0","STOMACH","0","5","1","5820","stomach","0","2017-03-22 23:49:48","639"
"A3MPHGI584PR1U","cs_wg_v3_pilot1","3VAR3R6G1P2AI56ZJZY72SSVGO5O8G","0","BASKET","10","5","0","2952","basket","10","2017-03-22 23:49:48","640"
"A2106ZBHRHGX64","cs_wg_v3_pilot1","326O153BMIZ0N9P16T6RJ8CINDWED8","0","WEDDING","2","5","1","3406","wedding","2","2017-03-22 23:49:48","641"
"AMPMTF5IAAMK8","cs_wg_v3_pilot1","3T3IWE1XG6OW11B31A16ITJI928QTF","0","UMBRELLA","10","5","0","7397","UMBRELLA","10","2017-03-22 23:49:48","642"
"DOORWAY = 2 points
A1O0DVNTMUGRLK","cs_wg_v3_pilot1","352YTHGROVEZ7NXA3JD417FP2GVH4E","0","HELICOPTER","9","5","0","1494","helicopter","9","2017-03-22 23:49:49","643"
"A3FCZNB9E8K3CX","cs_wg_v3_pilot1","3PJ71Z61R43P0II8IP6AQSAY7JD913","0","KEYBOARD","1","5","0","4235","keyboard","1","2017-03-22 23:49:55","644"
"A3MPHGI584PR1U","cs_wg_v3_pilot1","3VAR3R6G1P2AI56ZJZY72SSVGO5O8G","0","KEYBOARD","8","5","0","2952","keyboard","8","2017-03-22 23:49:57","645"
"AMPMTF5IAAMK8","cs_wg_v3_pilot1","3T3IWE1XG6OW11B31A16ITJI928QTF","0","LADDER","8","5","0","7397","LADDER","8","2017-03-22 23:49:57","646"
"APR6H3HAOE9OU","cs_wg_v3_pilot1","3NOKK93PR195FF312OHBPQU3NPXEE1","0","COMMUNITY","10","5","0","5820","community","10","2017-03-22 23:49:57","647"
"A3BUWQ5C39GRQC","cs_wg_v3_pilot1","3HHRAGRYX86AWAP9OR4L2ON60UNO95","0","FOOTBALL","8","5","0","4572","football","8","2017-03-22 23:49:57","648"
"A2106ZBHRHGX64","cs_wg_v3_pilot1","326O153BMIZ0N9P16T6RJ8CINDWED8","0","HELICOPTER","10","5","0","3406","helicopter","10","2017-03-22 23:49:58","649"
"AMPMTF5IAAMK8","cs_wg_v3_pilot1","3T3IWE1XG6OW11B31A16ITJI928QTF","0","STRUCTURE","2","5","1","7397","STRUCTURE","2","2017-03-22 23:50:04","650"
"A3FCZNB9E8K3CX","cs_wg_v3_pilot1","3PJ71Z61R43P0II8IP6AQSAY7JD913","0","BASKET","0","5","1","4235","basket","0","2017-03-22 23:50:04","651"
"A3MPHGI584PR1U","cs_wg_v3_pilot1","3VAR3R6G1P2AI56ZJZY72SSVGO5O8G","0","WEDDING","1","5","1","2952","wedding","1","2017-03-22 23:50:05","652"
"A3BUWQ5C39GRQC","cs_wg_v3_pilot1","3HHRAGRYX86AWAP9OR4L2ON60UNO95","0","WEDDING","10","5","0","4572","wedding","10","2017-03-22 23:50:06","653"
"APR6H3HAOE9OU","cs_wg_v3_pilot1","3NOKK93PR195FF312OHBPQU3NPXEE1","0","WEDDING","0","5","1","5820","wedding","0","2017-03-22 23:50:06","654"
"A2106ZBHRHGX64","cs_wg_v3_pilot1","326O153BMIZ0N9P16T6RJ8CINDWED8","0","WEDDING","2","5","1","3406","wedding","2","2017-03-22 23:50:07","655"
"A3FCZNB9E8K3CX","cs_wg_v3_pilot1","3PJ71Z61R43P0II8IP6AQSAY7JD913","0","STOMACH","9","5","0","4235","stomach","9","2017-03-22 23:50:13","656"
"APR6H3HAOE9OU","cs_wg_v3_pilot1","3NOKK93PR195FF312OHBPQU3NPXEE1","0","STOMACH","0","5","1","5820","stomach","0","2017-03-22 23:50:15","657"
"A3BUWQ5C39GRQC","cs_wg_v3_pilot1","3HHRAGRYX86AWAP9OR4L2ON60UNO95","0","BASKET","0","5","1","4572","basket","0","2017-03-22 23:50:15","658"
"AMPMTF5IAAMK8","cs_wg_v3_pilot1","3T3IWE1XG6OW11B31A16ITJI928QTF","0","LADDER","8","5","0","7397","LADDER","8","2017-03-22 23:50:16","659"
"A2106ZBHRHGX64","cs_wg_v3_pilot1","326O153BMIZ0N9P16T6RJ8CINDWED8","0","BASKET","10","5","0","3406","basket","10","2017-03-22 23:50:19","660"
"A3FCZNB9E8K3CX","cs_wg_v3_pilot1","3PJ71Z61R43P0II8IP6AQSAY7JD913","0","HELICOPTER","2","5","0","4235","helicopter","2","2017-03-22 23:50:23","661"
"A3BUWQ5C39GRQC","cs_wg_v3_pilot1","3HHRAGRYX86AWAP9OR4L2ON60UNO95","0","STRUCTURE","10","5","0","4572","structure","10","2017-03-22 23:50:24","662"
"AMPMTF5IAAMK8","cs_wg_v3_pilot1","3T3IWE1XG6OW11B31A16ITJI928QTF","0","MACHINE","0","5","1","7397","MACHINE","0","2017-03-22 23:50:25","663"
"APR6H3HAOE9OU","cs_wg_v3_pilot1","3NOKK93PR195FF312OHBPQU3NPXEE1","0","COMMUNITY","10","5","0","5820","community","10","2017-03-22 23:50:27","664"
"A2106ZBHRHGX64","cs_wg_v3_pilot1","326O153BMIZ0N9P16T6RJ8CINDWED8","0","WEDDING","2","5","1","3406","wedding","2","2017-03-22 23:50:29","665"
"A3FCZNB9E8K3CX","cs_wg_v3_pilot1","3PJ71Z61R43P0II8IP6AQSAY7JD913","0","DOORWAY","0","5","0","4235","doorway","0","2017-03-22 23:50:32","666"
"A3BUWQ5C39GRQC","cs_wg_v3_pilot1","3HHRAGRYX86AWAP9OR4L2ON60UNO95","0","UMBRELLA","9","5","0","4572","umbrella","9","2017-03-22 23:50:33","667"
"AMPMTF5IAAMK8","cs_wg_v3_pilot1","3T3IWE1XG6OW11B31A16ITJI928QTF","0","FOOTBALL","1","5","1","7397","FOOTBALL","1","2017-03-22 23:50:33","668"
"APR6H3HAOE9OU","cs_wg_v3_pilot1","3NOKK93PR195FF312OHBPQU3NPXEE1","0","BOOKSHELF","8","5","0","5820","bookshelf","8","2017-03-22 23:50:38","669"
"DOORWAY = 2 points
A1O0DVNTMUGRLK","cs_wg_v3_pilot1","352YTHGROVEZ7NXA3JD417FP2GVH4E","0","FOOTBALL","1","5","1","1494","football","1","2017-03-22 23:50:38","670"
"A3FCZNB9E8K3CX","cs_wg_v3_pilot1","3PJ71Z61R43P0II8IP6AQSAY7JD913","0","MACHINE","10","5","0","4235","machine","10","2017-03-22 23:50:41","671"
"A2106ZBHRHGX64","cs_wg_v3_pilot1","326O153BMIZ0N9P16T6RJ8CINDWED8","0","LADDER","8","5","0","3406","ladder","8","2017-03-22 23:50:41","672"
"AMPMTF5IAAMK8","cs_wg_v3_pilot1","3T3IWE1XG6OW11B31A16ITJI928QTF","0","DOORWAY","10","5","1","7397","DOORWAY","10","2017-03-22 23:50:45","673"
"DOORWAY = 2 points
A1O0DVNTMUGRLK","cs_wg_v3_pilot1","352YTHGROVEZ7NXA3JD417FP2GVH4E","0","COMMUNITY","10","5","0","1494","community","10","2017-03-22 23:50:49","674"
"A3FCZNB9E8K3CX","cs_wg_v3_pilot1","3PJ71Z61R43P0II8IP6AQSAY7JD913","0","WEDDING","10","5","0","4235","wedding","10","2017-03-22 23:50:50","675"
"APR6H3HAOE9OU","cs_wg_v3_pilot1","3NOKK93PR195FF312OHBPQU3NPXEE1","0","KEYBOARD","9","5","0","5820","keyboard","9","2017-03-22 23:50:50","676"
"A2106ZBHRHGX64","cs_wg_v3_pilot1","326O153BMIZ0N9P16T6RJ8CINDWED8","0","MACHINE","1","5","1","3406","machine","1","2017-03-22 23:50:54","677"
"AMPMTF5IAAMK8","cs_wg_v3_pilot1","3T3IWE1XG6OW11B31A16ITJI928QTF","0","COMMUNITY","9","5","0","7397","COMMUNITY","9","2017-03-22 23:50:55","678"
"DOORWAY = 2 points
A1O0DVNTMUGRLK","cs_wg_v3_pilot1","352YTHGROVEZ7NXA3JD417FP2GVH4E","0","MACHINE","10","5","0","1494","machine","10","2017-03-22 23:50:56","679"
"A3FCZNB9E8K3CX","cs_wg_v3_pilot1","3PJ71Z61R43P0II8IP6AQSAY7JD913","0","FOOTBALL","10","5","0","4235","football","10","2017-03-22 23:51:02","680"
"APR6H3HAOE9OU","cs_wg_v3_pilot1","3NOKK93PR195FF312OHBPQU3NPXEE1","0","COMMUNITY","10","5","0","5820","community","10","2017-03-22 23:51:02","681"
"AMPMTF5IAAMK8","cs_wg_v3_pilot1","3T3IWE1XG6OW11B31A16ITJI928QTF","0","STOMACH","1","5","1","7397","STOMACH","1","2017-03-22 23:51:03","682"
"A2106ZBHRHGX64","cs_wg_v3_pilot1","326O153BMIZ0N9P16T6RJ8CINDWED8","0","FOOTBALL","0","5","0","3406","football","0","2017-03-22 23:51:06","683"
"DOORWAY = 2 points
A1O0DVNTMUGRLK","cs_wg_v3_pilot1","352YTHGROVEZ7NXA3JD417FP2GVH4E","0","HELICOPTER","9","5","1","1494","helicopter","9","2017-03-22 23:51:09","684"
"AMPMTF5IAAMK8","cs_wg_v3_pilot1","3T3IWE1XG6OW11B31A16ITJI928QTF","0","KEYBOARD","9","5","0","7397","KEYBOARD","9","2017-03-22 23:51:12","685"
"APR6H3HAOE9OU","cs_wg_v3_pilot1","3NOKK93PR195FF312OHBPQU3NPXEE1","0","WEDDING","0","5","1","5820","wedding","0","2017-03-22 23:51:12","686"
"A3FCZNB9E8K3CX","cs_wg_v3_pilot1","3PJ71Z61R43P0II8IP6AQSAY7JD913","0","HELICOPTER","2","5","1","4235","helicopter","2","2017-03-22 23:51:15","687"
"A2106ZBHRHGX64","cs_wg_v3_pilot1","326O153BMIZ0N9P16T6RJ8CINDWED8","0","KEYBOARD","0","5","0","3406","keyboard","0","2017-03-22 23:51:16","688"
"APR6H3HAOE9OU","cs_wg_v3_pilot1","3NOKK93PR195FF312OHBPQU3NPXEE1","0","LADDER","0","5","1","5820","ladder","0","2017-03-22 23:51:22","689"
"AMPMTF5IAAMK8","cs_wg_v3_pilot1","3T3IWE1XG6OW11B31A16ITJI928QTF","0","KEYBOARD","9","5","0","7397","KEYBOARD","9","2017-03-22 23:51:25","690"
"A2106ZBHRHGX64","cs_wg_v3_pilot1","326O153BMIZ0N9P16T6RJ8CINDWED8","0","FOOTBALL","0","5","1","3406","football","0","2017-03-22 23:51:26","691"
"A3FCZNB9E8K3CX","cs_wg_v3_pilot1","3PJ71Z61R43P0II8IP6AQSAY7JD913","0","FOOTBALL","10","5","0","4235","football","10","2017-03-22 23:51:26","692"
"DOORWAY = 2 points
A1O0DVNTMUGRLK","cs_wg_v3_pilot1","352YTHGROVEZ7NXA3JD417FP2GVH4E","0","STOMACH","10","5","0","1494","stomach","10","2017-03-22 23:51:27","693"
"APR6H3HAOE9OU","cs_wg_v3_pilot1","3NOKK93PR195FF312OHBPQU3NPXEE1","0","STOMACH","0","5","1","5820","stomach","0","2017-03-22 23:51:32","694"
"A2106ZBHRHGX64","cs_wg_v3_pilot1","326O153BMIZ0N9P16T6RJ8CINDWED8","0","BOOKSHELF","10","5","0","3406","bookshelf","10","2017-03-22 23:51:36","695"
"A3FCZNB9E8K3CX","cs_wg_v3_pilot1","3PJ71Z61R43P0II8IP6AQSAY7JD913","0","MACHINE","10","5","0","4235","machine","10","2017-03-22 23:51:36","696"
"DOORWAY = 2 points
A1O0DVNTMUGRLK","cs_wg_v3_pilot1","352YTHGROVEZ7NXA3JD417FP2GVH4E","0","UMBRELLA","2","5","1","1494","umbrella","2","2017-03-22 23:51:37","697"
"APR6H3HAOE9OU","cs_wg_v3_pilot1","3NOKK93PR195FF312OHBPQU3NPXEE1","0","BOOKSHELF","8","5","0","5820","bookshelf","8","2017-03-22 23:51:44","698"
"A2106ZBHRHGX64","cs_wg_v3_pilot1","326O153BMIZ0N9P16T6RJ8CINDWED8","0","LADDER","8","5","0","3406","ladder","8","2017-03-22 23:51:49","699"
"A3FCZNB9E8K3CX","cs_wg_v3_pilot1","3PJ71Z61R43P0II8IP6AQSAY7JD913","0","WEDDING","10","5","1","4235","wedding","10","2017-03-22 23:51:49","700"
"DOORWAY = 2 points
A1O0DVNTMUGRLK","cs_wg_v3_pilot1","352YTHGROVEZ7NXA3JD417FP2GVH4E","0","LADDER","1","5","1","1494","ladder","1","2017-03-22 23:51:50","701"
"APR6H3HAOE9OU","cs_wg_v3_pilot1","3NOKK93PR195FF312OHBPQU3NPXEE1","0","FOOTBALL","9","5","0","5820","football","9","2017-03-22 23:51:54","702"
"DOORWAY = 2 points
A1O0DVNTMUGRLK","cs_wg_v3_pilot1","352YTHGROVEZ7NXA3JD417FP2GVH4E","0","COMMUNITY","10","5","0","1494","community","10","2017-03-22 23:51:59","703"
"A3FCZNB9E8K3CX","cs_wg_v3_pilot1","3PJ71Z61R43P0II8IP6AQSAY7JD913","0","LADDER","9","5","0","4235","ladder","9","2017-03-22 23:52:01","704"
"A2106ZBHRHGX64","cs_wg_v3_pilot1","326O153BMIZ0N9P16T6RJ8CINDWED8","0","KEYBOARD","0","5","1","3406","keyboard","0","2017-03-22 23:52:01","705"
"APR6H3HAOE9OU","cs_wg_v3_pilot1","3NOKK93PR195FF312OHBPQU3NPXEE1","0","BASKET","2","5","1","5820","basket","2","2017-03-22 23:52:02","706"
"DOORWAY = 2 points
A1O0DVNTMUGRLK","cs_wg_v3_pilot1","352YTHGROVEZ7NXA3JD417FP2GVH4E","0","DOORWAY","0","5","1","1494","doorway","0","2017-03-22 23:52:09","707"
"A3FCZNB9E8K3CX","cs_wg_v3_pilot1","3PJ71Z61R43P0II8IP6AQSAY7JD913","0","KEYBOARD","1","5","1","4235","keyboard","1","2017-03-22 23:52:11","708"
"A2106ZBHRHGX64","cs_wg_v3_pilot1","326O153BMIZ0N9P16T6RJ8CINDWED8","0","COMMUNITY","2","5","1","3406","community","2","2017-03-22 23:52:13","709"
"APR6H3HAOE9OU","cs_wg_v3_pilot1","3NOKK93PR195FF312OHBPQU3NPXEE1","0","WEDDING","0","5","1","5820","wedding","0","2017-03-22 23:52:14","710"
"A3FCZNB9E8K3CX","cs_wg_v3_pilot1","3PJ71Z61R43P0II8IP6AQSAY7JD913","0","BASKET","0","5","1","4235","basket ","0","2017-03-22 23:52:21","711"
"DOORWAY = 2 points
A1O0DVNTMUGRLK","cs_wg_v3_pilot1","352YTHGROVEZ7NXA3JD417FP2GVH4E","0","MACHINE","10","5","0","1494","machine","10","2017-03-22 23:52:21","712"
"A2106ZBHRHGX64","cs_wg_v3_pilot1","326O153BMIZ0N9P16T6RJ8CINDWED8","0","COMMUNITY","2","5","1","3406","community","2","2017-03-22 23:52:25","713"
"APR6H3HAOE9OU","cs_wg_v3_pilot1","3NOKK93PR195FF312OHBPQU3NPXEE1","0","COMMUNITY","10","5","0","5820","community","10","2017-03-22 23:52:30","714"
"A3FCZNB9E8K3CX","cs_wg_v3_pilot1","3PJ71Z61R43P0II8IP6AQSAY7JD913","0","WEDDING","10","5","0","4235","wedding","10","2017-03-22 23:52:31","715"
"DOORWAY = 2 points
A1O0DVNTMUGRLK","cs_wg_v3_pilot1","352YTHGROVEZ7NXA3JD417FP2GVH4E","0","TRAFFIC","0","5","1","1494","traffic","0","2017-03-22 23:52:32","716"
"A2106ZBHRHGX64","cs_wg_v3_pilot1","326O153BMIZ0N9P16T6RJ8CINDWED8","0","LADDER","8","5","0","3406","ladder","8","2017-03-22 23:52:38","717"
"APR6H3HAOE9OU","cs_wg_v3_pilot1","3NOKK93PR195FF312OHBPQU3NPXEE1","0","LADDER","0","5","1","5820","ladder","0","2017-03-22 23:52:44","718"
"A3FCZNB9E8K3CX","cs_wg_v3_pilot1","3PJ71Z61R43P0II8IP6AQSAY7JD913","0","BOOKSHELF","8","5","0","4235","bookshelf","8","2017-03-22 23:52:47","719"
"DOORWAY = 2 points
A1O0DVNTMUGRLK","cs_wg_v3_pilot1","352YTHGROVEZ7NXA3JD417FP2GVH4E","0","STRUCTURE","9","5","1","1494","structure","9","2017-03-22 23:52:52","720"
"A2106ZBHRHGX64","cs_wg_v3_pilot1","326O153BMIZ0N9P16T6RJ8CINDWED8","0","BOOKSHELF","10","5","0","3406","bookshelf","10","2017-03-22 23:52:52","721"
"A3FCZNB9E8K3CX","cs_wg_v3_pilot1","3PJ71Z61R43P0II8IP6AQSAY7JD913","0","KEYBOARD","1","5","1","4235","keyboard ","1","2017-03-22 23:52:58","722"
"APR6H3HAOE9OU","cs_wg_v3_pilot1","3NOKK93PR195FF312OHBPQU3NPXEE1","0","BOOKSHELF","8","5","0","5820","bookshelf","8","2017-03-22 23:52:59","723"
"A2106ZBHRHGX64","cs_wg_v3_pilot1","326O153BMIZ0N9P16T6RJ8CINDWED8","0","BOOKSHELF","10","5","0","3406","bookshelf","10","2017-03-22 23:53:03","724"
"DOORWAY = 2 points
A1O0DVNTMUGRLK","cs_wg_v3_pilot1","352YTHGROVEZ7NXA3JD417FP2GVH4E","0","STOMACH","10","5","0","1494","stomach","10","2017-03-22 23:53:07","725"
"A3FCZNB9E8K3CX","cs_wg_v3_pilot1","3PJ71Z61R43P0II8IP6AQSAY7JD913","0","WEDDING","10","5","0","4235","wedding","10","2017-03-22 23:53:09","726"
"APR6H3HAOE9OU","cs_wg_v3_pilot1","3NOKK93PR195FF312OHBPQU3NPXEE1","0","COMMUNITY","10","5","0","5820","community","10","2017-03-22 23:53:14","727"
"A2106ZBHRHGX64","cs_wg_v3_pilot1","326O153BMIZ0N9P16T6RJ8CINDWED8","0","DOORWAY","0","5","0","3406","doorway","0","2017-03-22 23:53:14","728"
"A2106ZBHRHGX64","cs_wg_v3_pilot1","326O153BMIZ0N9P16T6RJ8CINDWED8","0","TRAFFIC","9","5","0","3406","traffic","9","2017-03-22 23:53:22","729"
"A3FCZNB9E8K3CX","cs_wg_v3_pilot1","3PJ71Z61R43P0II8IP6AQSAY7JD913","0","WEDDING","10","5","0","4235","wedding","10","2017-03-22 23:53:22","730"
"APR6H3HAOE9OU","cs_wg_v3_pilot1","3NOKK93PR195FF312OHBPQU3NPXEE1","0","STOMACH","0","5","1","5820","stomach","0","2017-03-22 23:53:24","731"
"DOORWAY = 2 points
A1O0DVNTMUGRLK","cs_wg_v3_pilot1","352YTHGROVEZ7NXA3JD417FP2GVH4E","0","WEDDING","8","5","0","1494","wedding","8
","2017-03-22 23:53:27","732"
"A3FCZNB9E8K3CX","cs_wg_v3_pilot1","3PJ71Z61R43P0II8IP6AQSAY7JD913","0","MACHINE","10","5","0","4235","machine","10","2017-03-22 23:53:32","733"
"A2106ZBHRHGX64","cs_wg_v3_pilot1","326O153BMIZ0N9P16T6RJ8CINDWED8","0","KEYBOARD","0","5","1","3406","keyboard","0","2017-03-22 23:53:33","734"
"DOORWAY = 2 points
A1O0DVNTMUGRLK","cs_wg_v3_pilot1","352YTHGROVEZ7NXA3JD417FP2GVH4E","0","UMBRELLA","2","5","1","1494","umbrella","2","2017-03-22 23:53:41","735"
"A3FCZNB9E8K3CX","cs_wg_v3_pilot1","3PJ71Z61R43P0II8IP6AQSAY7JD913","0","DOORWAY","0","5","1","4235","doorway","0","2017-03-22 23:53:41","736"
"A2106ZBHRHGX64","cs_wg_v3_pilot1","326O153BMIZ0N9P16T6RJ8CINDWED8","0","STOMACH","8","5","0","3406","stomach","8","2017-03-22 23:53:46","737"
"A3FCZNB9E8K3CX","cs_wg_v3_pilot1","3PJ71Z61R43P0II8IP6AQSAY7JD913","0","DOORWAY","0","5","0","4235","doorway","0","2017-03-22 23:53:51","738"
"A3FCZNB9E8K3CX","cs_wg_v3_pilot1","3PJ71Z61R43P0II8IP6AQSAY7JD913","0","UMBRELLA","1","5","0","4235","umbrella","1","2017-03-22 23:54:00","739"
"DOORWAY = 2 points
A1O0DVNTMUGRLK","cs_wg_v3_pilot1","352YTHGROVEZ7NXA3JD417FP2GVH4E","0","BOOKSHELF","2","5","1","1494","bookshelf","2","2017-03-22 23:54:00","740"
"A2106ZBHRHGX64","cs_wg_v3_pilot1","326O153BMIZ0N9P16T6RJ8CINDWED8","0","DOORWAY","0","5","0","3406","doorway","0","2017-03-22 23:54:00","741"
"DOORWAY = 2 points
A1O0DVNTMUGRLK","cs_wg_v3_pilot1","352YTHGROVEZ7NXA3JD417FP2GVH4E","0","COMMUNITY","10","5","0","1494","community","10","2017-03-22 23:54:10","742"
"A2106ZBHRHGX64","cs_wg_v3_pilot1","326O153BMIZ0N9P16T6RJ8CINDWED8","0","COMMUNITY","2","5","1","3406","community","2","2017-03-22 23:54:10","743"
"A3FCZNB9E8K3CX","cs_wg_v3_pilot1","3PJ71Z61R43P0II8IP6AQSAY7JD913","0","COMMUNITY","8","5","0","4235","community","8","2017-03-22 23:54:11","744"
"DOORWAY = 2 points
