"subject","version","assignmentId","trial","trial_type","word","value","alt","value2","choice","rt","resp","resp2","resp3","resp4","used_hint","stamp","id"
"AOZNGVLQA42SZ","cs_wg_mon_single_v1_pilot5","3ZSANO2JCF8YVC8FYULMWPJMGISFSI","0","0","JULY","5",,"0","5","8176",,,,,"1","2018-11-12 21:52:51","401796"
"AOZNGVLQA42SZ","cs_wg_mon_single_v1_pilot5","3ZSANO2JCF8YVC8FYULMWPJMGISFSI","1","0","JULY","5",,"0","5","3608",,,,,"0","2018-11-12 21:52:57","401797"
"AOZNGVLQA42SZ","cs_wg_mon_single_v1_pilot5","3ZSANO2JCF8YVC8FYULMWPJMGISFSI","2","0","JULY","5",,"0","5","3325",,,,,"0","2018-11-12 21:53:04","401798"
"ASHG4UDKXYBPK","cs_wg_mon_single_v1_pilot5","3CP1TO84PT2DOGYSY3T7JVF5TUF52M","0","0","AUGUST","3",,"0","3","8211",,,,,"1","2018-11-12 21:53:05","401799"
"ASHG4UDKXYBPK","cs_wg_mon_single_v1_pilot5","3CP1TO84PT2DOGYSY3T7JVF5TUF52M","1","0","APRIL","6",,"0","6","4562",,,,,"1","2018-11-12 21:53:12","401800"
"A2Y6O5USSIVT08","cs_wg_mon_single_v1_pilot5","3LEIZ60CDJ0MVE3GQ0F2IMUE0ZX9ZP","0","0","AUGUST","12",,"0","12","8100",,,,,"1","2018-11-12 21:53:15","401801"
"AOZNGVLQA42SZ","cs_wg_mon_single_v1_pilot5","3ZSANO2JCF8YVC8FYULMWPJMGISFSI","3","0","MAY","10",,"0","10","14307",,,,,"1","2018-11-12 21:53:20","401802"
"ASHG4UDKXYBPK","cs_wg_mon_single_v1_pilot5","3CP1TO84PT2DOGYSY3T7JVF5TUF52M","2","0","NOVEMBER","8",,"0","8","4861",,,,,"1","2018-11-12 21:53:21","401803"
"A2Y6O5USSIVT08","cs_wg_mon_single_v1_pilot5","3LEIZ60CDJ0MVE3GQ0F2IMUE0ZX9ZP","1","0","DECEMBER","10",,"0","10","6893",,,,,"1","2018-11-12 21:53:25","401804"
"AOZNGVLQA42SZ","cs_wg_mon_single_v1_pilot5","3ZSANO2JCF8YVC8FYULMWPJMGISFSI","4","0","JUNE","6",,"0","6","12029",,,,,"1","2018-11-12 21:53:35","401805"
"A2Y6O5USSIVT08","cs_wg_mon_single_v1_pilot5","3LEIZ60CDJ0MVE3GQ0F2IMUE0ZX9ZP","2","0","OCTOBER","1",,"0","1","9075",,,,,"1","2018-11-12 21:53:37","401806"
"ASHG4UDKXYBPK","cs_wg_mon_single_v1_pilot5","3CP1TO84PT2DOGYSY3T7JVF5TUF52M","3","0","MAY","1",,"0","1","10452",,,,,"1","2018-11-12 21:53:37","401807"
"ASHG4UDKXYBPK","cs_wg_mon_single_v1_pilot5","3CP1TO84PT2DOGYSY3T7JVF5TUF52M","4","0","JULY","7",,"0","7","7959",,,,,"1","2018-11-12 21:53:47","401808"
"A2Y6O5USSIVT08","cs_wg_mon_single_v1_pilot5","3LEIZ60CDJ0MVE3GQ0F2IMUE0ZX9ZP","3","0","NOVEMBER","11",,"0","11","7676",,,,,"1","2018-11-12 21:53:47","401809"
"AOZNGVLQA42SZ","cs_wg_mon_single_v1_pilot5","3ZSANO2JCF8YVC8FYULMWPJMGISFSI","5","0","OCTOBER","8",,"0","8","11957",,,,,"1","2018-11-12 21:53:49","401810"
"ASHG4UDKXYBPK","cs_wg_mon_single_v1_pilot5","3CP1TO84PT2DOGYSY3T7JVF5TUF52M","5","0","JANUARY","9",,"0","9","7266",,,,,"1","2018-11-12 21:53:59","401811"
"AOZNGVLQA42SZ","cs_wg_mon_single_v1_pilot5","3ZSANO2JCF8YVC8FYULMWPJMGISFSI","6","0","JANUARY","1",,"0","1","9486",,,,,"1","2018-11-12 21:54:01","401812"
"A2Y6O5USSIVT08","cs_wg_mon_single_v1_pilot5","3LEIZ60CDJ0MVE3GQ0F2IMUE0ZX9ZP","4","0","JULY","8",,"0","8","12822",,,,,"1","2018-11-12 21:54:03","401813"
"ASHG4UDKXYBPK","cs_wg_mon_single_v1_pilot5","3CP1TO84PT2DOGYSY3T7JVF5TUF52M","6","0","JUNE","2",,"0","2","5357",,,,,"1","2018-11-12 21:54:09","401814"
"AOZNGVLQA42SZ","cs_wg_mon_single_v1_pilot5","3ZSANO2JCF8YVC8FYULMWPJMGISFSI","7","0","AUGUST","11",,"0","11","9252",,,,,"1","2018-11-12 21:54:12","401815"
"A2Y6O5USSIVT08","cs_wg_mon_single_v1_pilot5","3LEIZ60CDJ0MVE3GQ0F2IMUE0ZX9ZP","5","0","NOVEMBER","11",,"0","11","5277",,,,,"1","2018-11-12 21:54:15","401816"
"ASHG4UDKXYBPK","cs_wg_mon_single_v1_pilot5","3CP1TO84PT2DOGYSY3T7JVF5TUF52M","7","0","FEBRUARY","10",,"0","10","7455",,,,,"1","2018-11-12 21:54:19","401817"
"AOZNGVLQA42SZ","cs_wg_mon_single_v1_pilot5","3ZSANO2JCF8YVC8FYULMWPJMGISFSI","8","0","JUNE","6",,"0","6","5984",,,,,"0","2018-11-12 21:54:20","401818"
"A2Y6O5USSIVT08","cs_wg_mon_single_v1_pilot5","3LEIZ60CDJ0MVE3GQ0F2IMUE0ZX9ZP","6","0","AUGUST","12",,"0","12","5381",,,,,"1","2018-11-12 21:54:23","401819"
"ASHG4UDKXYBPK","cs_wg_mon_single_v1_pilot5","3CP1TO84PT2DOGYSY3T7JVF5TUF52M","8","0","JANUARY","9",,"0","9","3051",,,,,"1","2018-11-12 21:54:24","401820"
"AOZNGVLQA42SZ","cs_wg_mon_single_v1_pilot5","3ZSANO2JCF8YVC8FYULMWPJMGISFSI","9","0","JANUARY","1",,"0","1","7929",,,,,"0","2018-11-12 21:54:30","401821"
"A2Y6O5USSIVT08","cs_wg_mon_single_v1_pilot5","3LEIZ60CDJ0MVE3GQ0F2IMUE0ZX9ZP","7","0","MAY","5",,"0","5","6886",,,,,"1","2018-11-12 21:54:32","401822"
"ASHG4UDKXYBPK","cs_wg_mon_single_v1_pilot5","3CP1TO84PT2DOGYSY3T7JVF5TUF52M","9","0","OCTOBER","12",,"0","12","10877",,,,,"1","2018-11-12 21:54:37","401823"
"AOZNGVLQA42SZ","cs_wg_mon_single_v1_pilot5","3ZSANO2JCF8YVC8FYULMWPJMGISFSI","10","0","JUNE","6",,"0","6","5457",,,,,"0","2018-11-12 21:54:38","401824"
"A1KXESMB9K7504","cs_wg_mon_single_v1_pilot5","32N49TQG3GJJRD8BH94ZTBS2I6AAV6","0","0","MARCH","2",,"0","2","5461",,,,,"1","2018-11-12 21:54:39","401825"
"A2Y6O5USSIVT08","cs_wg_mon_single_v1_pilot5","3LEIZ60CDJ0MVE3GQ0F2IMUE0ZX9ZP","8","0","JUNE","4",,"0","4","5525",,,,,"1","2018-11-12 21:54:40","401826"
"A1KXESMB9K7504","cs_wg_mon_single_v1_pilot5","32N49TQG3GJJRD8BH94ZTBS2I6AAV6","1","0","JANUARY","4",,"0","4","3126",,,,,"1","2018-11-12 21:54:45","401827"
"AOZNGVLQA42SZ","cs_wg_mon_single_v1_pilot5","3ZSANO2JCF8YVC8FYULMWPJMGISFSI","11","0","DECEMBER","2",,"0","2","8497",,,,,"1","2018-11-12 21:54:49","401828"
"ASHG4UDKXYBPK","cs_wg_mon_single_v1_pilot5","3CP1TO84PT2DOGYSY3T7JVF5TUF52M","10","0","DECEMBER","11",,"0","11","10083",,,,,"1","2018-11-12 21:54:49","401829"
"A1KXESMB9K7504","cs_wg_mon_single_v1_pilot5","32N49TQG3GJJRD8BH94ZTBS2I6AAV6","2","0","JANUARY","4",,"0","4","2518",,,,,"1","2018-11-12 21:54:49","401830"
"A2Y6O5USSIVT08","cs_wg_mon_single_v1_pilot5","3LEIZ60CDJ0MVE3GQ0F2IMUE0ZX9ZP","9","0","FEBRUARY","9",,"0","9","10854",,,,,"1","2018-11-12 21:54:53","401831"
"A1KXESMB9K7504","cs_wg_mon_single_v1_pilot5","32N49TQG3GJJRD8BH94ZTBS2I6AAV6","3","0","AUGUST","8",,"0","8","4028",,,,,"1","2018-11-12 21:54:56","401832"
"ASHG4UDKXYBPK","cs_wg_mon_single_v1_pilot5","3CP1TO84PT2DOGYSY3T7JVF5TUF52M","11","0","FEBRUARY","10",,"0","10","4939",,,,,"1","2018-11-12 21:54:57","401833"
"AOZNGVLQA42SZ","cs_wg_mon_single_v1_pilot5","3ZSANO2JCF8YVC8FYULMWPJMGISFSI","12","0","APRIL","3",,"0","3","9708",,,,,"1","2018-11-12 21:55:01","401834"
"ASHG4UDKXYBPK","cs_wg_mon_single_v1_pilot5","3CP1TO84PT2DOGYSY3T7JVF5TUF52M","12","0","NOVEMBER","8",,"0","8","3171",,,,,"0","2018-11-12 21:55:03","401835"
"A2Y6O5USSIVT08","cs_wg_mon_single_v1_pilot5","3LEIZ60CDJ0MVE3GQ0F2IMUE0ZX9ZP","10","0","AUGUST","12",,"0","12","9042",,,,,"1","2018-11-12 21:55:06","401836"
"A1KXESMB9K7504","cs_wg_mon_single_v1_pilot5","32N49TQG3GJJRD8BH94ZTBS2I6AAV6","4","0","NOVEMBER","3",,"0","3","7305",,,,,"1","2018-11-12 21:55:06","401837"
"ASHG4UDKXYBPK","cs_wg_mon_single_v1_pilot5","3CP1TO84PT2DOGYSY3T7JVF5TUF52M","13","0","APRIL","6",,"0","6","8286",,,,,"1","2018-11-12 21:55:13","401838"
"A1KXESMB9K7504","cs_wg_mon_single_v1_pilot5","32N49TQG3GJJRD8BH94ZTBS2I6AAV6","5","0","APRIL","5",,"0","5","7692",,,,,"1","2018-11-12 21:55:16","401839"
"AOZNGVLQA42SZ","cs_wg_mon_single_v1_pilot5","3ZSANO2JCF8YVC8FYULMWPJMGISFSI","13","0","MARCH","9",,"0","9","13568",,,,,"1","2018-11-12 21:55:16","401840"
"A2Y6O5USSIVT08","cs_wg_mon_single_v1_pilot5","3LEIZ60CDJ0MVE3GQ0F2IMUE0ZX9ZP","11","0","SEPTEMBER","7",,"0","7","11004",,,,,"1","2018-11-12 21:55:19","401841"
"A1KXESMB9K7504","cs_wg_mon_single_v1_pilot5","32N49TQG3GJJRD8BH94ZTBS2I6AAV6","6","0","SEPTEMBER","9",,"0","9","2943",,,,,"1","2018-11-12 21:55:21","401842"
"AOZNGVLQA42SZ","cs_wg_mon_single_v1_pilot5","3ZSANO2JCF8YVC8FYULMWPJMGISFSI","14","0","AUGUST","11",,"0","11","4308",,,,,"0","2018-11-12 21:55:24","401843"
"A2Y6O5USSIVT08","cs_wg_mon_single_v1_pilot5","3LEIZ60CDJ0MVE3GQ0F2IMUE0ZX9ZP","12","0","MARCH","2",,"0","2","3685",,,,,"1","2018-11-12 21:55:25","401844"
"A1KXESMB9K7504","cs_wg_mon_single_v1_pilot5","32N49TQG3GJJRD8BH94ZTBS2I6AAV6","7","0","FEBRUARY","10",,"0","10","2741",,,,,"1","2018-11-12 21:55:25","401845"
"ASHG4UDKXYBPK","cs_wg_mon_single_v1_pilot5","3CP1TO84PT2DOGYSY3T7JVF5TUF52M","14","0","SEPTEMBER","4",,"0","4","8043",,,,,"1","2018-11-12 21:55:29","401846"
"A1KXESMB9K7504","cs_wg_mon_single_v1_pilot5","32N49TQG3GJJRD8BH94ZTBS2I6AAV6","8","0","FEBRUARY","10",,"0","10","2488",,,,,"1","2018-11-12 21:55:30","401847"
"A2Y6O5USSIVT08","cs_wg_mon_single_v1_pilot5","3LEIZ60CDJ0MVE3GQ0F2IMUE0ZX9ZP","13","0","MARCH","2",,"0","2","3676",,,,,"1","2018-11-12 21:55:30","401848"
"AOZNGVLQA42SZ","cs_wg_mon_single_v1_pilot5","3ZSANO2JCF8YVC8FYULMWPJMGISFSI","15","0","APRIL","3",,"0","3","5383",,,,,"0","2018-11-12 21:55:31","401849"
"A1KXESMB9K7504","cs_wg_mon_single_v1_pilot5","32N49TQG3GJJRD8BH94ZTBS2I6AAV6","9","0","DECEMBER","1",,"0","1","2120",,,,,"1","2018-11-12 21:55:34","401850"
"ASHG4UDKXYBPK","cs_wg_mon_single_v1_pilot5","3CP1TO84PT2DOGYSY3T7JVF5TUF52M","15","0","OCTOBER","12",,"0","12","3682",,,,,"0","2018-11-12 21:55:35","401851"
"A2Y6O5USSIVT08","cs_wg_mon_single_v1_pilot5","3LEIZ60CDJ0MVE3GQ0F2IMUE0ZX9ZP","14","0","JULY","8",,"0","8","4615",,,,,"1","2018-11-12 21:55:37","401852"
"A1KXESMB9K7504","cs_wg_mon_single_v1_pilot5","32N49TQG3GJJRD8BH94ZTBS2I6AAV6","10","0","MAY","12",,"0","12","2158",,,,,"1","2018-11-12 21:55:38","401853"
"ASHG4UDKXYBPK","cs_wg_mon_single_v1_pilot5","3CP1TO84PT2DOGYSY3T7JVF5TUF52M","16","0","JULY","7",,"0","7","4346",,,,,"0","2018-11-12 21:55:41","401854"
"A2Y6O5USSIVT08","cs_wg_mon_single_v1_pilot5","3LEIZ60CDJ0MVE3GQ0F2IMUE0ZX9ZP","15","0","DECEMBER","10",,"0","10","4300",,,,,"1","2018-11-12 21:55:43","401855"
"AOZNGVLQA42SZ","cs_wg_mon_single_v1_pilot5","3ZSANO2JCF8YVC8FYULMWPJMGISFSI","16","0","SEPTEMBER","7",,"0","7","12150",,,,,"1","2018-11-12 21:55:46","401856"
"ASHG4UDKXYBPK","cs_wg_mon_single_v1_pilot5","3CP1TO84PT2DOGYSY3T7JVF5TUF52M","17","0","SEPTEMBER","4",,"0","4","3214",,,,,"0","2018-11-12 21:55:46","401857"
"A3MGDESST43KVZ","cs_wg_mon_single_v1_pilot5","3LEP4MGT3G12G6DHW241I0610HQDB4","0","0","JUNE","1",,"0","1","9783",,,,,"1","2018-11-12 21:55:47","401858"
"A1KXESMB9K7504","cs_wg_mon_single_v1_pilot5","32N49TQG3GJJRD8BH94ZTBS2I6AAV6","11","0","APRIL","5",,"0","5","7587",,,,,"1","2018-11-12 21:55:47","401859"
"A2Y6O5USSIVT08","cs_wg_mon_single_v1_pilot5","3LEIZ60CDJ0MVE3GQ0F2IMUE0ZX9ZP","16","0","MAY","5",,"0","5","5076",,,,,"1","2018-11-12 21:55:50","401860"
"ASHG4UDKXYBPK","cs_wg_mon_single_v1_pilot5","3CP1TO84PT2DOGYSY3T7JVF5TUF52M","18","0","NOVEMBER","8",,"0","8","4011",,,,,"0","2018-11-12 21:55:52","401861"
"AOZNGVLQA42SZ","cs_wg_mon_single_v1_pilot5","3ZSANO2JCF8YVC8FYULMWPJMGISFSI","17","0","OCTOBER","8",,"0","8","4557",,,,,"0","2018-11-12 21:55:53","401862"
"A1KXESMB9K7504","cs_wg_mon_single_v1_pilot5","32N49TQG3GJJRD8BH94ZTBS2I6AAV6","12","0","DECEMBER","1",,"0","1","3537",,,,,"1","2018-11-12 21:55:53","401863"
"A2Y6O5USSIVT08","cs_wg_mon_single_v1_pilot5","3LEIZ60CDJ0MVE3GQ0F2IMUE0ZX9ZP","17","0","MAY","5",,"0","5","3413",,,,,"1","2018-11-12 21:55:56","401864"
"A1RA8QOAPXYVCC","cs_wg_mon_single_v1_pilot5","35DR22AR5DLBBHEL89Q7UOBHS7P3X5","0","0","MAY","11",,"0","11","10393",,,,,"1","2018-11-12 21:55:58","401865"
"A1KXESMB9K7504","cs_wg_mon_single_v1_pilot5","32N49TQG3GJJRD8BH94ZTBS2I6AAV6","13","0","FEBRUARY","10",,"0","10","3072",,,,,"1","2018-11-12 21:55:58","401866"
"A3MGDESST43KVZ","cs_wg_mon_single_v1_pilot5","3LEP4MGT3G12G6DHW241I0610HQDB4","1","0","AUGUST","7",,"0","7","8305",,,,,"1","2018-11-12 21:55:58","401867"
"AOZNGVLQA42SZ","cs_wg_mon_single_v1_pilot5","3ZSANO2JCF8YVC8FYULMWPJMGISFSI","18","0","APRIL","3",,"0","3","4857",,,,,"0","2018-11-12 21:56:00","401868"
"A2Y6O5USSIVT08","cs_wg_mon_single_v1_pilot5","3LEIZ60CDJ0MVE3GQ0F2IMUE0ZX9ZP","18","0","DECEMBER","10",,"0","10","2949",,,,,"0","2018-11-12 21:56:01","401869"
"A1KXESMB9K7504","cs_wg_mon_single_v1_pilot5","32N49TQG3GJJRD8BH94ZTBS2I6AAV6","14","0","JUNE","6",,"0","6","2603",,,,,"1","2018-11-12 21:56:05","401870"
"ASHG4UDKXYBPK","cs_wg_mon_single_v1_pilot5","3CP1TO84PT2DOGYSY3T7JVF5TUF52M","19","0","MARCH","5",,"0","5","11764",,,,,"1","2018-11-12 21:56:06","401871"
"A2Y6O5USSIVT08","cs_wg_mon_single_v1_pilot5","3LEIZ60CDJ0MVE3GQ0F2IMUE0ZX9ZP","19","0","OCTOBER","1",,"0","1","5581",,,,,"1","2018-11-12 21:56:09","401872"
"A1KXESMB9K7504","cs_wg_mon_single_v1_pilot5","32N49TQG3GJJRD8BH94ZTBS2I6AAV6","15","0","JANUARY","4",,"0","4","2361",,,,,"1","2018-11-12 21:56:09","401873"
"A3MGDESST43KVZ","cs_wg_mon_single_v1_pilot5","3LEP4MGT3G12G6DHW241I0610HQDB4","2","0","JUNE","1",,"0","1","6781",,,,,"0","2018-11-12 21:56:11","401874"
"A1KXESMB9K7504","cs_wg_mon_single_v1_pilot5","32N49TQG3GJJRD8BH94ZTBS2I6AAV6","16","0","MARCH","2",,"0","2","1929",,,,,"1","2018-11-12 21:56:13","401875"
"A2Y6O5USSIVT08","cs_wg_mon_single_v1_pilot5","3LEIZ60CDJ0MVE3GQ0F2IMUE0ZX9ZP","20","0","JANUARY","3",,"0","3","4460",,,,,"1","2018-11-12 21:56:15","401876"
"ASHG4UDKXYBPK","cs_wg_mon_single_v1_pilot5","3CP1TO84PT2DOGYSY3T7JVF5TUF52M","20","0","APRIL","6",,"0","6","4972",,,,,"1","2018-11-12 21:56:15","401877"
"AOZNGVLQA42SZ","cs_wg_mon_single_v1_pilot5","3ZSANO2JCF8YVC8FYULMWPJMGISFSI","19","0","NOVEMBER","4",,"0","4","13062",,,,,"1","2018-11-12 21:56:15","401878"
"ASHG4UDKXYBPK","cs_wg_mon_single_v1_pilot5","3CP1TO84PT2DOGYSY3T7JVF5TUF52M","21","0","MARCH","5",,"0","5","2770",,,,,"0","2018-11-12 21:56:20","401879"
"A2Y6O5USSIVT08","cs_wg_mon_single_v1_pilot5","3LEIZ60CDJ0MVE3GQ0F2IMUE0ZX9ZP","21","0","DECEMBER","10",,"0","10","4350",,,,,"1","2018-11-12 21:56:21","401880"
"A1KXESMB9K7504","cs_wg_mon_single_v1_pilot5","32N49TQG3GJJRD8BH94ZTBS2I6AAV6","17","0","JULY","7",,"0","7","2938",,,,,"1","2018-11-12 21:56:21","401881"
"AOZNGVLQA42SZ","cs_wg_mon_single_v1_pilot5","3ZSANO2JCF8YVC8FYULMWPJMGISFSI","20","0","JANUARY","1",,"0","1","5124",,,,,"0","2018-11-12 21:56:22","401882"
"A3MGDESST43KVZ","cs_wg_mon_single_v1_pilot5","3LEP4MGT3G12G6DHW241I0610HQDB4","3","0","OCTOBER","4",,"0","4","7106",,,,,"1","2018-11-12 21:56:24","401883"
"A1KXESMB9K7504","cs_wg_mon_single_v1_pilot5","32N49TQG3GJJRD8BH94ZTBS2I6AAV6","18","0","JUNE","6",,"0","6","2622",,,,,"1","2018-11-12 21:56:26","401884"
"A2Y6O5USSIVT08","cs_wg_mon_single_v1_pilot5","3LEIZ60CDJ0MVE3GQ0F2IMUE0ZX9ZP","22","0","JUNE","4",,"0","4","5446",,,,,"1","2018-11-12 21:56:29","401885"
"A1KXESMB9K7504","cs_wg_mon_single_v1_pilot5","32N49TQG3GJJRD8BH94ZTBS2I6AAV6","19","0","APRIL","5",,"0","5","2192",,,,,"1","2018-11-12 21:56:30","401886"
"ASHG4UDKXYBPK","cs_wg_mon_single_v1_pilot5","3CP1TO84PT2DOGYSY3T7JVF5TUF52M","22","0","AUGUST","3",,"0","3","11588",,,,,"1","2018-11-12 21:56:33","401887"
"A2Y6O5USSIVT08","cs_wg_mon_single_v1_pilot5","3LEIZ60CDJ0MVE3GQ0F2IMUE0ZX9ZP","23","0","NOVEMBER","11",,"0","11","3446",,,,,"0","2018-11-12 21:56:34","401888"
"A1KXESMB9K7504","cs_wg_mon_single_v1_pilot5","32N49TQG3GJJRD8BH94ZTBS2I6AAV6","20","0","SEPTEMBER","9",,"0","9","2517",,,,,"1","2018-11-12 21:56:34","401889"
"AOZNGVLQA42SZ","cs_wg_mon_single_v1_pilot5","3ZSANO2JCF8YVC8FYULMWPJMGISFSI","21","0","FEBRUARY","12",,"0","12","10474",,,,,"1","2018-11-12 21:56:35","401890"
"A3MGDESST43KVZ","cs_wg_mon_single_v1_pilot5","3LEP4MGT3G12G6DHW241I0610HQDB4","4","0","SEPTEMBER","8",,"0","8","9771",,,,,"1","2018-11-12 21:56:37","401891"
"ASHG4UDKXYBPK","cs_wg_mon_single_v1_pilot5","3CP1TO84PT2DOGYSY3T7JVF5TUF52M","23","0","OCTOBER","12",,"0","12","4020",,,,,"0","2018-11-12 21:56:39","401892"
"AOZNGVLQA42SZ","cs_wg_mon_single_v1_pilot5","3ZSANO2JCF8YVC8FYULMWPJMGISFSI","22","0","FEBRUARY","12",,"0","12","3844",,,,,"0","2018-11-12 21:56:41","401893"
"A1KXESMB9K7504","cs_wg_mon_single_v1_pilot5","32N49TQG3GJJRD8BH94ZTBS2I6AAV6","21","0","APRIL","5",,"0","5","2164",,,,,"1","2018-11-12 21:56:41","401894"
"A2Y6O5USSIVT08","cs_wg_mon_single_v1_pilot5","3LEIZ60CDJ0MVE3GQ0F2IMUE0ZX9ZP","24","0","APRIL","6",,"0","6","5958",,,,,"1","2018-11-12 21:56:42","401895"
"A1KXESMB9K7504","cs_wg_mon_single_v1_pilot5","32N49TQG3GJJRD8BH94ZTBS2I6AAV6","22","0","JANUARY","4",,"0","4","1902",,,,,"1","2018-11-12 21:56:45","401896"
"ASHG4UDKXYBPK","cs_wg_mon_single_v1_pilot5","3CP1TO84PT2DOGYSY3T7JVF5TUF52M","24","0","SEPTEMBER","4",,"0","4","4260",,,,,"1","2018-11-12 21:56:45","401897"
"A3MGDESST43KVZ","cs_wg_mon_single_v1_pilot5","3LEP4MGT3G12G6DHW241I0610HQDB4","5","0","NOVEMBER","6",,"0","6","7060",,,,,"1","2018-11-12 21:56:47","401898"
"A2Y6O5USSIVT08","cs_wg_mon_single_v1_pilot5","3LEIZ60CDJ0MVE3GQ0F2IMUE0ZX9ZP","25","0","JANUARY","3",,"0","3","4934",,,,,"1","2018-11-12 21:56:49","401899"
"A1KXESMB9K7504","cs_wg_mon_single_v1_pilot5","32N49TQG3GJJRD8BH94ZTBS2I6AAV6","23","0","MAY","12",,"0","12","2575",,,,,"1","2018-11-12 21:56:49","401900"
"ASHG4UDKXYBPK","cs_wg_mon_single_v1_pilot5","3CP1TO84PT2DOGYSY3T7JVF5TUF52M","25","0","MARCH","5",,"0","5","2283",,,,,"0","2018-11-12 21:56:49","401901"
"AOZNGVLQA42SZ","cs_wg_mon_single_v1_pilot5","3ZSANO2JCF8YVC8FYULMWPJMGISFSI","23","0","NOVEMBER","4",,"0","4","7895",,,,,"0","2018-11-12 21:56:51","401902"
"A1RA8QOAPXYVCC","cs_wg_mon_single_v1_pilot5","35DR22AR5DLBBHEL89Q7UOBHS7P3X5","1","0","JULY","10",,"0","10","12411",,,,,"1","2018-11-12 21:56:52","401903"
"A3MGDESST43KVZ","cs_wg_mon_single_v1_pilot5","3LEP4MGT3G12G6DHW241I0610HQDB4","6","0","SEPTEMBER","8",,"0","8","5023",,,,,"0","2018-11-12 21:56:55","401904"
"A2Y6O5USSIVT08","cs_wg_mon_single_v1_pilot5","3LEIZ60CDJ0MVE3GQ0F2IMUE0ZX9ZP","26","0","FEBRUARY","9",,"0","9","4613",,,,,"1","2018-11-12 21:56:55","401905"
"ASHG4UDKXYBPK","cs_wg_mon_single_v1_pilot5","3CP1TO84PT2DOGYSY3T7JVF5TUF52M","26","0","FEBRUARY","10",,"0","10","4554",,,,,"0","2018-11-12 21:56:56","401906"
"AOZNGVLQA42SZ","cs_wg_mon_single_v1_pilot5","3ZSANO2JCF8YVC8FYULMWPJMGISFSI","24","0","SEPTEMBER","7",,"0","7","5144",,,,,"0","2018-11-12 21:56:58","401907"
"A2Y6O5USSIVT08","cs_wg_mon_single_v1_pilot5","3LEIZ60CDJ0MVE3GQ0F2IMUE0ZX9ZP","27","0","JUNE","4",,"0","4","4620",,,,,"1","2018-11-12 21:57:02","401908"
"A3MGDESST43KVZ","cs_wg_mon_single_v1_pilot5","3LEP4MGT3G12G6DHW241I0610HQDB4","7","0","JANUARY","3",,"0","3","8107",,,,,"1","2018-11-12 21:57:05","401909"
"A1KXESMB9K7504","cs_wg_mon_single_v1_pilot5","32N49TQG3GJJRD8BH94ZTBS2I6AAV6","24","0","SEPTEMBER","9",,"0","9","3304",,,,,"1","2018-11-12 21:57:06","401910"
"AOZNGVLQA42SZ","cs_wg_mon_single_v1_pilot5","3ZSANO2JCF8YVC8FYULMWPJMGISFSI","25","0","MARCH","9",,"0","9","7352",,,,,"0","2018-11-12 21:57:08","401911"
"A1RA8QOAPXYVCC","cs_wg_mon_single_v1_pilot5","35DR22AR5DLBBHEL89Q7UOBHS7P3X5","2","0","MARCH","7",,"0","7","11666",,,,,"1","2018-11-12 21:57:08","401912"
"ASHG4UDKXYBPK","cs_wg_mon_single_v1_pilot5","3CP1TO84PT2DOGYSY3T7JVF5TUF52M","27","0","AUGUST","3",,"0","3","6016",,,,,"1","2018-11-12 21:57:10","401913"
"A2Y6O5USSIVT08","cs_wg_mon_single_v1_pilot5","3LEIZ60CDJ0MVE3GQ0F2IMUE0ZX9ZP","28","0","SEPTEMBER","7",,"0","7","7389",,,,,"1","2018-11-12 21:57:11","401914"
"A1KXESMB9K7504","cs_wg_mon_single_v1_pilot5","32N49TQG3GJJRD8BH94ZTBS2I6AAV6","25","0","JULY","7",,"0","7","5761",,,,,"1","2018-11-12 21:57:14","401915"
"A3MGDESST43KVZ","cs_wg_mon_single_v1_pilot5","3LEP4MGT3G12G6DHW241I0610HQDB4","8","0","JANUARY","3",,"0","3","6205",,,,,"0","2018-11-12 21:57:14","401916"
"ASHG4UDKXYBPK","cs_wg_mon_single_v1_pilot5","3CP1TO84PT2DOGYSY3T7JVF5TUF52M","28","0","DECEMBER","11",,"0","11","3000",,,,,"0","2018-11-12 21:57:15","401917"
"A2Y6O5USSIVT08","cs_wg_mon_single_v1_pilot5","3LEIZ60CDJ0MVE3GQ0F2IMUE0ZX9ZP","29","0","NOVEMBER","11",,"0","11","3597",,,,,"1","2018-11-12 21:57:17","401918"
"A1KXESMB9K7504","cs_wg_mon_single_v1_pilot5","32N49TQG3GJJRD8BH94ZTBS2I6AAV6","26","0","NOVEMBER","3",,"0","3","1754",,,,,"1","2018-11-12 21:57:17","401919"
"AOZNGVLQA42SZ","cs_wg_mon_single_v1_pilot5","3ZSANO2JCF8YVC8FYULMWPJMGISFSI","26","0","MAY","10",,"0","10","7789",,,,,"1","2018-11-12 21:57:18","401920"
"A1RA8QOAPXYVCC","cs_wg_mon_single_v1_pilot5","35DR22AR5DLBBHEL89Q7UOBHS7P3X5","3","0","AUGUST","6",,"0","6","8117",,,,,"1","2018-11-12 21:57:18","401921"
"ASHG4UDKXYBPK","cs_wg_mon_single_v1_pilot5","3CP1TO84PT2DOGYSY3T7JVF5TUF52M","29","0","OCTOBER","12",,"0","12","2283",,,,,"0","2018-11-12 21:57:19","401922"
"A1KXESMB9K7504","cs_wg_mon_single_v1_pilot5","32N49TQG3GJJRD8BH94ZTBS2I6AAV6","27","0","MARCH","2",,"0","2","2008",,,,,"1","2018-11-12 21:57:21","401923"
"A2Y6O5USSIVT08","cs_wg_mon_single_v1_pilot5","3LEIZ60CDJ0MVE3GQ0F2IMUE0ZX9ZP","30","0","NOVEMBER","11",,"0","11","3990",,,,,"1","2018-11-12 21:57:23","401924"
"A3MGDESST43KVZ","cs_wg_mon_single_v1_pilot5","3LEP4MGT3G12G6DHW241I0610HQDB4","9","0","FEBRUARY","10",,"0","10","7589",,,,,"1","2018-11-12 21:57:24","401925"
"A1KXESMB9K7504","cs_wg_mon_single_v1_pilot5","32N49TQG3GJJRD8BH94ZTBS2I6AAV6","28","0","OCTOBER","11",,"0","11","2718",,,,,"1","2018-11-12 21:57:25","401926"
"ASHG4UDKXYBPK","cs_wg_mon_single_v1_pilot5","3CP1TO84PT2DOGYSY3T7JVF5TUF52M","30","0","JULY","7",,"0","7","4618",,,,,"0","2018-11-12 21:57:25","401927"
"A1KXESMB9K7504","cs_wg_mon_single_v1_pilot5","32N49TQG3GJJRD8BH94ZTBS2I6AAV6","29","0","JULY","7",,"0","7","2546",,,,,"1","2018-11-12 21:57:30","401928"
"AOZNGVLQA42SZ","cs_wg_mon_single_v1_pilot5","3ZSANO2JCF8YVC8FYULMWPJMGISFSI","27","0","OCTOBER","8",,"0","8","10618",,,,,"0","2018-11-12 21:57:30","401929"
"A1RA8QOAPXYVCC","cs_wg_mon_single_v1_pilot5","35DR22AR5DLBBHEL89Q7UOBHS7P3X5","4","0","FEBRUARY","12",,"0","12","5909",,,,,"1","2018-11-12 21:57:31","401930"
"A2Y6O5USSIVT08","cs_wg_mon_single_v1_pilot5","3LEIZ60CDJ0MVE3GQ0F2IMUE0ZX9ZP","31","0","JANUARY","3",,"0","3","5860",,,,,"1","2018-11-12 21:57:31","401931"
"ASHG4UDKXYBPK","cs_wg_mon_single_v1_pilot5","3CP1TO84PT2DOGYSY3T7JVF5TUF52M","31","0","JANUARY","9",,"0","9","5507",,,,,"0","2018-11-12 21:57:33","401932"
"A1KXESMB9K7504","cs_wg_mon_single_v1_pilot5","32N49TQG3GJJRD8BH94ZTBS2I6AAV6","30","0","DECEMBER","1",,"0","1","1736",,,,,"1","2018-11-12 21:57:33","401933"
"A3MGDESST43KVZ","cs_wg_mon_single_v1_pilot5","3LEP4MGT3G12G6DHW241I0610HQDB4","10","0","MARCH","11",,"0","11","7388",,,,,"1","2018-11-12 21:57:34","401934"
"A1KXESMB9K7504","cs_wg_mon_single_v1_pilot5","32N49TQG3GJJRD8BH94ZTBS2I6AAV6","31","0","OCTOBER","11",,"0","11","1708",,,,,"1","2018-11-12 21:57:37","401935"
"ASHG4UDKXYBPK","cs_wg_mon_single_v1_pilot5","3CP1TO84PT2DOGYSY3T7JVF5TUF52M","32","0","OCTOBER","12",,"0","12","2754",,,,,"0","2018-11-12 21:57:37","401936"
"AOZNGVLQA42SZ","cs_wg_mon_single_v1_pilot5","3ZSANO2JCF8YVC8FYULMWPJMGISFSI","28","0","JULY","5",,"0","5","4499",,,,,"0","2018-11-12 21:57:39","401937"
"A2Y6O5USSIVT08","cs_wg_mon_single_v1_pilot5","3LEIZ60CDJ0MVE3GQ0F2IMUE0ZX9ZP","32","0","MAY","5",,"0","5","6221",,,,,"1","2018-11-12 21:57:39","401938"
"A1KXESMB9K7504","cs_wg_mon_single_v1_pilot5","32N49TQG3GJJRD8BH94ZTBS2I6AAV6","32","0","FEBRUARY","10",,"0","10","3965",,,,,"1","2018-11-12 21:57:42","401939"
"ASHG4UDKXYBPK","cs_wg_mon_single_v1_pilot5","3CP1TO84PT2DOGYSY3T7JVF5TUF52M","33","0","MARCH","5",,"0","5","3730",,,,,"0","2018-11-12 21:57:44","401940"
"A2Y6O5USSIVT08","cs_wg_mon_single_v1_pilot5","3LEIZ60CDJ0MVE3GQ0F2IMUE0ZX9ZP","33","0","OCTOBER","1",,"0","1","4132",,,,,"1","2018-11-12 21:57:46","401941"
"A1KXESMB9K7504","cs_wg_mon_single_v1_pilot5","32N49TQG3GJJRD8BH94ZTBS2I6AAV6","33","0","JUNE","6",,"0","6","2460",,,,,"1","2018-11-12 21:57:46","401942"
"A1RA8QOAPXYVCC","cs_wg_mon_single_v1_pilot5","35DR22AR5DLBBHEL89Q7UOBHS7P3X5","5","0","AUGUST","6",,"0","6","9562",,,,,"1","2018-11-12 21:57:47","401943"
"A3MGDESST43KVZ","cs_wg_mon_single_v1_pilot5","3LEP4MGT3G12G6DHW241I0610HQDB4","11","0","MAY","2",,"0","2","11718",,,,,"1","2018-11-12 21:57:48","401944"
"ASHG4UDKXYBPK","cs_wg_mon_single_v1_pilot5","3CP1TO84PT2DOGYSY3T7JVF5TUF52M","34","0","AUGUST","3",,"0","3","3787",,,,,"0","2018-11-12 21:57:49","401945"
"AOZNGVLQA42SZ","cs_wg_mon_single_v1_pilot5","3ZSANO2JCF8YVC8FYULMWPJMGISFSI","29","0","MAY","10",,"0","10","7270",,,,,"0","2018-11-12 21:57:50","401946"
"A1KXESMB9K7504","cs_wg_mon_single_v1_pilot5","32N49TQG3GJJRD8BH94ZTBS2I6AAV6","34","0","FEBRUARY","10",,"0","10","2586",,,,,"1","2018-11-12 21:57:51","401947"
"ASHG4UDKXYBPK","cs_wg_mon_single_v1_pilot5","3CP1TO84PT2DOGYSY3T7JVF5TUF52M","35","0","JULY","7",,"0","7","1683",,,,,"0","2018-11-12 21:57:53","401948"
"A2Y6O5USSIVT08","cs_wg_mon_single_v1_pilot5","3LEIZ60CDJ0MVE3GQ0F2IMUE0ZX9ZP","34","0","JANUARY","3",,"0","3","4581",,,,,"1","2018-11-12 21:57:53","401949"
"A1RA8QOAPXYVCC","cs_wg_mon_single_v1_pilot5","35DR22AR5DLBBHEL89Q7UOBHS7P3X5","6","0","JUNE","4",,"0","4","5550",,,,,"1","2018-11-12 21:57:55","401950"
"A1KXESMB9K7504","cs_wg_mon_single_v1_pilot5","32N49TQG3GJJRD8BH94ZTBS2I6AAV6","35","0","JUNE","6",,"0","6","2542",,,,,"1","2018-11-12 21:57:55","401951"
"A3MGDESST43KVZ","cs_wg_mon_single_v1_pilot5","3LEP4MGT3G12G6DHW241I0610HQDB4","12","0","MARCH","11",,"0","11","6083",,,,,"0","2018-11-12 21:57:57","401952"
"ASHG4UDKXYBPK","cs_wg_mon_single_v1_pilot5","3CP1TO84PT2DOGYSY3T7JVF5TUF52M","36","0","JANUARY","9",,"0","9","8012",,,,,"0","2018-11-12 21:58:03","401953"
"A1KXESMB9K7504","cs_wg_mon_single_v1_pilot5","32N49TQG3GJJRD8BH94ZTBS2I6AAV6","36","0","JULY","7",,"0","7","2467",,,,,"0","2018-11-12 21:58:04","401954"
"A2Y6O5USSIVT08","cs_wg_mon_single_v1_pilot5","3LEIZ60CDJ0MVE3GQ0F2IMUE0ZX9ZP","35","0","JULY","8",,"0","8","9691",,,,,"1","2018-11-12 21:58:05","401955"
"A3MGDESST43KVZ","cs_wg_mon_single_v1_pilot5","3LEP4MGT3G12G6DHW241I0610HQDB4","13","0","DECEMBER","5",,"0","5","7883",,,,,"1","2018-11-12 21:58:07","401956"
"A1KXESMB9K7504","cs_wg_mon_single_v1_pilot5","32N49TQG3GJJRD8BH94ZTBS2I6AAV6","37","0","JANUARY","4",,"0","4","1979",,,,,"1","2018-11-12 21:58:08","401957"
"A1RA8QOAPXYVCC","cs_wg_mon_single_v1_pilot5","35DR22AR5DLBBHEL89Q7UOBHS7P3X5","7","0","MARCH","7",,"0","7","10581",,,,,"1","2018-11-12 21:58:09","401958"
"ASHG4UDKXYBPK","cs_wg_mon_single_v1_pilot5","3CP1TO84PT2DOGYSY3T7JVF5TUF52M","37","0","MARCH","5",,"0","5","4771",,,,,"0","2018-11-12 21:58:09","401959"
"A2Y6O5USSIVT08","cs_wg_mon_single_v1_pilot5","3LEIZ60CDJ0MVE3GQ0F2IMUE0ZX9ZP","36","0","MARCH","2",,"0","2","4436",,,,,"1","2018-11-12 21:58:11","401960"
"A1KXESMB9K7504","cs_wg_mon_single_v1_pilot5","32N49TQG3GJJRD8BH94ZTBS2I6AAV6","38","0","MARCH","2",,"0","2","1586",,,,,"1","2018-11-12 21:58:11","401961"
"A1KXESMB9K7504","cs_wg_mon_single_v1_pilot5","32N49TQG3GJJRD8BH94ZTBS2I6AAV6","39","0","NOVEMBER","3",,"0","3","2262",,,,,"1","2018-11-12 21:58:15","401962"
"A3MGDESST43KVZ","cs_wg_mon_single_v1_pilot5","3LEP4MGT3G12G6DHW241I0610HQDB4","14","0","FEBRUARY","10",,"0","10","6071",,,,,"0","2018-11-12 21:58:16","401963"
"A1RA8QOAPXYVCC","cs_wg_mon_single_v1_pilot5","35DR22AR5DLBBHEL89Q7UOBHS7P3X5","8","0","JUNE","4",,"0","4","7392",,,,,"1","2018-11-12 21:58:20","401964"
"ASHG4UDKXYBPK","cs_wg_mon_single_v1_pilot5","3CP1TO84PT2DOGYSY3T7JVF5TUF52M","38","0","NOVEMBER","8",,"0","8","8235",,,,,"0","2018-11-12 21:58:20","401965"
"A2Y6O5USSIVT08","cs_wg_mon_single_v1_pilot5","3LEIZ60CDJ0MVE3GQ0F2IMUE0ZX9ZP","37","0","AUGUST","12",,"0","12","8470",,,,,"1","2018-11-12 21:58:21","401966"
"ASHG4UDKXYBPK","cs_wg_mon_single_v1_pilot5","3CP1TO84PT2DOGYSY3T7JVF5TUF52M","39","0","MAY","1",,"0","1","2374",,,,,"0","2018-11-12 21:58:24","401967"
"A3MGDESST43KVZ","cs_wg_mon_single_v1_pilot5","3LEP4MGT3G12G6DHW241I0610HQDB4","15","0","AUGUST","7",,"0","7","5935",,,,,"1","2018-11-12 21:58:24","401968"
"A1KXESMB9K7504","cs_wg_mon_single_v1_pilot5","32N49TQG3GJJRD8BH94ZTBS2I6AAV6","40","0","MAY","12",,"0","3","4749",,,,,"0","2018-11-12 21:58:26","401969"
"A2Y6O5USSIVT08","cs_wg_mon_single_v1_pilot5","3LEIZ60CDJ0MVE3GQ0F2IMUE0ZX9ZP","38","0","MARCH","2",,"0","2","3627",,,,,"1","2018-11-12 21:58:27","401970"
"ASHG4UDKXYBPK","cs_wg_mon_single_v1_pilot5","3CP1TO84PT2DOGYSY3T7JVF5TUF52M","40","0","MARCH","5",,"0","5","1731",,,,,"0","2018-11-12 21:58:28","401971"
"A1KXESMB9K7504","cs_wg_mon_single_v1_pilot5","32N49TQG3GJJRD8BH94ZTBS2I6AAV6","41","0","SEPTEMBER","9",,"0","4","2987",,,,,"0","2018-11-12 21:58:30","401972"
"ASHG4UDKXYBPK","cs_wg_mon_single_v1_pilot5","3CP1TO84PT2DOGYSY3T7JVF5TUF52M","41","0","JULY","7",,"0","7","1380",,,,,"0","2018-11-12 21:58:31","401973"
"A1RA8QOAPXYVCC","cs_wg_mon_single_v1_pilot5","35DR22AR5DLBBHEL89Q7UOBHS7P3X5","9","0","JUNE","4",,"0","4","8228",,,,,"0","2018-11-12 21:58:31","401974"
"A2Y6O5USSIVT08","cs_wg_mon_single_v1_pilot5","3LEIZ60CDJ0MVE3GQ0F2IMUE0ZX9ZP","39","0","NOVEMBER","11",,"0","11","3141",,,,,"0","2018-11-12 21:58:32","401975"
"A1KXESMB9K7504","cs_wg_mon_single_v1_pilot5","32N49TQG3GJJRD8BH94ZTBS2I6AAV6","42","0","NOVEMBER","3",,"0","3","3067",,,,,"0","2018-11-12 21:58:36","401976"
"ASHG4UDKXYBPK","cs_wg_mon_single_v1_pilot5","3CP1TO84PT2DOGYSY3T7JVF5TUF52M","42","0","FEBRUARY","10",,"0","10","4019",,,,,"0","2018-11-12 21:58:36","401977"
"A2Y6O5USSIVT08","cs_wg_mon_single_v1_pilot5","3LEIZ60CDJ0MVE3GQ0F2IMUE0ZX9ZP","40","0","DECEMBER","10",,"0","10","3308",,,,,"0","2018-11-12 21:58:37","401978"
"A3MGDESST43KVZ","cs_wg_mon_single_v1_pilot5","3LEP4MGT3G12G6DHW241I0610HQDB4","16","0","APRIL","9",,"0","9","10051",,,,,"1","2018-11-12 21:58:37","401979"
"A1KXESMB9K7504","cs_wg_mon_single_v1_pilot5","32N49TQG3GJJRD8BH94ZTBS2I6AAV6","43","0","AUGUST","8",,"0","4","1594",,,,,"0","2018-11-12 21:58:39","401980"
"A1RA8QOAPXYVCC","cs_wg_mon_single_v1_pilot5","35DR22AR5DLBBHEL89Q7UOBHS7P3X5","10","0","MAY","11",,"0","11","8524",,,,,"1","2018-11-12 21:58:42","401981"
"ASHG4UDKXYBPK","cs_wg_mon_single_v1_pilot5","3CP1TO84PT2DOGYSY3T7JVF5TUF52M","43","0","OCTOBER","12",,"0","12","3480",,,,,"0","2018-11-12 21:58:42","401982"
"A2Y6O5USSIVT08","cs_wg_mon_single_v1_pilot5","3LEIZ60CDJ0MVE3GQ0F2IMUE0ZX9ZP","41","0","AUGUST","12",,"0","12","3957",,,,,"0","2018-11-12 21:58:43","401983"
"A1KXESMB9K7504","cs_wg_mon_single_v1_pilot5","32N49TQG3GJJRD8BH94ZTBS2I6AAV6","44","0","JANUARY","4",,"0","1","3457",,,,,"0","2018-11-12 21:58:44","401984"
"A2Y6O5USSIVT08","cs_wg_mon_single_v1_pilot5","3LEIZ60CDJ0MVE3GQ0F2IMUE0ZX9ZP","42","0","AUGUST","12",,"0","12","2293",,,,,"0","2018-11-12 21:58:47","401985"
"ASHG4UDKXYBPK","cs_wg_mon_single_v1_pilot5","3CP1TO84PT2DOGYSY3T7JVF5TUF52M","44","0","SEPTEMBER","4",,"0","4","3531",,,,,"0","2018-11-12 21:58:47","401986"
"A3MGDESST43KVZ","cs_wg_mon_single_v1_pilot5","3LEP4MGT3G12G6DHW241I0610HQDB4","17","0","MARCH","11",,"0","11","7632",,,,,"0","2018-11-12 21:58:47","401987"
"A1KXESMB9K7504","cs_wg_mon_single_v1_pilot5","32N49TQG3GJJRD8BH94ZTBS2I6AAV6","45","0","OCTOBER","11",,"0","11","1916",,,,,"0","2018-11-12 21:58:48","401988"
"A1RA8QOAPXYVCC","cs_wg_mon_single_v1_pilot5","35DR22AR5DLBBHEL89Q7UOBHS7P3X5","11","0","OCTOBER","1",,"0","1","5510",,,,,"1","2018-11-12 21:58:50","401989"
"ASHG4UDKXYBPK","cs_wg_mon_single_v1_pilot5","3CP1TO84PT2DOGYSY3T7JVF5TUF52M","45","0","MAY","1",,"0","1","1788",,,,,"0","2018-11-12 21:58:50","401990"
"A2Y6O5USSIVT08","cs_wg_mon_single_v1_pilot5","3LEIZ60CDJ0MVE3GQ0F2IMUE0ZX9ZP","43","0","APRIL","6",,"0","6","4293",,,,,"0","2018-11-12 21:58:53","401991"
"A1KXESMB9K7504","cs_wg_mon_single_v1_pilot5","32N49TQG3GJJRD8BH94ZTBS2I6AAV6","46","0","JUNE","6",,"0","6","2027",,,,,"0","2018-11-12 21:58:54","401992"
"ASHG4UDKXYBPK","cs_wg_mon_single_v1_pilot5","3CP1TO84PT2DOGYSY3T7JVF5TUF52M","46","0","DECEMBER","11",,"0","11","2577",,,,,"0","2018-11-12 21:58:55","401993"
"A3MGDESST43KVZ","cs_wg_mon_single_v1_pilot5","3LEP4MGT3G12G6DHW241I0610HQDB4","18","0","SEPTEMBER","8",,"0","8","6216",,,,,"1","2018-11-12 21:58:55","401994"
"A1KXESMB9K7504","cs_wg_mon_single_v1_pilot5","32N49TQG3GJJRD8BH94ZTBS2I6AAV6","47","0","JUNE","6",,"0","6","1702",,,,,"0","2018-11-12 21:58:57","401995"
"A2Y6O5USSIVT08","cs_wg_mon_single_v1_pilot5","3LEIZ60CDJ0MVE3GQ0F2IMUE0ZX9ZP","44","0","NOVEMBER","11",,"0","11","2829",,,,,"0","2018-11-12 21:58:58","401996"
"ASHG4UDKXYBPK","cs_wg_mon_single_v1_pilot5","3CP1TO84PT2DOGYSY3T7JVF5TUF52M","47","0","MARCH","5",,"0","5","3477",,,,,"0","2018-11-12 21:59:00","401997"
"A1KXESMB9K7504","cs_wg_mon_single_v1_pilot5","32N49TQG3GJJRD8BH94ZTBS2I6AAV6","48","0","AUGUST","8",,"0","8","2047",,,,,"0","2018-11-12 21:59:01","401998"
"A2Y6O5USSIVT08","cs_wg_mon_single_v1_pilot5","3LEIZ60CDJ0MVE3GQ0F2IMUE0ZX9ZP","45","0","SEPTEMBER","7",,"0","7","2629",,,,,"0","2018-11-12 21:59:02","401999"
"A3MGDESST43KVZ","cs_wg_mon_single_v1_pilot5","3LEP4MGT3G12G6DHW241I0610HQDB4","19","0","JANUARY","3",,"0","3","4620",,,,,"1","2018-11-12 21:59:02","402000"
"A1RA8QOAPXYVCC","cs_wg_mon_single_v1_pilot5","35DR22AR5DLBBHEL89Q7UOBHS7P3X5","12","0","MARCH","7",,"0","7","9995",,,,,"1","2018-11-12 21:59:03","402001"
"ASHG4UDKXYBPK","cs_wg_mon_single_v1_pilot5","3CP1TO84PT2DOGYSY3T7JVF5TUF52M","48","0","DECEMBER","11",,"0","11","2644",,,,,"0","2018-11-12 21:59:05","402002"
"A1KXESMB9K7504","cs_wg_mon_single_v1_pilot5","32N49TQG3GJJRD8BH94ZTBS2I6AAV6","49","0","NOVEMBER","3",,"0","3","2058",,,,,"0","2018-11-12 21:59:05","402003"
"A2Y6O5USSIVT08","cs_wg_mon_single_v1_pilot5","3LEIZ60CDJ0MVE3GQ0F2IMUE0ZX9ZP","46","0","JANUARY","3",,"0","3","2813",,,,,"0","2018-11-12 21:59:07","402004"
"A1KXESMB9K7504","cs_wg_mon_single_v1_pilot5","32N49TQG3GJJRD8BH94ZTBS2I6AAV6","50","0","JUNE","6",,"0","6","1492",,,,,"0","2018-11-12 21:59:08","402005"
"ASHG4UDKXYBPK","cs_wg_mon_single_v1_pilot5","3CP1TO84PT2DOGYSY3T7JVF5TUF52M","49","0","APRIL","6",,"0","6","2429",,,,,"0","2018-11-12 21:59:09","402006"
"A3MGDESST43KVZ","cs_wg_mon_single_v1_pilot5","3LEP4MGT3G12G6DHW241I0610HQDB4","20","0","AUGUST","7",,"0","7","5744",,,,,"1","2018-11-12 21:59:10","402007"
"A1RA8QOAPXYVCC","cs_wg_mon_single_v1_pilot5","35DR22AR5DLBBHEL89Q7UOBHS7P3X5","13","0","AUGUST","6",,"0","6","5378",,,,,"1","2018-11-12 21:59:10","402008"
"A2Y6O5USSIVT08","cs_wg_mon_single_v1_pilot5","3LEIZ60CDJ0MVE3GQ0F2IMUE0ZX9ZP","47","0","JANUARY","3",,"0","3","2013",,,,,"0","2018-11-12 21:59:11","402009"
"A1KXESMB9K7504","cs_wg_mon_single_v1_pilot5","32N49TQG3GJJRD8BH94ZTBS2I6AAV6","51","0","MAY","12",,"0","6","3299",,,,,"0","2018-11-12 21:59:13","402010"
"A3DJT8WESP5RC7","cs_wg_mon_single_v1_pilot5","3YOH7BII098P3QHXT0HONPVYNI3KVU","0","0","MARCH","1",,"0","1","3638",,,,,"1","2018-11-12 21:59:13","402011"
"ASHG4UDKXYBPK","cs_wg_mon_single_v1_pilot5","3CP1TO84PT2DOGYSY3T7JVF5TUF52M","50","0","NOVEMBER","8",,"0","8","3074",,,,,"0","2018-11-12 21:59:13","402012"
"ASHG4UDKXYBPK","cs_wg_mon_single_v1_pilot5","3CP1TO84PT2DOGYSY3T7JVF5TUF52M","51","0","DECEMBER","11",,"0","11","1538",,,,,"0","2018-11-12 21:59:17","402013"
"A3MGDESST43KVZ","cs_wg_mon_single_v1_pilot5","3LEP4MGT3G12G6DHW241I0610HQDB4","21","0","FEBRUARY","10",,"0","10","4787",,,,,"1","2018-11-12 21:59:18","402014"
"A1KXESMB9K7504","cs_wg_mon_single_v1_pilot5","32N49TQG3GJJRD8BH94ZTBS2I6AAV6","52","0","SEPTEMBER","9",,"0","2","3350",,,,,"0","2018-11-12 21:59:18","402015"
"A3DJT8WESP5RC7","cs_wg_mon_single_v1_pilot5","3YOH7BII098P3QHXT0HONPVYNI3KVU","1","0","FEBRUARY","3",,"0","3","5099",,,,,"1","2018-11-12 21:59:21","402016"
"A1KXESMB9K7504","cs_wg_mon_single_v1_pilot5","32N49TQG3GJJRD8BH94ZTBS2I6AAV6","53","0","JUNE","6",,"0","6","1535",,,,,"0","2018-11-12 21:59:21","402017"
"A2Y6O5USSIVT08","cs_wg_mon_single_v1_pilot5","3LEIZ60CDJ0MVE3GQ0F2IMUE0ZX9ZP","48","0","JULY","8",,"0","5","9094",,,,,"0","2018-11-12 21:59:21","402018"
"ASHG4UDKXYBPK","cs_wg_mon_single_v1_pilot5","3CP1TO84PT2DOGYSY3T7JVF5TUF52M","52","0","APRIL","6",,"0","6","4173",,,,,"0","2018-11-12 21:59:23","402019"
"A3MGDESST43KVZ","cs_wg_mon_single_v1_pilot5","3LEP4MGT3G12G6DHW241I0610HQDB4","22","0","FEBRUARY","10",,"0","10","3776",,,,,"0","2018-11-12 21:59:24","402020"
"A1KXESMB9K7504","cs_wg_mon_single_v1_pilot5","32N49TQG3GJJRD8BH94ZTBS2I6AAV6","54","0","JULY","7",,"0","7","1570",,,,,"0","2018-11-12 21:59:24","402021"
"A1RA8QOAPXYVCC","cs_wg_mon_single_v1_pilot5","35DR22AR5DLBBHEL89Q7UOBHS7P3X5","14","0","APRIL","8",,"0","8","6231",,,,,"1","2018-11-12 21:59:25","402022"
"A2Y6O5USSIVT08","cs_wg_mon_single_v1_pilot5","3LEIZ60CDJ0MVE3GQ0F2IMUE0ZX9ZP","49","0","JANUARY","3",,"0","3","2541",,,,,"0","2018-11-12 21:59:26","402023"
"A3DJT8WESP5RC7","cs_wg_mon_single_v1_pilot5","3YOH7BII098P3QHXT0HONPVYNI3KVU","2","0","SEPTEMBER","10",,"0","10","4719",,,,,"1","2018-11-12 21:59:28","402024"
"ASHG4UDKXYBPK","cs_wg_mon_single_v1_pilot5","3CP1TO84PT2DOGYSY3T7JVF5TUF52M","53","0","JUNE","2",,"0","2","3483",,,,,"0","2018-11-12 21:59:28","402025"
"AOZNGVLQA42SZ","cs_wg_mon_single_v1_pilot5","3ZSANO2JCF8YVC8FYULMWPJMGISFSI","30","0","SEPTEMBER","7",,"0","7","95683",,,,,"0","2018-11-12 21:59:28","402026"
"A2Y6O5USSIVT08","cs_wg_mon_single_v1_pilot5","3LEIZ60CDJ0MVE3GQ0F2IMUE0ZX9ZP","50","0","SEPTEMBER","7",,"0","7","2795",,,,,"0","2018-11-12 21:59:30","402027"
"A1KXESMB9K7504","cs_wg_mon_single_v1_pilot5","32N49TQG3GJJRD8BH94ZTBS2I6AAV6","55","0","NOVEMBER","3",,"0","2","5419",,,,,"0","2018-11-12 21:59:31","402028"
"A3DJT8WESP5RC7","cs_wg_mon_single_v1_pilot5","3YOH7BII098P3QHXT0HONPVYNI3KVU","3","0","JUNE","6",,"0","6","2890",,,,,"1","2018-11-12 21:59:32","402029"
"A1RA8QOAPXYVCC","cs_wg_mon_single_v1_pilot5","35DR22AR5DLBBHEL89Q7UOBHS7P3X5","15","0","JANUARY","3",,"0","3","4800",,,,,"1","2018-11-12 21:59:33","402030"
"ASHG4UDKXYBPK","cs_wg_mon_single_v1_pilot5","3CP1TO84PT2DOGYSY3T7JVF5TUF52M","54","0","AUGUST","3",,"0","3","2972",,,,,"0","2018-11-12 21:59:33","402031"
"A3MGDESST43KVZ","cs_wg_mon_single_v1_pilot5","3LEP4MGT3G12G6DHW241I0610HQDB4","23","0","APRIL","9",,"0","9","7791",,,,,"1","2018-11-12 21:59:34","402032"
"A1KXESMB9K7504","cs_wg_mon_single_v1_pilot5","32N49TQG3GJJRD8BH94ZTBS2I6AAV6","56","0","OCTOBER","11",,"0","11","1453",,,,,"0","2018-11-12 21:59:34","402033"
"A2Y6O5USSIVT08","cs_wg_mon_single_v1_pilot5","3LEIZ60CDJ0MVE3GQ0F2IMUE0ZX9ZP","51","0","FEBRUARY","9",,"0","9","2517",,,,,"0","2018-11-12 21:59:35","402034"
"AOZNGVLQA42SZ","cs_wg_mon_single_v1_pilot5","3ZSANO2JCF8YVC8FYULMWPJMGISFSI","31","0","MARCH","9",,"0","9","5601",,,,,"0","2018-11-12 21:59:36","402035"
"ASHG4UDKXYBPK","cs_wg_mon_single_v1_pilot5","3CP1TO84PT2DOGYSY3T7JVF5TUF52M","55","0","APRIL","6",,"0","6","2699",,,,,"0","2018-11-12 21:59:37","402036"
"A3DJT8WESP5RC7","cs_wg_mon_single_v1_pilot5","3YOH7BII098P3QHXT0HONPVYNI3KVU","4","0","NOVEMBER","7",,"0","7","3388",,,,,"1","2018-11-12 21:59:38","402037"
"A3MGDESST43KVZ","cs_wg_mon_single_v1_pilot5","3LEP4MGT3G12G6DHW241I0610HQDB4","24","0","APRIL","9",,"0","9","3035",,,,,"0","2018-11-12 21:59:39","402038"
"A1KXESMB9K7504","cs_wg_mon_single_v1_pilot5","32N49TQG3GJJRD8BH94ZTBS2I6AAV6","57","0","MAY","12",,"0","12","3501",,,,,"0","2018-11-12 21:59:40","402039"
"ASHG4UDKXYBPK","cs_wg_mon_single_v1_pilot5","3CP1TO84PT2DOGYSY3T7JVF5TUF52M","56","0","OCTOBER","12",,"0","12","2636",,,,,"0","2018-11-12 21:59:41","402040"
"A2Y6O5USSIVT08","cs_wg_mon_single_v1_pilot5","3LEIZ60CDJ0MVE3GQ0F2IMUE0ZX9ZP","52","0","MARCH","2",,"0","5","4941",,,,,"0","2018-11-12 21:59:42","402041"
"ASHG4UDKXYBPK","cs_wg_mon_single_v1_pilot5","3CP1TO84PT2DOGYSY3T7JVF5TUF52M","57","0","JULY","7",,"0","7","1788",,,,,"0","2018-11-12 21:59:45","402042"
"AOZNGVLQA42SZ","cs_wg_mon_single_v1_pilot5","3ZSANO2JCF8YVC8FYULMWPJMGISFSI","32","0","MAY","10",,"0","10","6608",,,,,"0","2018-11-12 21:59:45","402043"
"A2Y6O5USSIVT08","cs_wg_mon_single_v1_pilot5","3LEIZ60CDJ0MVE3GQ0F2IMUE0ZX9ZP","53","0","SEPTEMBER","7",,"0","7","2935",,,,,"0","2018-11-12 21:59:46","402044"
"A3DJT8WESP5RC7","cs_wg_mon_single_v1_pilot5","3YOH7BII098P3QHXT0HONPVYNI3KVU","5","0","AUGUST","8",,"0","8","5394",,,,,"1","2018-11-12 21:59:47","402045"
"A3MGDESST43KVZ","cs_wg_mon_single_v1_pilot5","3LEP4MGT3G12G6DHW241I0610HQDB4","25","0","AUGUST","7",,"0","7","5384",,,,,"0","2018-11-12 21:59:47","402046"
"A1RA8QOAPXYVCC","cs_wg_mon_single_v1_pilot5","35DR22AR5DLBBHEL89Q7UOBHS7P3X5","16","0","SEPTEMBER","2",,"0","2","8402",,,,,"1","2018-11-12 21:59:48","402047"
"A1KXESMB9K7504","cs_wg_mon_single_v1_pilot5","32N49TQG3GJJRD8BH94ZTBS2I6AAV6","58","0","AUGUST","8",,"0","8","2954",,,,,"0","2018-11-12 21:59:50","402048"
"A2Y6O5USSIVT08","cs_wg_mon_single_v1_pilot5","3LEIZ60CDJ0MVE3GQ0F2IMUE0ZX9ZP","54","0","MARCH","2",,"0","2","4332",,,,,"0","2018-11-12 21:59:52","402049"
"A3DJT8WESP5RC7","cs_wg_mon_single_v1_pilot5","3YOH7BII098P3QHXT0HONPVYNI3KVU","6","0","MARCH","1",,"0","1","4184",,,,,"1","2018-11-12 21:59:53","402050"
"ASHG4UDKXYBPK","cs_wg_mon_single_v1_pilot5","3CP1TO84PT2DOGYSY3T7JVF5TUF52M","58","0","AUGUST","3",,"0","3","8043",,,,,"0","2018-11-12 21:59:55","402051"
"A1KXESMB9K7504","cs_wg_mon_single_v1_pilot5","32N49TQG3GJJRD8BH94ZTBS2I6AAV6","59","0","OCTOBER","11",,"0","11","3112",,,,,"0","2018-11-12 21:59:55","402052"
"A3MGDESST43KVZ","cs_wg_mon_single_v1_pilot5","3LEP4MGT3G12G6DHW241I0610HQDB4","26","0","DECEMBER","5",,"0","5","5597",,,,,"1","2018-11-12 21:59:55","402053"
"A2Y6O5USSIVT08","cs_wg_mon_single_v1_pilot5","3LEIZ60CDJ0MVE3GQ0F2IMUE0ZX9ZP","55","0","MAY","5",,"0","5","2430",,,,,"0","2018-11-12 21:59:57","402054"
"AOZNGVLQA42SZ","cs_wg_mon_single_v1_pilot5","3ZSANO2JCF8YVC8FYULMWPJMGISFSI","33","0","JUNE","6",,"0","6","9645",,,,,"0","2018-11-12 21:59:59","402055"
"A3DJT8WESP5RC7","cs_wg_mon_single_v1_pilot5","3YOH7BII098P3QHXT0HONPVYNI3KVU","7","0","SEPTEMBER","10",,"0","10","2872",,,,,"0","2018-11-12 21:59:59","402056"
"A1KXESMB9K7504","cs_wg_mon_single_v1_pilot5","32N49TQG3GJJRD8BH94ZTBS2I6AAV6","60","0","OCTOBER","11",,"0","11","2898",,,,,"0","2018-11-12 22:00:00","402057"
"A1RA8QOAPXYVCC","cs_wg_mon_single_v1_pilot5","35DR22AR5DLBBHEL89Q7UOBHS7P3X5","17","0","DECEMBER","9",,"0","9","4484",,,,,"1","2018-11-12 22:00:00","402058"
"A2Y6O5USSIVT08","cs_wg_mon_single_v1_pilot5","3LEIZ60CDJ0MVE3GQ0F2IMUE0ZX9ZP","56","0","FEBRUARY","9",,"0","9","2894",,,,,"0","2018-11-12 22:00:02","402059"
"ASHG4UDKXYBPK","cs_wg_mon_single_v1_pilot5","3CP1TO84PT2DOGYSY3T7JVF5TUF52M","59","0","SEPTEMBER","4",,"0","4","4845",,,,,"0","2018-11-12 22:00:02","402060"
"A1KXESMB9K7504","cs_wg_mon_single_v1_pilot5","32N49TQG3GJJRD8BH94ZTBS2I6AAV6","61","0","DECEMBER","1",,"0","1","1684",,,,,"0","2018-11-12 22:00:03","402061"
"A3MGDESST43KVZ","cs_wg_mon_single_v1_pilot5","3LEP4MGT3G12G6DHW241I0610HQDB4","27","0","OCTOBER","4",,"0","4","6936",,,,,"1","2018-11-12 22:00:04","402062"
"ASHG4UDKXYBPK","cs_wg_mon_single_v1_pilot5","3CP1TO84PT2DOGYSY3T7JVF5TUF52M","60","0","SEPTEMBER","4",,"0","4","1499",,,,,"0","2018-11-12 22:00:05","402063"
"A3DJT8WESP5RC7","cs_wg_mon_single_v1_pilot5","3YOH7BII098P3QHXT0HONPVYNI3KVU","8","0","JUNE","6",,"0","6","4441",,,,,"1","2018-11-12 22:00:05","402064"
"A1KXESMB9K7504","cs_wg_mon_single_v1_pilot5","32N49TQG3GJJRD8BH94ZTBS2I6AAV6","62","0","DECEMBER","1",,"0","1","1248",,,,,"0","2018-11-12 22:00:06","402065"
"ASHG4UDKXYBPK","cs_wg_mon_single_v1_pilot5","3CP1TO84PT2DOGYSY3T7JVF5TUF52M","61","0","DECEMBER","11",,"0","11","1413",,,,,"0","2018-11-12 22:00:08","402066"
"A2Y6O5USSIVT08","cs_wg_mon_single_v1_pilot5","3LEIZ60CDJ0MVE3GQ0F2IMUE0ZX9ZP","57","0","JUNE","4",,"0","4","5389",,,,,"0","2018-11-12 22:00:09","402067"
"A1KXESMB9K7504","cs_wg_mon_single_v1_pilot5","32N49TQG3GJJRD8BH94ZTBS2I6AAV6","63","0","MARCH","2",,"0","4","2421",,,,,"0","2018-11-12 22:00:10","402068"
"A1RA8QOAPXYVCC","cs_wg_mon_single_v1_pilot5","35DR22AR5DLBBHEL89Q7UOBHS7P3X5","18","0","MARCH","7",,"0","7","7720",,,,,"1","2018-11-12 22:00:10","402069"
"A3DJT8WESP5RC7","cs_wg_mon_single_v1_pilot5","3YOH7BII098P3QHXT0HONPVYNI3KVU","9","0","JUNE","6",,"0","6","2757",,,,,"0","2018-11-12 22:00:10","402070"
"AOZNGVLQA42SZ","cs_wg_mon_single_v1_pilot5","3ZSANO2JCF8YVC8FYULMWPJMGISFSI","34","0","JANUARY","1",,"0","1","8896",,,,,"0","2018-11-12 22:00:10","402071"
"ASHG4UDKXYBPK","cs_wg_mon_single_v1_pilot5","3CP1TO84PT2DOGYSY3T7JVF5TUF52M","62","0","FEBRUARY","10",,"0","10","2908",,,,,"0","2018-11-12 22:00:12","402072"
"A2Y6O5USSIVT08","cs_wg_mon_single_v1_pilot5","3LEIZ60CDJ0MVE3GQ0F2IMUE0ZX9ZP","58","0","SEPTEMBER","7",,"0","7","3494",,,,,"0","2018-11-12 22:00:14","402073"
"A1KXESMB9K7504","cs_wg_mon_single_v1_pilot5","32N49TQG3GJJRD8BH94ZTBS2I6AAV6","64","0","AUGUST","8",,"0","8","3470",,,,,"0","2018-11-12 22:00:15","402074"
"ASHG4UDKXYBPK","cs_wg_mon_single_v1_pilot5","3CP1TO84PT2DOGYSY3T7JVF5TUF52M","63","0","JUNE","2",,"0","2","3170",,,,,"0","2018-11-12 22:00:17","402075"
"A3DJT8WESP5RC7","cs_wg_mon_single_v1_pilot5","3YOH7BII098P3QHXT0HONPVYNI3KVU","10","0","JANUARY","5",,"0","5","5690",,,,,"1","2018-11-12 22:00:18","402076"
"A1RA8QOAPXYVCC","cs_wg_mon_single_v1_pilot5","35DR22AR5DLBBHEL89Q7UOBHS7P3X5","19","0","JUNE","4",,"0","4","6182",,,,,"1","2018-11-12 22:00:18","402077"
"A3MGDESST43KVZ","cs_wg_mon_single_v1_pilot5","3LEP4MGT3G12G6DHW241I0610HQDB4","28","0","JULY","12",,"0","12","12540",,,,,"1","2018-11-12 22:00:19","402078"
"A1KXESMB9K7504","cs_wg_mon_single_v1_pilot5","32N49TQG3GJJRD8BH94ZTBS2I6AAV6","65","0","MARCH","2",,"0","4","2737",,,,,"0","2018-11-12 22:00:19","402079"
"AOZNGVLQA42SZ","cs_wg_mon_single_v1_pilot5","3ZSANO2JCF8YVC8FYULMWPJMGISFSI","35","0","FEBRUARY","12",,"0","12","6613",,,,,"0","2018-11-12 22:00:20","402080"
"ASHG4UDKXYBPK","cs_wg_mon_single_v1_pilot5","3CP1TO84PT2DOGYSY3T7JVF5TUF52M","64","0","JUNE","2",,"0","2","1247",,,,,"0","2018-11-12 22:00:20","402081"
"A1KXESMB9K7504","cs_wg_mon_single_v1_pilot5","32N49TQG3GJJRD8BH94ZTBS2I6AAV6","66","0","OCTOBER","11",,"0","11","1567",,,,,"0","2018-11-12 22:00:23","402082"
"ASHG4UDKXYBPK","cs_wg_mon_single_v1_pilot5","3CP1TO84PT2DOGYSY3T7JVF5TUF52M","65","0","JULY","7",,"0","7","2016",,,,,"0","2018-11-12 22:00:24","402084"
"A3DJT8WESP5RC7","cs_wg_mon_single_v1_pilot5","3YOH7BII098P3QHXT0HONPVYNI3KVU","11","0","OCTOBER","11",,"0","11","4240",,,,,"1","2018-11-12 22:00:24","402083"
"A2Y6O5USSIVT08","cs_wg_mon_single_v1_pilot5","3LEIZ60CDJ0MVE3GQ0F2IMUE0ZX9ZP","59","0","APRIL","6",,"0","6","9580",,,,,"0","2018-11-12 22:00:26","402085"
"A1RA8QOAPXYVCC","cs_wg_mon_single_v1_pilot5","35DR22AR5DLBBHEL89Q7UOBHS7P3X5","20","0","JULY","10",,"0","10","5784",,,,,"1","2018-11-12 22:00:26","402086"
"AOZNGVLQA42SZ","cs_wg_mon_single_v1_pilot5","3ZSANO2JCF8YVC8FYULMWPJMGISFSI","36","0","AUGUST","11",,"0","11","5071",,,,,"0","2018-11-12 22:00:27","402087"
"A3MGDESST43KVZ","cs_wg_mon_single_v1_pilot5","3LEP4MGT3G12G6DHW241I0610HQDB4","29","0","NOVEMBER","6",,"0","6","5643",,,,,"1","2018-11-12 22:00:27","402088"
"ASHG4UDKXYBPK","cs_wg_mon_single_v1_pilot5","3CP1TO84PT2DOGYSY3T7JVF5TUF52M","66","0","MARCH","5",,"0","5","2499",,,,,"0","2018-11-12 22:00:29","402089"
"A1KXESMB9K7504","cs_wg_mon_single_v1_pilot5","32N49TQG3GJJRD8BH94ZTBS2I6AAV6","67","0","MAY","12",,"0","8","2253",,,,,"0","2018-11-12 22:00:29","402090"
"A3DJT8WESP5RC7","cs_wg_mon_single_v1_pilot5","3YOH7BII098P3QHXT0HONPVYNI3KVU","12","0","APRIL","9",,"0","9","3206",,,,,"1","2018-11-12 22:00:30","402091"
"A2Y6O5USSIVT08","cs_wg_mon_single_v1_pilot5","3LEIZ60CDJ0MVE3GQ0F2IMUE0ZX9ZP","60","0","DECEMBER","10",,"0","10","2877",,,,,"0","2018-11-12 22:00:31","402092"
"ASHG4UDKXYBPK","cs_wg_mon_single_v1_pilot5","3CP1TO84PT2DOGYSY3T7JVF5TUF52M","67","0","MAY","1",,"0","1","1229",,,,,"0","2018-11-12 22:00:32","402093"
"A1RA8QOAPXYVCC","cs_wg_mon_single_v1_pilot5","35DR22AR5DLBBHEL89Q7UOBHS7P3X5","21","0","APRIL","8",,"0","8","4442",,,,,"0","2018-11-12 22:00:33","402094"
"A3MGDESST43KVZ","cs_wg_mon_single_v1_pilot5","3LEP4MGT3G12G6DHW241I0610HQDB4","30","0","OCTOBER","4",,"0","4","4912",,,,,"1","2018-11-12 22:00:34","402095"
"AOZNGVLQA42SZ","cs_wg_mon_single_v1_pilot5","3ZSANO2JCF8YVC8FYULMWPJMGISFSI","37","0","OCTOBER","8",,"0","8","5683",,,,,"0","2018-11-12 22:00:34","402096"
"ASHG4UDKXYBPK","cs_wg_mon_single_v1_pilot5","3CP1TO84PT2DOGYSY3T7JVF5TUF52M","68","0","JUNE","2",,"0","2","1723",,,,,"0","2018-11-12 22:00:35","402097"
"A3DJT8WESP5RC7","cs_wg_mon_single_v1_pilot5","3YOH7BII098P3QHXT0HONPVYNI3KVU","13","0","APRIL","9",,"0","9","3063",,,,,"0","2018-11-12 22:00:35","402098"
"ASHG4UDKXYBPK","cs_wg_mon_single_v1_pilot5","3CP1TO84PT2DOGYSY3T7JVF5TUF52M","69","0","MAY","1",,"0","1","1210",,,,,"0","2018-11-12 22:00:38","402099"
"A1KXESMB9K7504","cs_wg_mon_single_v1_pilot5","32N49TQG3GJJRD8BH94ZTBS2I6AAV6","68","0","AUGUST","8",,"0","8","4760",,,,,"0","2018-11-12 22:00:38","402100"
"AOZNGVLQA42SZ","cs_wg_mon_single_v1_pilot5","3ZSANO2JCF8YVC8FYULMWPJMGISFSI","38","0","JANUARY","1",,"0","1","3040",,,,,"1","2018-11-12 22:00:39","402101"
"ASHG4UDKXYBPK","cs_wg_mon_single_v1_pilot5","3CP1TO84PT2DOGYSY3T7JVF5TUF52M","70","0","MAY","1",,"0","1","1052",,,,,"0","2018-11-12 22:00:41","402102"
"A3MGDESST43KVZ","cs_wg_mon_single_v1_pilot5","3LEP4MGT3G12G6DHW241I0610HQDB4","31","0","JANUARY","3",,"0","3","5361",,,,,"1","2018-11-12 22:00:41","402103"
"A1KXESMB9K7504","cs_wg_mon_single_v1_pilot5","32N49TQG3GJJRD8BH94ZTBS2I6AAV6","69","0","JUNE","6",,"0","6","2871",,,,,"0","2018-11-12 22:00:43","402104"
"A3DJT8WESP5RC7","cs_wg_mon_single_v1_pilot5","3YOH7BII098P3QHXT0HONPVYNI3KVU","14","0","FEBRUARY","3",,"0","3","5090",,,,,"1","2018-11-12 22:00:43","402105"
"ASHG4UDKXYBPK","cs_wg_mon_single_v1_pilot5","3CP1TO84PT2DOGYSY3T7JVF5TUF52M","71","0","FEBRUARY","10",,"0","10","3125",,,,,"0","2018-11-12 22:00:45","402106"
"A1RA8QOAPXYVCC","cs_wg_mon_single_v1_pilot5","35DR22AR5DLBBHEL89Q7UOBHS7P3X5","22","0","NOVEMBER","5",,"0","5","4584",,,,,"1","2018-11-12 22:00:45","402107"
"A1KXESMB9K7504","cs_wg_mon_single_v1_pilot5","32N49TQG3GJJRD8BH94ZTBS2I6AAV6","70","0","MAY","12",,"0","12","2165",,,,,"0","2018-11-12 22:00:47","402108"
"ASHG4UDKXYBPK","cs_wg_mon_single_v1_pilot5","3CP1TO84PT2DOGYSY3T7JVF5TUF52M","72","0","JULY","7",,"0","7","1181",,,,,"0","2018-11-12 22:00:48","402109"
"A3DJT8WESP5RC7","cs_wg_mon_single_v1_pilot5","3YOH7BII098P3QHXT0HONPVYNI3KVU","15","0","JANUARY","5",,"0","5","3788",,,,,"1","2018-11-12 22:00:49","402110"
"A3MGDESST43KVZ","cs_wg_mon_single_v1_pilot5","3LEP4MGT3G12G6DHW241I0610HQDB4","32","0","JULY","12",,"0","12","5158",,,,,"1","2018-11-12 22:00:49","402111"
"ASHG4UDKXYBPK","cs_wg_mon_single_v1_pilot5","3CP1TO84PT2DOGYSY3T7JVF5TUF52M","73","0","NOVEMBER","8",,"0","8","2491",,,,,"0","2018-11-12 22:00:53","402112"
"A1RA8QOAPXYVCC","cs_wg_mon_single_v1_pilot5","35DR22AR5DLBBHEL89Q7UOBHS7P3X5","23","0","SEPTEMBER","2",,"0","2","5419",,,,,"1","2018-11-12 22:00:53","402113"
"AOZNGVLQA42SZ","cs_wg_mon_single_v1_pilot5","3ZSANO2JCF8YVC8FYULMWPJMGISFSI","39","0","NOVEMBER","4",,"0","4","2972",,,,,"1","2018-11-12 22:00:54","402114"
"A2Y6O5USSIVT08","cs_wg_mon_single_v1_pilot5","3LEIZ60CDJ0MVE3GQ0F2IMUE0ZX9ZP","61","0","OCTOBER","1",,"0","11","21749",,,,,"0","2018-11-12 22:00:54","402115"
"A1KXESMB9K7504","cs_wg_mon_single_v1_pilot5","32N49TQG3GJJRD8BH94ZTBS2I6AAV6","71","0","JANUARY","4",,"0","12","3906",,,,,"0","2018-11-12 22:00:55","402116"
"A3DJT8WESP5RC7","cs_wg_mon_single_v1_pilot5","3YOH7BII098P3QHXT0HONPVYNI3KVU","16","0","NOVEMBER","7",,"0","7","3689",,,,,"1","2018-11-12 22:00:55","402117"
"A3MGDESST43KVZ","cs_wg_mon_single_v1_pilot5","3LEP4MGT3G12G6DHW241I0610HQDB4","33","0","DECEMBER","5",,"0","5","4698",,,,,"1","2018-11-12 22:00:57","402118"
"ASHG4UDKXYBPK","cs_wg_mon_single_v1_pilot5","3CP1TO84PT2DOGYSY3T7JVF5TUF52M","74","0","JUNE","2",,"0","2","2346",,,,,"0","2018-11-12 22:00:57","402119"
"A1KXESMB9K7504","cs_wg_mon_single_v1_pilot5","32N49TQG3GJJRD8BH94ZTBS2I6AAV6","72","0","JULY","7",,"0","7","2107",,,,,"0","2018-11-12 22:00:58","402120"
"A1RA8QOAPXYVCC","cs_wg_mon_single_v1_pilot5","35DR22AR5DLBBHEL89Q7UOBHS7P3X5","24","0","SEPTEMBER","2",,"0","2","3292",,,,,"0","2018-11-12 22:00:59","402121"
"A2Y6O5USSIVT08","cs_wg_mon_single_v1_pilot5","3LEIZ60CDJ0MVE3GQ0F2IMUE0ZX9ZP","62","0","DECEMBER","10",,"0","10","2823",,,,,"0","2018-11-12 22:00:59","402122"
"ASHG4UDKXYBPK","cs_wg_mon_single_v1_pilot5","3CP1TO84PT2DOGYSY3T7JVF5TUF52M","75","0","DECEMBER","11",,"0","11","1803",,,,,"0","2018-11-12 22:01:01","402123"
"A1KXESMB9K7504","cs_wg_mon_single_v1_pilot5","32N49TQG3GJJRD8BH94ZTBS2I6AAV6","73","0","DECEMBER","1",,"0","1","1202",,,,,"0","2018-11-12 22:01:01","402124"
"AOZNGVLQA42SZ","cs_wg_mon_single_v1_pilot5","3ZSANO2JCF8YVC8FYULMWPJMGISFSI","40","0","MAY","10",,"0","10","5948",,,,,"0","2018-11-12 22:01:02","402125"
"A3DJT8WESP5RC7","cs_wg_mon_single_v1_pilot5","3YOH7BII098P3QHXT0HONPVYNI3KVU","17","0","AUGUST","8",,"0","8","6801",,,,,"1","2018-11-12 22:01:03","402126"
"A3MGDESST43KVZ","cs_wg_mon_single_v1_pilot5","3LEP4MGT3G12G6DHW241I0610HQDB4","34","0","FEBRUARY","10",,"0","10","4327",,,,,"1","2018-11-12 22:01:03","402127"
"A1RA8QOAPXYVCC","cs_wg_mon_single_v1_pilot5","35DR22AR5DLBBHEL89Q7UOBHS7P3X5","25","0","APRIL","8",,"0","8","3202",,,,,"0","2018-11-12 22:01:04","402128"
"A2Y6O5USSIVT08","cs_wg_mon_single_v1_pilot5","3LEIZ60CDJ0MVE3GQ0F2IMUE0ZX9ZP","63","0","MAY","5",,"0","5","4022",,,,,"0","2018-11-12 22:01:05","402129"
"ASHG4UDKXYBPK","cs_wg_mon_single_v1_pilot5","3CP1TO84PT2DOGYSY3T7JVF5TUF52M","76","0","JANUARY","9",,"0","9","4571",,,,,"0","2018-11-12 22:01:07","402130"
"A3DJT8WESP5RC7","cs_wg_mon_single_v1_pilot5","3YOH7BII098P3QHXT0HONPVYNI3KVU","18","0","MAY","4",,"0","4","2920",,,,,"1","2018-11-12 22:01:08","402131"
"A2Y6O5USSIVT08","cs_wg_mon_single_v1_pilot5","3LEIZ60CDJ0MVE3GQ0F2IMUE0ZX9ZP","64","0","MAY","5",,"0","5","2430",,,,,"0","2018-11-12 22:01:10","402132"
"A3MGDESST43KVZ","cs_wg_mon_single_v1_pilot5","3LEP4MGT3G12G6DHW241I0610HQDB4","35","0","OCTOBER","4",,"0","4","4247",,,,,"1","2018-11-12 22:01:10","402133"
"AOZNGVLQA42SZ","cs_wg_mon_single_v1_pilot5","3ZSANO2JCF8YVC8FYULMWPJMGISFSI","41","0","MAY","10",,"0","10","5766",,,,,"0","2018-11-12 22:01:11","402134"
"ASHG4UDKXYBPK","cs_wg_mon_single_v1_pilot5","3CP1TO84PT2DOGYSY3T7JVF5TUF52M","77","0","JUNE","2",,"0","2","1419",,,,,"0","2018-11-12 22:01:11","402135"
"A1RA8QOAPXYVCC","cs_wg_mon_single_v1_pilot5","35DR22AR5DLBBHEL89Q7UOBHS7P3X5","26","0","APRIL","8",,"0","8","5236",,,,,"0","2018-11-12 22:01:12","402136"
"A2Y6O5USSIVT08","cs_wg_mon_single_v1_pilot5","3LEIZ60CDJ0MVE3GQ0F2IMUE0ZX9ZP","65","0","OCTOBER","1",,"0","1","2742",,,,,"0","2018-11-12 22:01:14","402137"
"ASHG4UDKXYBPK","cs_wg_mon_single_v1_pilot5","3CP1TO84PT2DOGYSY3T7JVF5TUF52M","78","0","AUGUST","3",,"0","3","2572",,,,,"0","2018-11-12 22:01:15","402138"
"A3DJT8WESP5RC7","cs_wg_mon_single_v1_pilot5","3YOH7BII098P3QHXT0HONPVYNI3KVU","19","0","FEBRUARY","3",,"0","3","5357",,,,,"1","2018-11-12 22:01:16","402139"
"A1KXESMB9K7504","cs_wg_mon_single_v1_pilot5","32N49TQG3GJJRD8BH94ZTBS2I6AAV6","74","0","NOVEMBER","3",,"0","2","3222",,,,,"0","2018-11-12 22:01:16","402140"
"ASHG4UDKXYBPK","cs_wg_mon_single_v1_pilot5","3CP1TO84PT2DOGYSY3T7JVF5TUF52M","79","0","DECEMBER","11",,"0","11","1139",,,,,"0","2018-11-12 22:01:18","402141"
"A3MGDESST43KVZ","cs_wg_mon_single_v1_pilot5","3LEP4MGT3G12G6DHW241I0610HQDB4","36","0","MARCH","11",,"0","11","5509",,,,,"1","2018-11-12 22:01:18","402142"
"AOZNGVLQA42SZ","cs_wg_mon_single_v1_pilot5","3ZSANO2JCF8YVC8FYULMWPJMGISFSI","42","0","JANUARY","1",,"0","1","8064",,,,,"0","2018-11-12 22:01:21","402143"
"A3DJT8WESP5RC7","cs_wg_mon_single_v1_pilot5","3YOH7BII098P3QHXT0HONPVYNI3KVU","20","0","AUGUST","8",,"0","8","3219",,,,,"0","2018-11-12 22:01:22","402144"
"A2Y6O5USSIVT08","cs_wg_mon_single_v1_pilot5","3LEIZ60CDJ0MVE3GQ0F2IMUE0ZX9ZP","66","0","APRIL","6",,"0","4","6294",,,,,"0","2018-11-12 22:01:22","402145"
"ASHG4UDKXYBPK","cs_wg_mon_single_v1_pilot5","3CP1TO84PT2DOGYSY3T7JVF5TUF52M","80","0","AUGUST","3",,"0","3","2316",,,,,"0","2018-11-12 22:01:22","402146"
"A1RA8QOAPXYVCC","cs_wg_mon_single_v1_pilot5","35DR22AR5DLBBHEL89Q7UOBHS7P3X5","27","0","APRIL","8",,"0","8","4806",,,,,"0","2018-11-12 22:01:22","402147"
"A3MGDESST43KVZ","cs_wg_mon_single_v1_pilot5","3LEP4MGT3G12G6DHW241I0610HQDB4","37","0","DECEMBER","5",,"0","5","3674",,,,,"1","2018-11-12 22:01:24","402148"
"A1KXESMB9K7504","cs_wg_mon_single_v1_pilot5","32N49TQG3GJJRD8BH94ZTBS2I6AAV6","75","0","FEBRUARY","10",,"0","10","8384",,,,,"0","2018-11-12 22:01:26","402149"
"ASHG4UDKXYBPK","cs_wg_mon_single_v1_pilot5","3CP1TO84PT2DOGYSY3T7JVF5TUF52M","81","0","SEPTEMBER","4",,"0","4","2874",,,,,"0","2018-11-12 22:01:26","402150"
"AOZNGVLQA42SZ","cs_wg_mon_single_v1_pilot5","3ZSANO2JCF8YVC8FYULMWPJMGISFSI","43","0","NOVEMBER","4",,"0","4","3845",,,,,"0","2018-11-12 22:01:27","402151"
"A1KXESMB9K7504","cs_wg_mon_single_v1_pilot5","32N49TQG3GJJRD8BH94ZTBS2I6AAV6","76","0","DECEMBER","1",,"0","1","1314",,,,,"0","2018-11-12 22:01:29","402152"
"A3DJT8WESP5RC7","cs_wg_mon_single_v1_pilot5","3YOH7BII098P3QHXT0HONPVYNI3KVU","21","0","MARCH","1",,"0","1","5343",,,,,"1","2018-11-12 22:01:29","402153"
"ASHG4UDKXYBPK","cs_wg_mon_single_v1_pilot5","3CP1TO84PT2DOGYSY3T7JVF5TUF52M","82","0","MAY","1",,"0","1","1675",,,,,"0","2018-11-12 22:01:30","402154"
"A1RA8QOAPXYVCC","cs_wg_mon_single_v1_pilot5","35DR22AR5DLBBHEL89Q7UOBHS7P3X5","28","0","JUNE","4",,"0","4","6236",,,,,"1","2018-11-12 22:01:31","402155"
"A3MGDESST43KVZ","cs_wg_mon_single_v1_pilot5","3LEP4MGT3G12G6DHW241I0610HQDB4","38","0","JULY","12",,"0","12","4685",,,,,"1","2018-11-12 22:01:31","402156"
"ASHG4UDKXYBPK","cs_wg_mon_single_v1_pilot5","3CP1TO84PT2DOGYSY3T7JVF5TUF52M","83","0","DECEMBER","11",,"0","11","1173",,,,,"0","2018-11-12 22:01:32","402157"
"A1KXESMB9K7504","cs_wg_mon_single_v1_pilot5","32N49TQG3GJJRD8BH94ZTBS2I6AAV6","77","0","MAY","12",,"0","12","2330",,,,,"0","2018-11-12 22:01:33","402158"
"A2Y6O5USSIVT08","cs_wg_mon_single_v1_pilot5","3LEIZ60CDJ0MVE3GQ0F2IMUE0ZX9ZP","67","0","JANUARY","3",,"0","2","9741",,,,,"0","2018-11-12 22:01:33","402159"
"AOZNGVLQA42SZ","cs_wg_mon_single_v1_pilot5","3ZSANO2JCF8YVC8FYULMWPJMGISFSI","44","0","APRIL","3",,"0","3","6156",,,,,"0","2018-11-12 22:01:35","402160"
"A3DJT8WESP5RC7","cs_wg_mon_single_v1_pilot5","3YOH7BII098P3QHXT0HONPVYNI3KVU","22","0","OCTOBER","11",,"0","11","4143",,,,,"1","2018-11-12 22:01:35","402161"
"A1KXESMB9K7504","cs_wg_mon_single_v1_pilot5","32N49TQG3GJJRD8BH94ZTBS2I6AAV6","78","0","FEBRUARY","10",,"0","10","1994",,,,,"0","2018-11-12 22:01:37","402162"
"ASHG4UDKXYBPK","cs_wg_mon_single_v1_pilot5","3CP1TO84PT2DOGYSY3T7JVF5TUF52M","84","0","MAY","1",,"0","1","2499",,,,,"0","2018-11-12 22:01:37","402163"
"A3MGDESST43KVZ","cs_wg_mon_single_v1_pilot5","3LEP4MGT3G12G6DHW241I0610HQDB4","39","0","JUNE","1",,"0","1","4754",,,,,"1","2018-11-12 22:01:38","402164"
"A1RA8QOAPXYVCC","cs_wg_mon_single_v1_pilot5","35DR22AR5DLBBHEL89Q7UOBHS7P3X5","29","0","NOVEMBER","5",,"0","5","6393",,,,,"1","2018-11-12 22:01:39","402165"
"A1KXESMB9K7504","cs_wg_mon_single_v1_pilot5","32N49TQG3GJJRD8BH94ZTBS2I6AAV6","79","0","APRIL","5",,"0","3","1816",,,,,"0","2018-11-12 22:01:40","402166"
"A3DJT8WESP5RC7","cs_wg_mon_single_v1_pilot5","3YOH7BII098P3QHXT0HONPVYNI3KVU","23","0","MAY","4",,"0","4","3222",,,,,"1","2018-11-12 22:01:40","402167"
"AOZNGVLQA42SZ","cs_wg_mon_single_v1_pilot5","3ZSANO2JCF8YVC8FYULMWPJMGISFSI","45","0","NOVEMBER","4",,"0","4","5260",,,,,"0","2018-11-12 22:01:42","402168"
"ASHG4UDKXYBPK","cs_wg_mon_single_v1_pilot5","3CP1TO84PT2DOGYSY3T7JVF5TUF52M","85","0","AUGUST","3",,"0","3","4451",,,,,"0","2018-11-12 22:01:43","402169"
"A1KXESMB9K7504","cs_wg_mon_single_v1_pilot5","32N49TQG3GJJRD8BH94ZTBS2I6AAV6","80","0","JANUARY","4",,"0","3","2461",,,,,"0","2018-11-12 22:01:44","402170"
"A1RA8QOAPXYVCC","cs_wg_mon_single_v1_pilot5","35DR22AR5DLBBHEL89Q7UOBHS7P3X5","30","0","NOVEMBER","5",,"0","5","2842",,,,,"0","2018-11-12 22:01:44","402171"
"A2Y6O5USSIVT08","cs_wg_mon_single_v1_pilot5","3LEIZ60CDJ0MVE3GQ0F2IMUE0ZX9ZP","68","0","JULY","8",,"0","8","8948",,,,,"0","2018-11-12 22:01:44","402172"
"A3MGDESST43KVZ","cs_wg_mon_single_v1_pilot5","3LEP4MGT3G12G6DHW241I0610HQDB4","40","0","DECEMBER","5",,"0","5","4461",,,,,"0","2018-11-12 22:01:45","402173"
"ASHG4UDKXYBPK","cs_wg_mon_single_v1_pilot5","3CP1TO84PT2DOGYSY3T7JVF5TUF52M","86","0","AUGUST","3",,"0","3","2139",,,,,"0","2018-11-12 22:01:47","402174"
"A3DJT8WESP5RC7","cs_wg_mon_single_v1_pilot5","3YOH7BII098P3QHXT0HONPVYNI3KVU","24","0","SEPTEMBER","10",,"0","10","4646",,,,,"1","2018-11-12 22:01:47","402175"
"AOZNGVLQA42SZ","cs_wg_mon_single_v1_pilot5","3ZSANO2JCF8YVC8FYULMWPJMGISFSI","46","0","JULY","5",,"0","5","3923",,,,,"0","2018-11-12 22:01:48","402176"
"A1KXESMB9K7504","cs_wg_mon_single_v1_pilot5","32N49TQG3GJJRD8BH94ZTBS2I6AAV6","81","0","FEBRUARY","10",,"0","10","3862",,,,,"0","2018-11-12 22:01:50","402177"
"A2Y6O5USSIVT08","cs_wg_mon_single_v1_pilot5","3LEIZ60CDJ0MVE3GQ0F2IMUE0ZX9ZP","69","0","SEPTEMBER","7",,"0","7","3117",,,,,"0","2018-11-12 22:01:50","402178"
"ASHG4UDKXYBPK","cs_wg_mon_single_v1_pilot5","3CP1TO84PT2DOGYSY3T7JVF5TUF52M","87","0","SEPTEMBER","4",,"0","4","2585",,,,,"0","2018-11-12 22:01:51","402179"
"A3MGDESST43KVZ","cs_wg_mon_single_v1_pilot5","3LEP4MGT3G12G6DHW241I0610HQDB4","41","0","APRIL","9",,"0","9","4574",,,,,"0","2018-11-12 22:01:51","402180"
"A1RA8QOAPXYVCC","cs_wg_mon_single_v1_pilot5","35DR22AR5DLBBHEL89Q7UOBHS7P3X5","31","0","DECEMBER","9",,"0","9","5298",,,,,"1","2018-11-12 22:01:53","402181"
"ASHG4UDKXYBPK","cs_wg_mon_single_v1_pilot5","3CP1TO84PT2DOGYSY3T7JVF5TUF52M","88","0","SEPTEMBER","4",,"0","4","1269",,,,,"0","2018-11-12 22:01:54","402182"
"A1KXESMB9K7504","cs_wg_mon_single_v1_pilot5","32N49TQG3GJJRD8BH94ZTBS2I6AAV6","82","0","JULY","7",,"0","7","3436",,,,,"0","2018-11-12 22:01:55","402183"
"A2Y6O5USSIVT08","cs_wg_mon_single_v1_pilot5","3LEIZ60CDJ0MVE3GQ0F2IMUE0ZX9ZP","70","0","AUGUST","12",,"0","12","3413",,,,,"0","2018-11-12 22:01:55","402184"
"AOZNGVLQA42SZ","cs_wg_mon_single_v1_pilot5","3ZSANO2JCF8YVC8FYULMWPJMGISFSI","47","0","DECEMBER","2",,"0","3","7351",,,,,"0","2018-11-12 22:01:57","402185"
"A1KXESMB9K7504","cs_wg_mon_single_v1_pilot5","32N49TQG3GJJRD8BH94ZTBS2I6AAV6","83","0","MARCH","2",,"0","4","1872",,,,,"0","2018-11-12 22:01:58","402186"
"A2Y6O5USSIVT08","cs_wg_mon_single_v1_pilot5","3LEIZ60CDJ0MVE3GQ0F2IMUE0ZX9ZP","71","0","AUGUST","12",,"0","12","2478",,,,,"0","2018-11-12 22:01:59","402187"
"ASHG4UDKXYBPK","cs_wg_mon_single_v1_pilot5","3CP1TO84PT2DOGYSY3T7JVF5TUF52M","89","0","NOVEMBER","8",,"0","0","3449",,,,,"0","2018-11-12 22:02:00","402188"
"A3DJT8WESP5RC7","cs_wg_mon_single_v1_pilot5","3YOH7BII098P3QHXT0HONPVYNI3KVU","25","0","APRIL","9",,"0","9","11233",,,,,"1","2018-11-12 22:02:01","402189"
"A1KXESMB9K7504","cs_wg_mon_single_v1_pilot5","32N49TQG3GJJRD8BH94ZTBS2I6AAV6","84","0","AUGUST","8",,"0","8","1669",,,,,"0","2018-11-12 22:02:01","402190"
"A3MGDESST43KVZ","cs_wg_mon_single_v1_pilot5","3LEP4MGT3G12G6DHW241I0610HQDB4","42","0","MAY","2",,"0","5","6409",,,,,"0","2018-11-12 22:02:01","402191"
"A1RA8QOAPXYVCC","cs_wg_mon_single_v1_pilot5","35DR22AR5DLBBHEL89Q7UOBHS7P3X5","32","0","JANUARY","3",,"0","3","6969",,,,,"1","2018-11-12 22:02:02","402192"
"A2Y6O5USSIVT08","cs_wg_mon_single_v1_pilot5","3LEIZ60CDJ0MVE3GQ0F2IMUE0ZX9ZP","72","0","DECEMBER","10",,"0","10","2500",,,,,"0","2018-11-12 22:02:04","402193"
"ASHG4UDKXYBPK","cs_wg_mon_single_v1_pilot5","3CP1TO84PT2DOGYSY3T7JVF5TUF52M","90","0","APRIL","6",,"0","6","2667",,,,,"0","2018-11-12 22:02:05","402194"
"AOZNGVLQA42SZ","cs_wg_mon_single_v1_pilot5","3ZSANO2JCF8YVC8FYULMWPJMGISFSI","48","0","MARCH","9",,"0","9","6563",,,,,"0","2018-11-12 22:02:06","402195"
"A1KXESMB9K7504","cs_wg_mon_single_v1_pilot5","32N49TQG3GJJRD8BH94ZTBS2I6AAV6","85","0","JULY","7",,"0","7","1626",,,,,"0","2018-11-12 22:02:07","402196"
"A3DJT8WESP5RC7","cs_wg_mon_single_v1_pilot5","3YOH7BII098P3QHXT0HONPVYNI3KVU","26","0","SEPTEMBER","10",,"0","10","3717",,,,,"0","2018-11-12 22:02:07","402197"
"ASHG4UDKXYBPK","cs_wg_mon_single_v1_pilot5","3CP1TO84PT2DOGYSY3T7JVF5TUF52M","91","0","APRIL","6",,"0","6","1112",,,,,"0","2018-11-12 22:02:08","402198"
"A3MGDESST43KVZ","cs_wg_mon_single_v1_pilot5","3LEP4MGT3G12G6DHW241I0610HQDB4","43","0","FEBRUARY","10",,"0","10","4552",,,,,"0","2018-11-12 22:02:08","402199"
"A2Y6O5USSIVT08","cs_wg_mon_single_v1_pilot5","3LEIZ60CDJ0MVE3GQ0F2IMUE0ZX9ZP","73","0","OCTOBER","1",,"0","1","3462",,,,,"0","2018-11-12 22:02:09","402200"
"ASHG4UDKXYBPK","cs_wg_mon_single_v1_pilot5","3CP1TO84PT2DOGYSY3T7JVF5TUF52M","92","0","MAY","1",,"0","1","1173",,,,,"0","2018-11-12 22:02:10","402201"
"A1RA8QOAPXYVCC","cs_wg_mon_single_v1_pilot5","35DR22AR5DLBBHEL89Q7UOBHS7P3X5","33","0","SEPTEMBER","2",,"0","2","6346",,,,,"1","2018-11-12 22:02:11","402202"
"A1KXESMB9K7504","cs_wg_mon_single_v1_pilot5","32N49TQG3GJJRD8BH94ZTBS2I6AAV6","86","0","APRIL","5",,"0","3","2355",,,,,"0","2018-11-12 22:02:11","402203"
"AOZNGVLQA42SZ","cs_wg_mon_single_v1_pilot5","3ZSANO2JCF8YVC8FYULMWPJMGISFSI","49","0","JULY","5",,"0","5","4497",,,,,"0","2018-11-12 22:02:13","402204"
"A3MGDESST43KVZ","cs_wg_mon_single_v1_pilot5","3LEP4MGT3G12G6DHW241I0610HQDB4","44","0","APRIL","9",,"0","9","4033",,,,,"0","2018-11-12 22:02:14","402205"
"A3DJT8WESP5RC7","cs_wg_mon_single_v1_pilot5","3YOH7BII098P3QHXT0HONPVYNI3KVU","27","0","JANUARY","5",,"0","5","5161",,,,,"1","2018-11-12 22:02:15","402206"
"A2Y6O5USSIVT08","cs_wg_mon_single_v1_pilot5","3LEIZ60CDJ0MVE3GQ0F2IMUE0ZX9ZP","74","0","FEBRUARY","9",,"0","9","4124",,,,,"0","2018-11-12 22:02:15","402207"
"A1KXESMB9K7504","cs_wg_mon_single_v1_pilot5","32N49TQG3GJJRD8BH94ZTBS2I6AAV6","87","0","SEPTEMBER","9",,"0","2","2578",,,,,"0","2018-11-12 22:02:15","402208"
"A1RA8QOAPXYVCC","cs_wg_mon_single_v1_pilot5","35DR22AR5DLBBHEL89Q7UOBHS7P3X5","34","0","SEPTEMBER","2",,"0","2","2966",,,,,"0","2018-11-12 22:02:16","402209"
"ASHG4UDKXYBPK","cs_wg_mon_single_v1_pilot5","3CP1TO84PT2DOGYSY3T7JVF5TUF52M","93","0","FEBRUARY","10",,"0","10","3755",,,,,"0","2018-11-12 22:02:16","402210"
"A1KXESMB9K7504","cs_wg_mon_single_v1_pilot5","32N49TQG3GJJRD8BH94ZTBS2I6AAV6","88","0","FEBRUARY","10",,"0","10","2155",,,,,"0","2018-11-12 22:02:19","402211"
"A3DJT8WESP5RC7","cs_wg_mon_single_v1_pilot5","3YOH7BII098P3QHXT0HONPVYNI3KVU","28","0","JANUARY","5",,"0","5","2006",,,,,"0","2018-11-12 22:02:19","402212"
"A2Y6O5USSIVT08","cs_wg_mon_single_v1_pilot5","3LEIZ60CDJ0MVE3GQ0F2IMUE0ZX9ZP","75","0","NOVEMBER","11",,"0","11","3030",,,,,"0","2018-11-12 22:02:20","402213"
"A3MGDESST43KVZ","cs_wg_mon_single_v1_pilot5","3LEP4MGT3G12G6DHW241I0610HQDB4","45","0","FEBRUARY","10",,"0","10","3552",,,,,"0","2018-11-12 22:02:20","402214"
"ASHG4UDKXYBPK","cs_wg_mon_single_v1_pilot5","3CP1TO84PT2DOGYSY3T7JVF5TUF52M","94","0","OCTOBER","12",,"0","12","2589",,,,,"0","2018-11-12 22:02:20","402215"
"AOZNGVLQA42SZ","cs_wg_mon_single_v1_pilot5","3ZSANO2JCF8YVC8FYULMWPJMGISFSI","50","0","SEPTEMBER","7",,"0","6","7786",,,,,"0","2018-11-12 22:02:22","402216"
"A1KXESMB9K7504","cs_wg_mon_single_v1_pilot5","32N49TQG3GJJRD8BH94ZTBS2I6AAV6","89","0","SEPTEMBER","9",,"0","9","2234",,,,,"0","2018-11-12 22:02:23","402217"
"A1RA8QOAPXYVCC","cs_wg_mon_single_v1_pilot5","35DR22AR5DLBBHEL89Q7UOBHS7P3X5","35","0","JANUARY","3",,"0","3","5248",,,,,"1","2018-11-12 22:02:23","402218"
"A3DJT8WESP5RC7","cs_wg_mon_single_v1_pilot5","3YOH7BII098P3QHXT0HONPVYNI3KVU","29","0","DECEMBER","12",,"0","12","2818",,,,,"1","2018-11-12 22:02:24","402219"
"A2Y6O5USSIVT08","cs_wg_mon_single_v1_pilot5","3LEIZ60CDJ0MVE3GQ0F2IMUE0ZX9ZP","76","0","DECEMBER","10",,"0","10","2662",,,,,"0","2018-11-12 22:02:24","402220"
"ASHG4UDKXYBPK","cs_wg_mon_single_v1_pilot5","3CP1TO84PT2DOGYSY3T7JVF5TUF52M","95","0","JANUARY","9",,"0","9","3989",,,,,"0","2018-11-12 22:02:26","402221"
"A1KXESMB9K7504","cs_wg_mon_single_v1_pilot5","32N49TQG3GJJRD8BH94ZTBS2I6AAV6","90","0","MAY","12",,"0","4","2813",,,,,"0","2018-11-12 22:02:27","402222"
"A3DJT8WESP5RC7","cs_wg_mon_single_v1_pilot5","3YOH7BII098P3QHXT0HONPVYNI3KVU","30","0","NOVEMBER","7",,"0","7","2882",,,,,"0","2018-11-12 22:02:29","402223"
"A3MGDESST43KVZ","cs_wg_mon_single_v1_pilot5","3LEP4MGT3G12G6DHW241I0610HQDB4","46","0","SEPTEMBER","8",,"0","8","3180",,,,,"0","2018-11-12 22:02:30","402224"
"ASHG4UDKXYBPK","cs_wg_mon_single_v1_pilot5","3CP1TO84PT2DOGYSY3T7JVF5TUF52M","96","0","JULY","7",,"0","7","2086",,,,,"0","2018-11-12 22:02:30","402225"
"AOZNGVLQA42SZ","cs_wg_mon_single_v1_pilot5","3ZSANO2JCF8YVC8FYULMWPJMGISFSI","51","0","MARCH","9",,"0","9","5878",,,,,"0","2018-11-12 22:02:31","402226"
"A1RA8QOAPXYVCC","cs_wg_mon_single_v1_pilot5","35DR22AR5DLBBHEL89Q7UOBHS7P3X5","36","0","NOVEMBER","5",,"0","5","5611",,,,,"1","2018-11-12 22:02:31","402227"
"A1KXESMB9K7504","cs_wg_mon_single_v1_pilot5","32N49TQG3GJJRD8BH94ZTBS2I6AAV6","91","0","MARCH","2",,"0","4","1697",,,,,"0","2018-11-12 22:02:33","402228"
"ASHG4UDKXYBPK","cs_wg_mon_single_v1_pilot5","3CP1TO84PT2DOGYSY3T7JVF5TUF52M","97","0","JUNE","2",,"0","2","1600",,,,,"0","2018-11-12 22:02:34","402229"
"A3DJT8WESP5RC7","cs_wg_mon_single_v1_pilot5","3YOH7BII098P3QHXT0HONPVYNI3KVU","31","0","FEBRUARY","3",,"0","3","3226",,,,,"1","2018-11-12 22:02:34","402230"
"A2Y6O5USSIVT08","cs_wg_mon_single_v1_pilot5","3LEIZ60CDJ0MVE3GQ0F2IMUE0ZX9ZP","77","0","JUNE","4",,"0","2","9399",,,,,"0","2018-11-12 22:02:35","402231"
"A1KXESMB9K7504","cs_wg_mon_single_v1_pilot5","32N49TQG3GJJRD8BH94ZTBS2I6AAV6","92","0","JANUARY","4",,"0","1","1639",,,,,"0","2018-11-12 22:02:36","402232"
"A3MGDESST43KVZ","cs_wg_mon_single_v1_pilot5","3LEP4MGT3G12G6DHW241I0610HQDB4","47","0","JULY","12",,"0","7","4517",,,,,"0","2018-11-12 22:02:37","402233"
"A1RA8QOAPXYVCC","cs_wg_mon_single_v1_pilot5","35DR22AR5DLBBHEL89Q7UOBHS7P3X5","37","0","APRIL","8",,"0","8","4537",,,,,"0","2018-11-12 22:02:38","402234"
"A1KXESMB9K7504","cs_wg_mon_single_v1_pilot5","32N49TQG3GJJRD8BH94ZTBS2I6AAV6","93","0","DECEMBER","1",,"0","1","1214",,,,,"0","2018-11-12 22:02:39","402235"
"A3DJT8WESP5RC7","cs_wg_mon_single_v1_pilot5","3YOH7BII098P3QHXT0HONPVYNI3KVU","32","0","DECEMBER","12",,"0","12","2058",,,,,"0","2018-11-12 22:02:39","402236"
"A2Y6O5USSIVT08","cs_wg_mon_single_v1_pilot5","3LEIZ60CDJ0MVE3GQ0F2IMUE0ZX9ZP","78","0","APRIL","6",,"0","6","3220",,,,,"0","2018-11-12 22:02:40","402237"
"ASHG4UDKXYBPK","cs_wg_mon_single_v1_pilot5","3CP1TO84PT2DOGYSY3T7JVF5TUF52M","98","0","JANUARY","9",,"0","9","4902",,,,,"0","2018-11-12 22:02:40","402238"
"A3MGDESST43KVZ","cs_wg_mon_single_v1_pilot5","3LEP4MGT3G12G6DHW241I0610HQDB4","48","0","OCTOBER","4",,"0","4","3259",,,,,"0","2018-11-12 22:02:43","402239"
"A3DJT8WESP5RC7","cs_wg_mon_single_v1_pilot5","3YOH7BII098P3QHXT0HONPVYNI3KVU","33","0","SEPTEMBER","10",,"0","10","2811",,,,,"0","2018-11-12 22:02:44","402240"
"A1KXESMB9K7504","cs_wg_mon_single_v1_pilot5","32N49TQG3GJJRD8BH94ZTBS2I6AAV6","94","0","SEPTEMBER","9",,"0","4","3898",,,,,"0","2018-11-12 22:02:44","402241"
"ASHG4UDKXYBPK","cs_wg_mon_single_v1_pilot5","3CP1TO84PT2DOGYSY3T7JVF5TUF52M","99","0","FEBRUARY","10",,"0","10","2843",,,,,"0","2018-11-12 22:02:45","402242"
"A2Y6O5USSIVT08","cs_wg_mon_single_v1_pilot5","3LEIZ60CDJ0MVE3GQ0F2IMUE0ZX9ZP","79","0","JANUARY","3",,"0","2","3741",,,,,"0","2018-11-12 22:02:45","402243"
"A1RA8QOAPXYVCC","cs_wg_mon_single_v1_pilot5","35DR22AR5DLBBHEL89Q7UOBHS7P3X5","38","0","JULY","10",,"0","10","5797",,,,,"1","2018-11-12 22:02:46","402244"
"A1KXESMB9K7504","cs_wg_mon_single_v1_pilot5","32N49TQG3GJJRD8BH94ZTBS2I6AAV6","95","0","FEBRUARY","10",,"0","10","1966",,,,,"0","2018-11-12 22:02:48","402245"
"A3MGDESST43KVZ","cs_wg_mon_single_v1_pilot5","3LEP4MGT3G12G6DHW241I0610HQDB4","49","0","DECEMBER","5",,"0","5","3744",,,,,"0","2018-11-12 22:02:48","402246"
"AOZNGVLQA42SZ","cs_wg_mon_single_v1_pilot5","3ZSANO2JCF8YVC8FYULMWPJMGISFSI","52","0","DECEMBER","2",,"0","2","15136",,,,,"0","2018-11-12 22:02:49","402247"
"A3DJT8WESP5RC7","cs_wg_mon_single_v1_pilot5","3YOH7BII098P3QHXT0HONPVYNI3KVU","34","0","JULY","2",,"0","2","3093",,,,,"1","2018-11-12 22:02:49","402248"
"ASHG4UDKXYBPK","cs_wg_mon_single_v1_pilot5","3CP1TO84PT2DOGYSY3T7JVF5TUF52M","100","0","JANUARY","9",,"0","9","2675",,,,,"0","2018-11-12 22:02:50","402249"
"A2Y6O5USSIVT08","cs_wg_mon_single_v1_pilot5","3LEIZ60CDJ0MVE3GQ0F2IMUE0ZX9ZP","80","0","OCTOBER","1",,"0","1","2702",,,,,"0","2018-11-12 22:02:51","402250"
"ASHG4UDKXYBPK","cs_wg_mon_single_v1_pilot5","3CP1TO84PT2DOGYSY3T7JVF5TUF52M","101","0","JUNE","2",,"0","2","1408",,,,,"0","2018-11-12 22:02:53","402251"
"A3DJT8WESP5RC7","cs_wg_mon_single_v1_pilot5","3YOH7BII098P3QHXT0HONPVYNI3KVU","35","0","JULY","2",,"0","2","2765",,,,,"0","2018-11-12 22:02:54","402252"
"A1KXESMB9K7504","cs_wg_mon_single_v1_pilot5","32N49TQG3GJJRD8BH94ZTBS2I6AAV6","96","0","NOVEMBER","3",,"0","4","4667",,,,,"0","2018-11-12 22:02:54","402253"
"A1RA8QOAPXYVCC","cs_wg_mon_single_v1_pilot5","35DR22AR5DLBBHEL89Q7UOBHS7P3X5","39","0","JANUARY","3",,"0","3","6391",,,,,"1","2018-11-12 22:02:54","402254"
"AOZNGVLQA42SZ","cs_wg_mon_single_v1_pilot5","3ZSANO2JCF8YVC8FYULMWPJMGISFSI","53","0","MAY","10",,"0","10","4411",,,,,"0","2018-11-12 22:02:55","402255"
"A2Y6O5USSIVT08","cs_wg_mon_single_v1_pilot5","3LEIZ60CDJ0MVE3GQ0F2IMUE0ZX9ZP","81","0","MARCH","2",,"0","6","3740",,,,,"0","2018-11-12 22:02:56","402256"
"A3MGDESST43KVZ","cs_wg_mon_single_v1_pilot5","3LEP4MGT3G12G6DHW241I0610HQDB4","50","0","NOVEMBER","6",,"0","6","6159",,,,,"0","2018-11-12 22:02:57","402257"
"A3DJT8WESP5RC7","cs_wg_mon_single_v1_pilot5","3YOH7BII098P3QHXT0HONPVYNI3KVU","36","0","DECEMBER","12",,"0","12","1786",,,,,"0","2018-11-12 22:02:57","402258"
"ASHG4UDKXYBPK","cs_wg_mon_single_v1_pilot5","3CP1TO84PT2DOGYSY3T7JVF5TUF52M","102","0","FEBRUARY","10",,"0","10","2171",,,,,"0","2018-11-12 22:02:57","402259"
"AOZNGVLQA42SZ","cs_wg_mon_single_v1_pilot5","3ZSANO2JCF8YVC8FYULMWPJMGISFSI","54","0","JANUARY","1",,"0","1","2295",,,,,"0","2018-11-12 22:03:00","402260"
"A1KXESMB9K7504","cs_wg_mon_single_v1_pilot5","32N49TQG3GJJRD8BH94ZTBS2I6AAV6","97","0","APRIL","5",,"0","7","3999",,,,,"0","2018-11-12 22:03:00","402261"
"A2Y6O5USSIVT08","cs_wg_mon_single_v1_pilot5","3LEIZ60CDJ0MVE3GQ0F2IMUE0ZX9ZP","82","0","MARCH","2",,"0","2","2253",,,,,"0","2018-11-12 22:03:00","402262"
"ASHG4UDKXYBPK","cs_wg_mon_single_v1_pilot5","3CP1TO84PT2DOGYSY3T7JVF5TUF52M","103","0","DECEMBER","11",,"0","11","2364",,,,,"0","2018-11-12 22:03:02","402263"
"A1RA8QOAPXYVCC","cs_wg_mon_single_v1_pilot5","35DR22AR5DLBBHEL89Q7UOBHS7P3X5","40","0","NOVEMBER","5",,"0","5","6259",,,,,"0","2018-11-12 22:03:03","402264"
"A3DJT8WESP5RC7","cs_wg_mon_single_v1_pilot5","3YOH7BII098P3QHXT0HONPVYNI3KVU","37","0","MAY","4",,"0","4","4480",,,,,"1","2018-11-12 22:03:03","402265"
"A1KXESMB9K7504","cs_wg_mon_single_v1_pilot5","32N49TQG3GJJRD8BH94ZTBS2I6AAV6","98","0","NOVEMBER","3",,"0","3","1969",,,,,"0","2018-11-12 22:03:04","402266"
"A3MGDESST43KVZ","cs_wg_mon_single_v1_pilot5","3LEP4MGT3G12G6DHW241I0610HQDB4","51","0","JANUARY","3",,"0","7","6802",,,,,"0","2018-11-12 22:03:06","402267"
"AOZNGVLQA42SZ","cs_wg_mon_single_v1_pilot5","3ZSANO2JCF8YVC8FYULMWPJMGISFSI","55","0","DECEMBER","2",,"0","2","5360",,,,,"0","2018-11-12 22:03:07","402268"
"A2Y6O5USSIVT08","cs_wg_mon_single_v1_pilot5","3LEIZ60CDJ0MVE3GQ0F2IMUE0ZX9ZP","83","0","AUGUST","12",,"0","12","4941",,,,,"0","2018-11-12 22:03:07","402269"
"A1KXESMB9K7504","cs_wg_mon_single_v1_pilot5","32N49TQG3GJJRD8BH94ZTBS2I6AAV6","99","0","OCTOBER","11",,"0","11","1922",,,,,"0","2018-11-12 22:03:07","402270"
"A3DJT8WESP5RC7","cs_wg_mon_single_v1_pilot5","3YOH7BII098P3QHXT0HONPVYNI3KVU","38","0","MARCH","1",,"0","3","3221",,,,,"0","2018-11-12 22:03:09","402271"
"A1RA8QOAPXYVCC","cs_wg_mon_single_v1_pilot5","35DR22AR5DLBBHEL89Q7UOBHS7P3X5","41","0","JANUARY","3",,"0","3","3867",,,,,"0","2018-11-12 22:03:09","402272"
"ASHG4UDKXYBPK","cs_wg_mon_single_v1_pilot5","3CP1TO84PT2DOGYSY3T7JVF5TUF52M","104","0","APRIL","6",,"0","6","5803",,,,,"0","2018-11-12 22:03:09","402273"
"A2Y6O5USSIVT08","cs_wg_mon_single_v1_pilot5","3LEIZ60CDJ0MVE3GQ0F2IMUE0ZX9ZP","84","0","SEPTEMBER","7",,"0","7","2268",,,,,"0","2018-11-12 22:03:11","402274"
"A3MGDESST43KVZ","cs_wg_mon_single_v1_pilot5","3LEP4MGT3G12G6DHW241I0610HQDB4","52","0","APRIL","9",,"0","9","3531",,,,,"0","2018-11-12 22:03:11","402275"
"A1KXESMB9K7504","cs_wg_mon_single_v1_pilot5","32N49TQG3GJJRD8BH94ZTBS2I6AAV6","100","0","NOVEMBER","3",,"0","3","1440",,,,,"0","2018-11-12 22:03:12","402276"
"ASHG4UDKXYBPK","cs_wg_mon_single_v1_pilot5","3CP1TO84PT2DOGYSY3T7JVF5TUF52M","105","0","MARCH","5",,"0","5","2483",,,,,"0","2018-11-12 22:03:13","402277"
"A3DJT8WESP5RC7","cs_wg_mon_single_v1_pilot5","3YOH7BII098P3QHXT0HONPVYNI3KVU","39","0","JULY","2",,"0","2","3678",,,,,"0","2018-11-12 22:03:14","402278"
"AOZNGVLQA42SZ","cs_wg_mon_single_v1_pilot5","3ZSANO2JCF8YVC8FYULMWPJMGISFSI","56","0","NOVEMBER","4",,"0","11","6595",,,,,"0","2018-11-12 22:03:15","402279"
"A2Y6O5USSIVT08","cs_wg_mon_single_v1_pilot5","3LEIZ60CDJ0MVE3GQ0F2IMUE0ZX9ZP","85","0","OCTOBER","1",,"0","1","2717",,,,,"0","2018-11-12 22:03:16","402280"
"A1KXESMB9K7504","cs_wg_mon_single_v1_pilot5","32N49TQG3GJJRD8BH94ZTBS2I6AAV6","101","0","AUGUST","8",,"0","8","2065",,,,,"0","2018-11-12 22:03:16","402281"
"A3MGDESST43KVZ","cs_wg_mon_single_v1_pilot5","3LEP4MGT3G12G6DHW241I0610HQDB4","53","0","OCTOBER","4",,"0","4","2797",,,,,"0","2018-11-12 22:03:16","402282"
"ASHG4UDKXYBPK","cs_wg_mon_single_v1_pilot5","3CP1TO84PT2DOGYSY3T7JVF5TUF52M","106","0","OCTOBER","12",,"0","12","2315",,,,,"0","2018-11-12 22:03:17","402283"
"A3DJT8WESP5RC7","cs_wg_mon_single_v1_pilot5","3YOH7BII098P3QHXT0HONPVYNI3KVU","40","0","APRIL","9",,"0","9","3416",,,,,"0","2018-11-12 22:03:20","402284"
"A2Y6O5USSIVT08","cs_wg_mon_single_v1_pilot5","3LEIZ60CDJ0MVE3GQ0F2IMUE0ZX9ZP","86","0","MAY","5",,"0","4","2645",,,,,"0","2018-11-12 22:03:20","402285"
"A1KXESMB9K7504","cs_wg_mon_single_v1_pilot5","32N49TQG3GJJRD8BH94ZTBS2I6AAV6","102","0","SEPTEMBER","9",,"0","9","2798",,,,,"0","2018-11-12 22:03:20","402286"
"ASHG4UDKXYBPK","cs_wg_mon_single_v1_pilot5","3CP1TO84PT2DOGYSY3T7JVF5TUF52M","107","0","JANUARY","9",,"0","9","1636",,,,,"0","2018-11-12 22:03:21","402287"
"A3MGDESST43KVZ","cs_wg_mon_single_v1_pilot5","3LEP4MGT3G12G6DHW241I0610HQDB4","54","0","JANUARY","3",,"0","3","3619",,,,,"0","2018-11-12 22:03:22","402288"
"A1RA8QOAPXYVCC","cs_wg_mon_single_v1_pilot5","35DR22AR5DLBBHEL89Q7UOBHS7P3X5","42","0","FEBRUARY","12",,"0","12","11523",,,,,"0","2018-11-12 22:03:23","402289"
"A3DJT8WESP5RC7","cs_wg_mon_single_v1_pilot5","3YOH7BII098P3QHXT0HONPVYNI3KVU","41","0","DECEMBER","12",,"0","12","1924",,,,,"0","2018-11-12 22:03:23","402290"
"ASHG4UDKXYBPK","cs_wg_mon_single_v1_pilot5","3CP1TO84PT2DOGYSY3T7JVF5TUF52M","108","0","MAY","1",,"0","1","1162",,,,,"0","2018-11-12 22:03:23","402291"
"A1KXESMB9K7504","cs_wg_mon_single_v1_pilot5","32N49TQG3GJJRD8BH94ZTBS2I6AAV6","103","0","DECEMBER","1",,"0","1","1744",,,,,"0","2018-11-12 22:03:24","402292"
"AOZNGVLQA42SZ","cs_wg_mon_single_v1_pilot5","3ZSANO2JCF8YVC8FYULMWPJMGISFSI","57","0","AUGUST","11",,"0","11","6147",,,,,"0","2018-11-12 22:03:24","402293"
"A2Y6O5USSIVT08","cs_wg_mon_single_v1_pilot5","3LEIZ60CDJ0MVE3GQ0F2IMUE0ZX9ZP","87","0","FEBRUARY","9",,"0","9","2813",,,,,"0","2018-11-12 22:03:24","402294"
"A1KXESMB9K7504","cs_wg_mon_single_v1_pilot5","32N49TQG3GJJRD8BH94ZTBS2I6AAV6","104","0","DECEMBER","1",,"0","1","1081",,,,,"0","2018-11-12 22:03:26","402295"
"A3MGDESST43KVZ","cs_wg_mon_single_v1_pilot5","3LEP4MGT3G12G6DHW241I0610HQDB4","55","0","FEBRUARY","10",,"0","10","3158",,,,,"0","2018-11-12 22:03:27","402296"
"ASHG4UDKXYBPK","cs_wg_mon_single_v1_pilot5","3CP1TO84PT2DOGYSY3T7JVF5TUF52M","109","0","MARCH","5",,"0","5","2785",,,,,"0","2018-11-12 22:03:28","402297"
"A2Y6O5USSIVT08","cs_wg_mon_single_v1_pilot5","3LEIZ60CDJ0MVE3GQ0F2IMUE0ZX9ZP","88","0","SEPTEMBER","7",,"0","7","2323",,,,,"0","2018-11-12 22:03:29","402298"
"AOZNGVLQA42SZ","cs_wg_mon_single_v1_pilot5","3ZSANO2JCF8YVC8FYULMWPJMGISFSI","58","0","SEPTEMBER","7",,"0","7","4303",,,,,"0","2018-11-12 22:03:31","402299"
"A1KXESMB9K7504","cs_wg_mon_single_v1_pilot5","32N49TQG3GJJRD8BH94ZTBS2I6AAV6","105","0","JULY","7",,"0","7","3217",,,,,"0","2018-11-12 22:03:32","402300"
"ASHG4UDKXYBPK","cs_wg_mon_single_v1_pilot5","3CP1TO84PT2DOGYSY3T7JVF5TUF52M","110","0","NOVEMBER","8",,"0","8","2967",,,,,"0","2018-11-12 22:03:33","402301"
"A3MGDESST43KVZ","cs_wg_mon_single_v1_pilot5","3LEP4MGT3G12G6DHW241I0610HQDB4","56","0","APRIL","9",,"0","9","3968",,,,,"0","2018-11-12 22:03:33","402302"
"A2Y6O5USSIVT08","cs_wg_mon_single_v1_pilot5","3LEIZ60CDJ0MVE3GQ0F2IMUE0ZX9ZP","89","0","FEBRUARY","9",,"0","9","3172",,,,,"0","2018-11-12 22:03:34","402303"
"A3DJT8WESP5RC7","cs_wg_mon_single_v1_pilot5","3YOH7BII098P3QHXT0HONPVYNI3KVU","42","0","OCTOBER","11",,"0","12","10435",,,,,"0","2018-11-12 22:03:36","402304"
"ASHG4UDKXYBPK","cs_wg_mon_single_v1_pilot5","3CP1TO84PT2DOGYSY3T7JVF5TUF52M","111","0","OCTOBER","12",,"0","12","2202",,,,,"0","2018-11-12 22:03:36","402305"
"A1RA8QOAPXYVCC","cs_wg_mon_single_v1_pilot5","35DR22AR5DLBBHEL89Q7UOBHS7P3X5","43","0","MAY","11",,"0","9","10366",,,,,"0","2018-11-12 22:03:36","402306"
"A1KXESMB9K7504","cs_wg_mon_single_v1_pilot5","32N49TQG3GJJRD8BH94ZTBS2I6AAV6","106","0","APRIL","5",,"0","5","3749",,,,,"0","2018-11-12 22:03:37","402307"
"A3MGDESST43KVZ","cs_wg_mon_single_v1_pilot5","3LEP4MGT3G12G6DHW241I0610HQDB4","57","0","JUNE","1",,"0","1","3282",,,,,"0","2018-11-12 22:03:38","402308"
"ASHG4UDKXYBPK","cs_wg_mon_single_v1_pilot5","3CP1TO84PT2DOGYSY3T7JVF5TUF52M","112","0","JULY","7",,"0","7","1240",,,,,"0","2018-11-12 22:03:39","402309"
"A3DJT8WESP5RC7","cs_wg_mon_single_v1_pilot5","3YOH7BII098P3QHXT0HONPVYNI3KVU","43","0","MAY","4",,"0","4","2744",,,,,"0","2018-11-12 22:03:40","402310"
"A1KXESMB9K7504","cs_wg_mon_single_v1_pilot5","32N49TQG3GJJRD8BH94ZTBS2I6AAV6","107","0","MARCH","2",,"0","4","1757",,,,,"0","2018-11-12 22:03:40","402311"
"A2Y6O5USSIVT08","cs_wg_mon_single_v1_pilot5","3LEIZ60CDJ0MVE3GQ0F2IMUE0ZX9ZP","90","0","JULY","8",,"0","6","4820",,,,,"0","2018-11-12 22:03:41","402312"
"ASHG4UDKXYBPK","cs_wg_mon_single_v1_pilot5","3CP1TO84PT2DOGYSY3T7JVF5TUF52M","113","0","APRIL","6",,"0","6","2605",,,,,"0","2018-11-12 22:03:43","402313"
"A3MGDESST43KVZ","cs_wg_mon_single_v1_pilot5","3LEP4MGT3G12G6DHW241I0610HQDB4","58","0","DECEMBER","5",,"0","5","3246",,,,,"0","2018-11-12 22:03:43","402314"
"AOZNGVLQA42SZ","cs_wg_mon_single_v1_pilot5","3ZSANO2JCF8YVC8FYULMWPJMGISFSI","59","0","JUNE","6",,"0","5","11076",,,,,"0","2018-11-12 22:03:44","402315"
"A3DJT8WESP5RC7","cs_wg_mon_single_v1_pilot5","3YOH7BII098P3QHXT0HONPVYNI3KVU","44","0","JULY","2",,"0","2","1899",,,,,"0","2018-11-12 22:03:44","402316"
"A1KXESMB9K7504","cs_wg_mon_single_v1_pilot5","32N49TQG3GJJRD8BH94ZTBS2I6AAV6","108","0","OCTOBER","11",,"0","11","2972",,,,,"0","2018-11-12 22:03:45","402317"
"A2Y6O5USSIVT08","cs_wg_mon_single_v1_pilot5","3LEIZ60CDJ0MVE3GQ0F2IMUE0ZX9ZP","91","0","NOVEMBER","11",,"0","11","3591",,,,,"0","2018-11-12 22:03:46","402318"
"A1RA8QOAPXYVCC","cs_wg_mon_single_v1_pilot5","35DR22AR5DLBBHEL89Q7UOBHS7P3X5","44","0","FEBRUARY","12",,"0","12","5759",,,,,"0","2018-11-12 22:03:46","402319"
"AOZNGVLQA42SZ","cs_wg_mon_single_v1_pilot5","3ZSANO2JCF8YVC8FYULMWPJMGISFSI","60","0","JUNE","6",,"0","6","2250",,,,,"0","2018-11-12 22:03:48","402320"
"ASHG4UDKXYBPK","cs_wg_mon_single_v1_pilot5","3CP1TO84PT2DOGYSY3T7JVF5TUF52M","114","0","NOVEMBER","8",,"0","8","2486",,,,,"0","2018-11-12 22:03:48","402321"
"A3MGDESST43KVZ","cs_wg_mon_single_v1_pilot5","3LEP4MGT3G12G6DHW241I0610HQDB4","59","0","AUGUST","7",,"0","7","3822",,,,,"0","2018-11-12 22:03:49","402322"
"A1KXESMB9K7504","cs_wg_mon_single_v1_pilot5","32N49TQG3GJJRD8BH94ZTBS2I6AAV6","109","0","APRIL","5",,"0","5","3410",,,,,"0","2018-11-12 22:03:50","402323"
"A2Y6O5USSIVT08","cs_wg_mon_single_v1_pilot5","3LEIZ60CDJ0MVE3GQ0F2IMUE0ZX9ZP","92","0","JULY","8",,"0","8","2435",,,,,"0","2018-11-12 22:03:50","402324"
"ASHG4UDKXYBPK","cs_wg_mon_single_v1_pilot5","3CP1TO84PT2DOGYSY3T7JVF5TUF52M","115","0","JUNE","2",,"0","2","2143",,,,,"0","2018-11-12 22:03:51","402325"
"A1KXESMB9K7504","cs_wg_mon_single_v1_pilot5","32N49TQG3GJJRD8BH94ZTBS2I6AAV6","110","0","JUNE","6",,"0","6","1498",,,,,"0","2018-11-12 22:03:53","402326"
"A2Y6O5USSIVT08","cs_wg_mon_single_v1_pilot5","3LEIZ60CDJ0MVE3GQ0F2IMUE0ZX9ZP","93","0","JULY","8",,"0","8","2413",,,,,"0","2018-11-12 22:03:54","402327"
"A1RA8QOAPXYVCC","cs_wg_mon_single_v1_pilot5","35DR22AR5DLBBHEL89Q7UOBHS7P3X5","45","0","MAY","11",,"0","11","6309",,,,,"0","2018-11-12 22:03:55","402328"
"A3MGDESST43KVZ","cs_wg_mon_single_v1_pilot5","3LEP4MGT3G12G6DHW241I0610HQDB4","60","0","NOVEMBER","6",,"0","5","4452",,,,,"0","2018-11-12 22:03:56","402329"
"AOZNGVLQA42SZ","cs_wg_mon_single_v1_pilot5","3ZSANO2JCF8YVC8FYULMWPJMGISFSI","61","0","NOVEMBER","4",,"0","4","5473",,,,,"0","2018-11-12 22:03:56","402330"
"ASHG4UDKXYBPK","cs_wg_mon_single_v1_pilot5","3CP1TO84PT2DOGYSY3T7JVF5TUF52M","116","0","SEPTEMBER","4",,"0","4","4396",,,,,"0","2018-11-12 22:03:58","402331"
"A1KXESMB9K7504","cs_wg_mon_single_v1_pilot5","32N49TQG3GJJRD8BH94ZTBS2I6AAV6","111","0","OCTOBER","11",,"0","11","3614",,,,,"0","2018-11-12 22:03:58","402332"
"A2Y6O5USSIVT08","cs_wg_mon_single_v1_pilot5","3LEIZ60CDJ0MVE3GQ0F2IMUE0ZX9ZP","94","0","APRIL","6",,"0","4","3956",,,,,"0","2018-11-12 22:04:00","402333"
"A3MGDESST43KVZ","cs_wg_mon_single_v1_pilot5","3LEP4MGT3G12G6DHW241I0610HQDB4","61","0","AUGUST","7",,"0","7","3662",,,,,"0","2018-11-12 22:04:01","402334"
"A1KXESMB9K7504","cs_wg_mon_single_v1_pilot5","32N49TQG3GJJRD8BH94ZTBS2I6AAV6","112","0","MARCH","2",,"0","2","2141",,,,,"0","2018-11-12 22:04:02","402335"
"AOZNGVLQA42SZ","cs_wg_mon_single_v1_pilot5","3ZSANO2JCF8YVC8FYULMWPJMGISFSI","62","0","SEPTEMBER","7",,"0","7","4079",,,,,"0","2018-11-12 22:04:02","402336"
"ASHG4UDKXYBPK","cs_wg_mon_single_v1_pilot5","3CP1TO84PT2DOGYSY3T7JVF5TUF52M","117","0","FEBRUARY","10",,"0","10","3605",,,,,"0","2018-11-12 22:04:03","402337"
"A2Y6O5USSIVT08","cs_wg_mon_single_v1_pilot5","3LEIZ60CDJ0MVE3GQ0F2IMUE0ZX9ZP","95","0","APRIL","6",,"0","6","2285",,,,,"0","2018-11-12 22:04:04","402338"
"A3MGDESST43KVZ","cs_wg_mon_single_v1_pilot5","3LEP4MGT3G12G6DHW241I0610HQDB4","62","0","OCTOBER","4",,"0","4","2512",,,,,"0","2018-11-12 22:04:06","402339"
"A1RA8QOAPXYVCC","cs_wg_mon_single_v1_pilot5","35DR22AR5DLBBHEL89Q7UOBHS7P3X5","46","0","AUGUST","6",,"0","5","7487",,,,,"0","2018-11-12 22:04:06","402340"
"A1KXESMB9K7504","cs_wg_mon_single_v1_pilot5","32N49TQG3GJJRD8BH94ZTBS2I6AAV6","113","0","JANUARY","4",,"0","7","3090",,,,,"0","2018-11-12 22:04:07","402341"
"ASHG4UDKXYBPK","cs_wg_mon_single_v1_pilot5","3CP1TO84PT2DOGYSY3T7JVF5TUF52M","118","0","NOVEMBER","8",,"0","8","2615",,,,,"0","2018-11-12 22:04:08","402342"
"AOZNGVLQA42SZ","cs_wg_mon_single_v1_pilot5","3ZSANO2JCF8YVC8FYULMWPJMGISFSI","63","0","OCTOBER","8",,"0","8","4283",,,,,"0","2018-11-12 22:04:09","402343"
"A2Y6O5USSIVT08","cs_wg_mon_single_v1_pilot5","3LEIZ60CDJ0MVE3GQ0F2IMUE0ZX9ZP","96","0","MAY","5",,"0","2","4885",,,,,"0","2018-11-12 22:04:11","402344"
"A3MGDESST43KVZ","cs_wg_mon_single_v1_pilot5","3LEP4MGT3G12G6DHW241I0610HQDB4","63","0","JUNE","1",,"0","1","3785",,,,,"0","2018-11-12 22:04:12","402345"
"A1RA8QOAPXYVCC","cs_wg_mon_single_v1_pilot5","35DR22AR5DLBBHEL89Q7UOBHS7P3X5","47","0","SEPTEMBER","2",,"0","2","3829",,,,,"0","2018-11-12 22:04:12","402346"
"AOZNGVLQA42SZ","cs_wg_mon_single_v1_pilot5","3ZSANO2JCF8YVC8FYULMWPJMGISFSI","64","0","JANUARY","1",,"0","1","2087",,,,,"0","2018-11-12 22:04:12","402347"
"A1KXESMB9K7504","cs_wg_mon_single_v1_pilot5","32N49TQG3GJJRD8BH94ZTBS2I6AAV6","114","0","SEPTEMBER","9",,"0","7","4075",,,,,"0","2018-11-12 22:04:12","402348"
"ASHG4UDKXYBPK","cs_wg_mon_single_v1_pilot5","3CP1TO84PT2DOGYSY3T7JVF5TUF52M","119","0","JANUARY","9",,"0","9","2733",,,,,"0","2018-11-12 22:04:12","402349"
"A1KXESMB9K7504","cs_wg_mon_single_v1_pilot5","32N49TQG3GJJRD8BH94ZTBS2I6AAV6","115","0","AUGUST","8",,"0","2","1755",,,,,"0","2018-11-12 22:04:16","402350"
"A2Y6O5USSIVT08","cs_wg_mon_single_v1_pilot5","3LEIZ60CDJ0MVE3GQ0F2IMUE0ZX9ZP","97","0","JULY","8",,"0","6","2333",,,,,"0","2018-11-12 22:04:16","402351"
"A3MGDESST43KVZ","cs_wg_mon_single_v1_pilot5","3LEP4MGT3G12G6DHW241I0610HQDB4","64","0","SEPTEMBER","8",,"0","8","3371",,,,,"0","2018-11-12 22:04:17","402352"
"A3DJT8WESP5RC7","cs_wg_mon_single_v1_pilot5","3YOH7BII098P3QHXT0HONPVYNI3KVU","45","0","MAY","4",,"0","4","16549",,,,,"0","2018-11-12 22:04:17","402353"
"A1RA8QOAPXYVCC","cs_wg_mon_single_v1_pilot5","35DR22AR5DLBBHEL89Q7UOBHS7P3X5","48","0","NOVEMBER","5",,"0","5","3343",,,,,"0","2018-11-12 22:04:18","402354"
"AOZNGVLQA42SZ","cs_wg_mon_single_v1_pilot5","3ZSANO2JCF8YVC8FYULMWPJMGISFSI","65","0","APRIL","3",,"0","3","3685",,,,,"0","2018-11-12 22:04:18","402355"
"A1KXESMB9K7504","cs_wg_mon_single_v1_pilot5","32N49TQG3GJJRD8BH94ZTBS2I6AAV6","116","0","APRIL","5",,"0","5","2339",,,,,"0","2018-11-12 22:04:20","402356"
"A2Y6O5USSIVT08","cs_wg_mon_single_v1_pilot5","3LEIZ60CDJ0MVE3GQ0F2IMUE0ZX9ZP","98","0","JANUARY","3",,"0","3","3413",,,,,"0","2018-11-12 22:04:21","402357"
"A3DJT8WESP5RC7","cs_wg_mon_single_v1_pilot5","3YOH7BII098P3QHXT0HONPVYNI3KVU","46","0","MARCH","1",,"0","1","3224",,,,,"0","2018-11-12 22:04:22","402358"
"AOZNGVLQA42SZ","cs_wg_mon_single_v1_pilot5","3ZSANO2JCF8YVC8FYULMWPJMGISFSI","66","0","APRIL","3",,"0","3","2546",,,,,"0","2018-11-12 22:04:22","402359"
"A1KXESMB9K7504","cs_wg_mon_single_v1_pilot5","32N49TQG3GJJRD8BH94ZTBS2I6AAV6","117","0","MAY","12",,"0","4","1580",,,,,"0","2018-11-12 22:04:23","402360"
"A3MGDESST43KVZ","cs_wg_mon_single_v1_pilot5","3LEP4MGT3G12G6DHW241I0610HQDB4","65","0","DECEMBER","5",,"0","12","4619",,,,,"0","2018-11-12 22:04:24","402361"
"A1RA8QOAPXYVCC","cs_wg_mon_single_v1_pilot5","35DR22AR5DLBBHEL89Q7UOBHS7P3X5","49","0","MAY","11",,"0","11","4168",,,,,"0","2018-11-12 22:04:24","402362"
"A2Y6O5USSIVT08","cs_wg_mon_single_v1_pilot5","3LEIZ60CDJ0MVE3GQ0F2IMUE0ZX9ZP","99","0","NOVEMBER","11",,"0","11","2429",,,,,"0","2018-11-12 22:04:26","402363"
"A1KXESMB9K7504","cs_wg_mon_single_v1_pilot5","32N49TQG3GJJRD8BH94ZTBS2I6AAV6","118","0","AUGUST","8",,"0","8","2046",,,,,"0","2018-11-12 22:04:27","402364"
"A2Y6O5USSIVT08","cs_wg_mon_single_v1_pilot5","3LEIZ60CDJ0MVE3GQ0F2IMUE0ZX9ZP","100","0","SEPTEMBER","7",,"0","7","2268",,,,,"0","2018-11-12 22:04:30","402365"
"A1KXESMB9K7504","cs_wg_mon_single_v1_pilot5","32N49TQG3GJJRD8BH94ZTBS2I6AAV6","119","0","JULY","7",,"0","7","1556",,,,,"0","2018-11-12 22:04:30","402366"
"A3MGDESST43KVZ","cs_wg_mon_single_v1_pilot5","3LEP4MGT3G12G6DHW241I0610HQDB4","66","0","SEPTEMBER","8",,"0","8","4519",,,,,"0","2018-11-12 22:04:30","402367"
"A1RA8QOAPXYVCC","cs_wg_mon_single_v1_pilot5","35DR22AR5DLBBHEL89Q7UOBHS7P3X5","50","0","JANUARY","3",,"0","3","3994",,,,,"0","2018-11-12 22:04:30","402368"
"A3DJT8WESP5RC7","cs_wg_mon_single_v1_pilot5","3YOH7BII098P3QHXT0HONPVYNI3KVU","47","0","SEPTEMBER","10",,"0","10","6464",,,,,"0","2018-11-12 22:04:31","402369"
"AOZNGVLQA42SZ","cs_wg_mon_single_v1_pilot5","3ZSANO2JCF8YVC8FYULMWPJMGISFSI","67","0","OCTOBER","8",,"0","8","6838",,,,,"0","2018-11-12 22:04:31","402370"
"AOZNGVLQA42SZ","cs_wg_mon_single_v1_pilot5","3ZSANO2JCF8YVC8FYULMWPJMGISFSI","68","0","DECEMBER","2",,"0","2","2912",,,,,"0","2018-11-12 22:04:36","402371"
"A3DJT8WESP5RC7","cs_wg_mon_single_v1_pilot5","3YOH7BII098P3QHXT0HONPVYNI3KVU","48","0","NOVEMBER","7",,"0","7","3626",,,,,"0","2018-11-12 22:04:36","402372"
"A3MGDESST43KVZ","cs_wg_mon_single_v1_pilot5","3LEP4MGT3G12G6DHW241I0610HQDB4","67","0","MARCH","11",,"0","11","4373",,,,,"0","2018-11-12 22:04:37","402373"
"A2Y6O5USSIVT08","cs_wg_mon_single_v1_pilot5","3LEIZ60CDJ0MVE3GQ0F2IMUE0ZX9ZP","101","0","JUNE","4",,"0","6","4941",,,,,"0","2018-11-12 22:04:37","402374"
"AOZNGVLQA42SZ","cs_wg_mon_single_v1_pilot5","3ZSANO2JCF8YVC8FYULMWPJMGISFSI","69","0","JUNE","6",,"0","6","3573",,,,,"0","2018-11-12 22:04:41","402375"
"A3DJT8WESP5RC7","cs_wg_mon_single_v1_pilot5","3YOH7BII098P3QHXT0HONPVYNI3KVU","49","0","JUNE","6",,"0","6","3077",,,,,"0","2018-11-12 22:04:41","402376"
"A3MGDESST43KVZ","cs_wg_mon_single_v1_pilot5","3LEP4MGT3G12G6DHW241I0610HQDB4","68","0","MAY","2",,"0","2","5183",,,,,"0","2018-11-12 22:04:44","402377"
"A3DJT8WESP5RC7","cs_wg_mon_single_v1_pilot5","3YOH7BII098P3QHXT0HONPVYNI3KVU","50","0","NOVEMBER","7",,"0","7","2422",,,,,"0","2018-11-12 22:04:46","402378"
"A2Y6O5USSIVT08","cs_wg_mon_single_v1_pilot5","3LEIZ60CDJ0MVE3GQ0F2IMUE0ZX9ZP","102","0","MARCH","2",,"0","2","10188",,,,,"0","2018-11-12 22:04:48","402379"
"A1RA8QOAPXYVCC","cs_wg_mon_single_v1_pilot5","35DR22AR5DLBBHEL89Q7UOBHS7P3X5","51","0","OCTOBER","1",,"0","5","16025",,,,,"0","2018-11-12 22:04:49","402380"
"AOZNGVLQA42SZ","cs_wg_mon_single_v1_pilot5","3ZSANO2JCF8YVC8FYULMWPJMGISFSI","70","0","MAY","10",,"0","10","6232",,,,,"0","2018-11-12 22:04:49","402381"
"A3MGDESST43KVZ","cs_wg_mon_single_v1_pilot5","3LEP4MGT3G12G6DHW241I0610HQDB4","69","0","NOVEMBER","6",,"0","6","3179",,,,,"0","2018-11-12 22:04:50","402382"
"A3DJT8WESP5RC7","cs_wg_mon_single_v1_pilot5","3YOH7BII098P3QHXT0HONPVYNI3KVU","51","0","OCTOBER","11",,"0","10","3794",,,,,"0","2018-11-12 22:04:52","402383"
"A3MGDESST43KVZ","cs_wg_mon_single_v1_pilot5","3LEP4MGT3G12G6DHW241I0610HQDB4","70","0","JULY","12",,"0","12","4123",,,,,"0","2018-11-12 22:04:56","402384"
"A3DJT8WESP5RC7","cs_wg_mon_single_v1_pilot5","3YOH7BII098P3QHXT0HONPVYNI3KVU","52","0","DECEMBER","12",,"0","12","2635",,,,,"0","2018-11-12 22:04:56","402385"
"A1RA8QOAPXYVCC","cs_wg_mon_single_v1_pilot5","35DR22AR5DLBBHEL89Q7UOBHS7P3X5","52","0","MAY","11",,"0","11","5686",,,,,"0","2018-11-12 22:04:57","402386"
"A2Y6O5USSIVT08","cs_wg_mon_single_v1_pilot5","3LEIZ60CDJ0MVE3GQ0F2IMUE0ZX9ZP","103","0","APRIL","6",,"0","4","7958",,,,,"0","2018-11-12 22:04:58","402387"
"A3DJT8WESP5RC7","cs_wg_mon_single_v1_pilot5","3YOH7BII098P3QHXT0HONPVYNI3KVU","53","0","AUGUST","8",,"0","8","2582",,,,,"0","2018-11-12 22:05:01","402388"
"A1RA8QOAPXYVCC","cs_wg_mon_single_v1_pilot5","35DR22AR5DLBBHEL89Q7UOBHS7P3X5","53","0","JULY","10",,"0","10","3327",,,,,"0","2018-11-12 22:05:02","402389"
"A2Y6O5USSIVT08","cs_wg_mon_single_v1_pilot5","3LEIZ60CDJ0MVE3GQ0F2IMUE0ZX9ZP","104","0","FEBRUARY","9",,"0","9","2621",,,,,"0","2018-11-12 22:05:03","402390"
"A3MGDESST43KVZ","cs_wg_mon_single_v1_pilot5","3LEP4MGT3G12G6DHW241I0610HQDB4","71","0","MARCH","11",,"0","11","8186",,,,,"0","2018-11-12 22:05:06","402391"
"A3DJT8WESP5RC7","cs_wg_mon_single_v1_pilot5","3YOH7BII098P3QHXT0HONPVYNI3KVU","54","0","SEPTEMBER","10",,"0","10","4445",,,,,"0","2018-11-12 22:05:07","402392"
"A2Y6O5USSIVT08","cs_wg_mon_single_v1_pilot5","3LEIZ60CDJ0MVE3GQ0F2IMUE0ZX9ZP","105","0","MARCH","2",,"0","6","4171",,,,,"0","2018-11-12 22:05:08","402393"
"A1RA8QOAPXYVCC","cs_wg_mon_single_v1_pilot5","35DR22AR5DLBBHEL89Q7UOBHS7P3X5","54","0","DECEMBER","9",,"0","8","6119",,,,,"0","2018-11-12 22:05:11","402394"
"A3MGDESST43KVZ","cs_wg_mon_single_v1_pilot5","3LEP4MGT3G12G6DHW241I0610HQDB4","72","0","NOVEMBER","6",,"0","6","3640",,,,,"0","2018-11-12 22:05:12","402395"
"A3DJT8WESP5RC7","cs_wg_mon_single_v1_pilot5","3YOH7BII098P3QHXT0HONPVYNI3KVU","55","0","APRIL","9",,"0","9","3349",,,,,"0","2018-11-12 22:05:12","402396"
"AOZNGVLQA42SZ","cs_wg_mon_single_v1_pilot5","3ZSANO2JCF8YVC8FYULMWPJMGISFSI","71","0","JULY","5",,"0","5","10103",,,,,"0","2018-11-12 22:05:13","402397"
"A2Y6O5USSIVT08","cs_wg_mon_single_v1_pilot5","3LEIZ60CDJ0MVE3GQ0F2IMUE0ZX9ZP","106","0","OCTOBER","1",,"0","1","2516",,,,,"0","2018-11-12 22:05:13","402398"
"A3MGDESST43KVZ","cs_wg_mon_single_v1_pilot5","3LEP4MGT3G12G6DHW241I0610HQDB4","73","0","JUNE","1",,"0","5","2796",,,,,"0","2018-11-12 22:05:17","402399"
"A1RA8QOAPXYVCC","cs_wg_mon_single_v1_pilot5","35DR22AR5DLBBHEL89Q7UOBHS7P3X5","55","0","AUGUST","6",,"0","6","3401",,,,,"0","2018-11-12 22:05:17","402400"
"AOZNGVLQA42SZ","cs_wg_mon_single_v1_pilot5","3ZSANO2JCF8YVC8FYULMWPJMGISFSI","72","0","MAY","10",,"0","10","5630",,,,,"0","2018-11-12 22:05:20","402401"
"A2Y6O5USSIVT08","cs_wg_mon_single_v1_pilot5","3LEIZ60CDJ0MVE3GQ0F2IMUE0ZX9ZP","107","0","JULY","8",,"0","6","7295",,,,,"0","2018-11-12 22:05:22","402402"
"A3DJT8WESP5RC7","cs_wg_mon_single_v1_pilot5","3YOH7BII098P3QHXT0HONPVYNI3KVU","56","0","AUGUST","8",,"0","8","7042",,,,,"0","2018-11-12 22:05:22","402403"
"A1RA8QOAPXYVCC","cs_wg_mon_single_v1_pilot5","35DR22AR5DLBBHEL89Q7UOBHS7P3X5","56","0","APRIL","8",,"0","8","3867",,,,,"0","2018-11-12 22:05:24","402404"
"A3MGDESST43KVZ","cs_wg_mon_single_v1_pilot5","3LEP4MGT3G12G6DHW241I0610HQDB4","74","0","APRIL","9",,"0","8","5836",,,,,"0","2018-11-12 22:05:25","402405"
"A3DJT8WESP5RC7","cs_wg_mon_single_v1_pilot5","3YOH7BII098P3QHXT0HONPVYNI3KVU","57","0","AUGUST","8",,"0","8","2606",,,,,"0","2018-11-12 22:05:26","402406"
"AOZNGVLQA42SZ","cs_wg_mon_single_v1_pilot5","3ZSANO2JCF8YVC8FYULMWPJMGISFSI","73","0","NOVEMBER","4",,"0","4","4420",,,,,"0","2018-11-12 22:05:26","402407"
"A2Y6O5USSIVT08","cs_wg_mon_single_v1_pilot5","3LEIZ60CDJ0MVE3GQ0F2IMUE0ZX9ZP","108","0","JUNE","4",,"0","4","2724",,,,,"0","2018-11-12 22:05:26","402408"
"A1RA8QOAPXYVCC","cs_wg_mon_single_v1_pilot5","35DR22AR5DLBBHEL89Q7UOBHS7P3X5","57","0","DECEMBER","9",,"0","9","4417",,,,,"0","2018-11-12 22:05:30","402409"
"A3MGDESST43KVZ","cs_wg_mon_single_v1_pilot5","3LEP4MGT3G12G6DHW241I0610HQDB4","75","0","JULY","12",,"0","1","4635",,,,,"0","2018-11-12 22:05:32","402410"
"AOZNGVLQA42SZ","cs_wg_mon_single_v1_pilot5","3ZSANO2JCF8YVC8FYULMWPJMGISFSI","74","0","JUNE","6",,"0","6","3907",,,,,"0","2018-11-12 22:05:32","402411"
"A3DJT8WESP5RC7","cs_wg_mon_single_v1_pilot5","3YOH7BII098P3QHXT0HONPVYNI3KVU","58","0","OCTOBER","11",,"0","11","4778",,,,,"0","2018-11-12 22:05:33","402412"
"A2Y6O5USSIVT08","cs_wg_mon_single_v1_pilot5","3LEIZ60CDJ0MVE3GQ0F2IMUE0ZX9ZP","109","0","APRIL","6",,"0","8","8060",,,,,"0","2018-11-12 22:05:36","402413"
"A3MGDESST43KVZ","cs_wg_mon_single_v1_pilot5","3LEP4MGT3G12G6DHW241I0610HQDB4","76","0","SEPTEMBER","8",,"0","8","3533",,,,,"0","2018-11-12 22:05:37","402414"
"A1RA8QOAPXYVCC","cs_wg_mon_single_v1_pilot5","35DR22AR5DLBBHEL89Q7UOBHS7P3X5","58","0","OCTOBER","1",,"0","3","4726",,,,,"0","2018-11-12 22:05:37","402415"
"A3DJT8WESP5RC7","cs_wg_mon_single_v1_pilot5","3YOH7BII098P3QHXT0HONPVYNI3KVU","59","0","APRIL","9",,"0","9","2817",,,,,"0","2018-11-12 22:05:38","402416"
"AOZNGVLQA42SZ","cs_wg_mon_single_v1_pilot5","3ZSANO2JCF8YVC8FYULMWPJMGISFSI","75","0","MARCH","9",,"0","9","5543",,,,,"0","2018-11-12 22:05:39","402417"
"A2Y6O5USSIVT08","cs_wg_mon_single_v1_pilot5","3LEIZ60CDJ0MVE3GQ0F2IMUE0ZX9ZP","110","0","FEBRUARY","9",,"0","9","2598",,,,,"0","2018-11-12 22:05:40","402418"
"A3MGDESST43KVZ","cs_wg_mon_single_v1_pilot5","3LEP4MGT3G12G6DHW241I0610HQDB4","77","0","NOVEMBER","6",,"0","6","3326",,,,,"0","2018-11-12 22:05:42","402419"
"A3DJT8WESP5RC7","cs_wg_mon_single_v1_pilot5","3YOH7BII098P3QHXT0HONPVYNI3KVU","60","0","JANUARY","5",,"0","3","3556",,,,,"0","2018-11-12 22:05:44","402420"
"A1RA8QOAPXYVCC","cs_wg_mon_single_v1_pilot5","35DR22AR5DLBBHEL89Q7UOBHS7P3X5","59","0","MAY","11",,"0","11","5404",,,,,"0","2018-11-12 22:05:44","402421"
"A2Y6O5USSIVT08","cs_wg_mon_single_v1_pilot5","3LEIZ60CDJ0MVE3GQ0F2IMUE0ZX9ZP","111","0","AUGUST","12",,"0","12","4093",,,,,"0","2018-11-12 22:05:46","402422"
"A3MGDESST43KVZ","cs_wg_mon_single_v1_pilot5","3LEP4MGT3G12G6DHW241I0610HQDB4","78","0","AUGUST","7",,"0","7","3999",,,,,"0","2018-11-12 22:05:48","402423"
"A3DJT8WESP5RC7","cs_wg_mon_single_v1_pilot5","3YOH7BII098P3QHXT0HONPVYNI3KVU","61","0","AUGUST","8",,"0","8","2535",,,,,"0","2018-11-12 22:05:48","402424"
"AOZNGVLQA42SZ","cs_wg_mon_single_v1_pilot5","3ZSANO2JCF8YVC8FYULMWPJMGISFSI","76","0","JULY","5",,"0","5","7731",,,,,"0","2018-11-12 22:05:49","402425"
"A1RA8QOAPXYVCC","cs_wg_mon_single_v1_pilot5","35DR22AR5DLBBHEL89Q7UOBHS7P3X5","60","0","JULY","10",,"0","10","3233",,,,,"0","2018-11-12 22:05:50","402426"
"A2Y6O5USSIVT08","cs_wg_mon_single_v1_pilot5","3LEIZ60CDJ0MVE3GQ0F2IMUE0ZX9ZP","112","0","JUNE","4",,"0","4","2533",,,,,"0","2018-11-12 22:05:51","402427"
"A3MGDESST43KVZ","cs_wg_mon_single_v1_pilot5","3LEP4MGT3G12G6DHW241I0610HQDB4","79","0","NOVEMBER","6",,"0","6","3537",,,,,"0","2018-11-12 22:05:53","402428"
"A2Y6O5USSIVT08","cs_wg_mon_single_v1_pilot5","3LEIZ60CDJ0MVE3GQ0F2IMUE0ZX9ZP","113","0","JUNE","4",,"0","4","2694",,,,,"0","2018-11-12 22:05:55","402429"
"A1RA8QOAPXYVCC","cs_wg_mon_single_v1_pilot5","35DR22AR5DLBBHEL89Q7UOBHS7P3X5","61","0","DECEMBER","9",,"0","9","3733",,,,,"0","2018-11-12 22:05:56","402430"
"A3MGDESST43KVZ","cs_wg_mon_single_v1_pilot5","3LEP4MGT3G12G6DHW241I0610HQDB4","80","0","JANUARY","3",,"0","3","3630",,,,,"0","2018-11-12 22:05:59","402431"
"A3DJT8WESP5RC7","cs_wg_mon_single_v1_pilot5","3YOH7BII098P3QHXT0HONPVYNI3KVU","62","0","JANUARY","5",,"0","5","9330",,,,,"0","2018-11-12 22:06:00","402432"
"A2Y6O5USSIVT08","cs_wg_mon_single_v1_pilot5","3LEIZ60CDJ0MVE3GQ0F2IMUE0ZX9ZP","114","0","DECEMBER","10",,"0","10","6045",,,,,"0","2018-11-12 22:06:03","402433"
