"subject","version","assignmentId","trial","trial_type","word","value","alt","choice","rt","resp","resp2","stamp","id"
"ABKQ4J2P3CADD","cs_wg_full_v1_pilot1","3PJ71Z61R43P0II8IP6AQSA1KQB91Y","0","0","KIDNEY","8","7","1","4382","kidney","8","2018-06-05 19:58:09","206005"
"ABKQ4J2P3CADD","cs_wg_full_v1_pilot1","3PJ71Z61R43P0II8IP6AQSA1KQB91Y","1","0","PARENT","16","7","0","2146","parent","16","2018-06-05 19:58:24","206006"
"ABKQ4J2P3CADD","cs_wg_full_v1_pilot1","3PJ71Z61R43P0II8IP6AQSA1KQB91Y","2","0","BIKINI","8","7","1","2826","bikini","8","2018-06-05 19:58:40","206007"
"A3DAQQDUWAZ6LA","cs_wg_full_v1_pilot1","35DR22AR5DLBBHEL89Q7UOBGPDG3X3","0","0","CABINET","5","7","0","14649","To continue to the next trial, ","2","2018-06-05 19:58:40","206008"
"ABKQ4J2P3CADD","cs_wg_full_v1_pilot1","3PJ71Z61R43P0II8IP6AQSA1KQB91Y","3","0","SCIENCE","5","7","0","1941","science","5","2018-06-05 19:58:49","206009"
"A3HZ8JZAJB124J","cs_wg_full_v1_pilot1","3PDJHANYK5HDMA1OM76JY5Z6BEZ6HJ","0","0","HEAVEN","3","7","0","4722","heaven","3","2018-06-05 19:58:52","206010"
"ABKQ4J2P3CADD","cs_wg_full_v1_pilot1","3PJ71Z61R43P0II8IP6AQSA1KQB91Y","4","0","SHIVER","3","7","0","1372","shiver","3","2018-06-05 19:58:58","206011"
"A3DAQQDUWAZ6LA","cs_wg_full_v1_pilot1","35DR22AR5DLBBHEL89Q7UOBGPDG3X3","1","0","GIRAFFE","17","7","0","2596","To continue to th","17","2018-06-05 19:59:01","206012"
"A3HZ8JZAJB124J","cs_wg_full_v1_pilot1","3PDJHANYK5HDMA1OM76JY5Z6BEZ6HJ","1","0","EARDRUM","6","7","0","3788","eardrum","6","2018-06-05 19:59:06","206013"
"A3DAQQDUWAZ6LA","cs_wg_full_v1_pilot1","35DR22AR5DLBBHEL89Q7UOBGPDG3X3","2","0","CASINO","8","7","0","5220","CASINO","8","2018-06-05 19:59:14","206014"
"A1NKBXOTZAI1YK","cs_wg_full_v1_pilot1","35K3O9HUABEXLT3XXZ1H78F6CXAEFE","0","0","GIRAFFE","17","7","0","5201","giraffe","17","2018-06-05 19:59:16","206015"
"ABKQ4J2P3CADD","cs_wg_full_v1_pilot1","3PJ71Z61R43P0II8IP6AQSA1KQB91Y","5","0","BULLET","5","7","0","9270","bullet","5","2018-06-05 19:59:17","206016"
"A3HZ8JZAJB124J","cs_wg_full_v1_pilot1","3PDJHANYK5HDMA1OM76JY5Z6BEZ6HJ","2","0","PRIEST","16","7","0","2536","priest","16","2018-06-05 19:59:23","206017"
"ABKQ4J2P3CADD","cs_wg_full_v1_pilot1","3PJ71Z61R43P0II8IP6AQSA1KQB91Y","6","0","CHURCH","6","7","1","1654","church","6","2018-06-05 19:59:24","206018"
"A1NKBXOTZAI1YK","cs_wg_full_v1_pilot1","35K3O9HUABEXLT3XXZ1H78F6CXAEFE","1","0","PEANUT","5","7","0","2114","peanut","5","2018-06-05 19:59:29","206019"
"A3DAQQDUWAZ6LA","cs_wg_full_v1_pilot1","35DR22AR5DLBBHEL89Q7UOBGPDG3X3","3","0","CASINO","8","7","0","3575","CASINO","7","2018-06-05 19:59:29","206020"
"ABKQ4J2P3CADD","cs_wg_full_v1_pilot1","3PJ71Z61R43P0II8IP6AQSA1KQB91Y","7","0","BULLET","5","7","1","3465","bullet","5","2018-06-05 19:59:34","206021"
"A3HZ8JZAJB124J","cs_wg_full_v1_pilot1","3PDJHANYK5HDMA1OM76JY5Z6BEZ6HJ","3","0","COFFIN","17","7","0","2821","coffin","17","2018-06-05 19:59:37","206022"
"A1NKBXOTZAI1YK","cs_wg_full_v1_pilot1","35K3O9HUABEXLT3XXZ1H78F6CXAEFE","2","0","PEANUT","5","7","1","2593","peanut","5","2018-06-05 19:59:41","206023"
"A3DAQQDUWAZ6LA","cs_wg_full_v1_pilot1","35DR22AR5DLBBHEL89Q7UOBGPDG3X3","4","0","GIRAFFE","17","7","0","1709","GIRAFFE","16","2018-06-05 19:59:43","206024"
"ABKQ4J2P3CADD","cs_wg_full_v1_pilot1","3PJ71Z61R43P0II8IP6AQSA1KQB91Y","8","0","SUNBURN","5","7","0","2117","sunburn","5","2018-06-05 19:59:52","206025"
"A3HZ8JZAJB124J","cs_wg_full_v1_pilot1","3PDJHANYK5HDMA1OM76JY5Z6BEZ6HJ","4","0","PRIEST","16","7","0","4300","priest","16","2018-06-05 19:59:53","206026"
"A1NKBXOTZAI1YK","cs_wg_full_v1_pilot1","35K3O9HUABEXLT3XXZ1H78F6CXAEFE","3","0","SMOKER","9","7","0","4073","smoker","9","2018-06-05 19:59:57","206027"
"A3DAQQDUWAZ6LA","cs_wg_full_v1_pilot1","35DR22AR5DLBBHEL89Q7UOBGPDG3X3","5","0","SILVER","3","7","0","2549","next trial","3","2018-06-05 20:00:01","206028"
"ABKQ4J2P3CADD","cs_wg_full_v1_pilot1","3PJ71Z61R43P0II8IP6AQSA1KQB91Y","9","0","TURKEY","9","7","0","1530","turkey","9","2018-06-05 20:00:04","206029"
"A3DAQQDUWAZ6LA","cs_wg_full_v1_pilot1","35DR22AR5DLBBHEL89Q7UOBGPDG3X3","6","0","BASKET","3","7","0","1582"," next trial,","2
2","2018-06-05 20:00:14","206030"
"A1NKBXOTZAI1YK","cs_wg_full_v1_pilot1","35K3O9HUABEXLT3XXZ1H78F6CXAEFE","4","0","ADDICT","8","7","0","5971","addict","8","2018-06-05 20:00:15","206031"
"ABKQ4J2P3CADD","cs_wg_full_v1_pilot1","3PJ71Z61R43P0II8IP6AQSA1KQB91Y","10","0","SCIENCE","5","7","1","4956","science","5","2018-06-05 20:00:24","206032"
"A1NKBXOTZAI1YK","cs_wg_full_v1_pilot1","35K3O9HUABEXLT3XXZ1H78F6CXAEFE","5","0","SMOKER","9","7","0","4787","smoker","9","2018-06-05 20:00:28","206033"
"A3DAQQDUWAZ6LA","cs_wg_full_v1_pilot1","35DR22AR5DLBBHEL89Q7UOBGPDG3X3","7","0","CABINET","5","7","0","4373","CABINET","5","2018-06-05 20:00:28","206034"
"A3DAQQDUWAZ6LA","cs_wg_full_v1_pilot1","35DR22AR5DLBBHEL89Q7UOBGPDG3X3","8","0","GIRAFFE","17","7","0","2981","GIRAFFE","17","2018-06-05 20:00:39","206035"
"ABKQ4J2P3CADD","cs_wg_full_v1_pilot1","3PJ71Z61R43P0II8IP6AQSA1KQB91Y","11","0","CRICKET","3","7","0","5955","cricket","3","2018-06-05 20:00:39","206036"
"A1NKBXOTZAI1YK","cs_wg_full_v1_pilot1","35K3O9HUABEXLT3XXZ1H78F6CXAEFE","6","0","BUDGET","12","7","0","1118","budget ","12
","2018-06-05 20:00:40","206037"
"ASDOYPL3T2CFL","cs_wg_full_v1_pilot1","3H7XDTSHKCSXGTLJTJ15BZMIKGEWGA","0","0","HEAVEN","3","7","1","10380","Heaven","3","2018-06-05 20:00:43","206038"
"ABKQ4J2P3CADD","cs_wg_full_v1_pilot1","3PJ71Z61R43P0II8IP6AQSA1KQB91Y","12","0","CRICKET","3","7","1","2369","cricket","3","2018-06-05 20:00:49","206039"
"A1NKBXOTZAI1YK","cs_wg_full_v1_pilot1","35K3O9HUABEXLT3XXZ1H78F6CXAEFE","7","0","GOGGLES","5","7","0","1563","goggles","5","2018-06-05 20:00:52","206040"
"ABKQ4J2P3CADD","cs_wg_full_v1_pilot1","3PJ71Z61R43P0II8IP6AQSA1KQB91Y","13","0","PARENT","16","7","0","3267","parent","16","2018-06-05 20:00:58","206041"
"A3DAQQDUWAZ6LA","cs_wg_full_v1_pilot1","35DR22AR5DLBBHEL89Q7UOBGPDG3X3","9","0","LIQUID","5","7","0","1012","retype","15","2018-06-05 20:01:02","206042"
"A1NKBXOTZAI1YK","cs_wg_full_v1_pilot1","35K3O9HUABEXLT3XXZ1H78F6CXAEFE","8","0","BUDGET","12","7","0","4121","budget","12","2018-06-05 20:01:03","206043"
"ABKQ4J2P3CADD","cs_wg_full_v1_pilot1","3PJ71Z61R43P0II8IP6AQSA1KQB91Y","14","0","COFFEE","17","7","0","2910","coffee","17","2018-06-05 20:01:10","206044"
"ASDOYPL3T2CFL","cs_wg_full_v1_pilot1","3H7XDTSHKCSXGTLJTJ15BZMIKGEWGA","1","0","EARDRUM","6","7","1","8349","eardrum","6","2018-06-05 20:01:10","206045"
"A3DAQQDUWAZ6LA","cs_wg_full_v1_pilot1","35DR22AR5DLBBHEL89Q7UOBGPDG3X3","10","0","GIRAFFE","17","7","0","4813","GIRAFFE","16","2018-06-05 20:01:15","206046"
"A014297063OPPUEBTOLM","cs_wg_full_v1_pilot1","3O6CYIULED2GLBMEDOQMFEN9TOTWUA","0","0","BAPTISM","8","7","1","7009","Baptism","8","2018-06-05 20:01:16","206047"
"ABKQ4J2P3CADD","cs_wg_full_v1_pilot1","3PJ71Z61R43P0II8IP6AQSA1KQB91Y","15","0","COFFEE","17","7","0","1557","coffee","17","2018-06-05 20:01:17","206048"
"A1NKBXOTZAI1YK","cs_wg_full_v1_pilot1","35K3O9HUABEXLT3XXZ1H78F6CXAEFE","9","0","GOGGLES","5","7","1","5617","goggles","5","2018-06-05 20:01:18","206049"
"ABKQ4J2P3CADD","cs_wg_full_v1_pilot1","3PJ71Z61R43P0II8IP6AQSA1KQB91Y","16","0","SUNBURN","5","7","1","3794","sunburn","5","2018-06-05 20:01:29","206050"
"ASDOYPL3T2CFL","cs_wg_full_v1_pilot1","3H7XDTSHKCSXGTLJTJ15BZMIKGEWGA","2","0","EARDRUM","6","7","1","5447","eardrum","6","2018-06-05 20:01:29","206051"
"A1NKBXOTZAI1YK","cs_wg_full_v1_pilot1","35K3O9HUABEXLT3XXZ1H78F6CXAEFE","10","0","GOGGLES","5","7","1","3291","GOGGLES","5","2018-06-05 20:01:30","206052"
"A3DAQQDUWAZ6LA","cs_wg_full_v1_pilot1","35DR22AR5DLBBHEL89Q7UOBGPDG3X3","11","0","CABINET","5","7","0","6989","CABINET","7","2018-06-05 20:01:32","206053"
"ABKQ4J2P3CADD","cs_wg_full_v1_pilot1","3PJ71Z61R43P0II8IP6AQSA1KQB91Y","17","0","BULLET","5","7","1","2916","bullet","5","2018-06-05 20:01:38","206054"
"A1NKBXOTZAI1YK","cs_wg_full_v1_pilot1","35K3O9HUABEXLT3XXZ1H78F6CXAEFE","11","0","ADDICT","8","7","0","4783","ADDICT","8","2018-06-05 20:01:41","206055"
"A014297063OPPUEBTOLM","cs_wg_full_v1_pilot1","3O6CYIULED2GLBMEDOQMFEN9TOTWUA","1","0","MAGNET","8","7","0","5107","Magnet","8","2018-06-05 20:01:44","206056"
"ASDOYPL3T2CFL","cs_wg_full_v1_pilot1","3H7XDTSHKCSXGTLJTJ15BZMIKGEWGA","3","0","BULLET","5","7","1","3243","bullet","5","2018-06-05 20:01:46","206057"
"ABKQ4J2P3CADD","cs_wg_full_v1_pilot1","3PJ71Z61R43P0II8IP6AQSA1KQB91Y","18","0","COFFEE","17","7","0","1820","coffee","17","2018-06-05 20:01:46","206058"
"A3DAQQDUWAZ6LA","cs_wg_full_v1_pilot1","35DR22AR5DLBBHEL89Q7UOBGPDG3X3","12","0","CASINO","8","7","0","3991","CASINO","7","2018-06-05 20:01:47","206059"
"A1NKBXOTZAI1YK","cs_wg_full_v1_pilot1","35K3O9HUABEXLT3XXZ1H78F6CXAEFE","12","0","CRICKET","3","7","0","2760","CRICKET","3","2018-06-05 20:01:50","206060"
"ABKQ4J2P3CADD","cs_wg_full_v1_pilot1","3PJ71Z61R43P0II8IP6AQSA1KQB91Y","19","0","KIDNEY","8","7","0","2301","kidney","8","2018-06-05 20:01:55","206061"
"A3DAQQDUWAZ6LA","cs_wg_full_v1_pilot1","35DR22AR5DLBBHEL89Q7UOBGPDG3X3","13","0","BULLET","5","7","0","5742","BULLET","6","2018-06-05 20:02:00","206062"
"A1NKBXOTZAI1YK","cs_wg_full_v1_pilot1","35K3O9HUABEXLT3XXZ1H78F6CXAEFE","13","0","BEAVER","3","7","0","4372","beaver","3","2018-06-05 20:02:02","206063"
"A014297063OPPUEBTOLM","cs_wg_full_v1_pilot1","3O6CYIULED2GLBMEDOQMFEN9TOTWUA","2","0","ROYALTY","5","7","0","5050","Royalty","5","2018-06-05 20:02:02","206064"
"ABKQ4J2P3CADD","cs_wg_full_v1_pilot1","3PJ71Z61R43P0II8IP6AQSA1KQB91Y","20","0","PARENT","16","7","0","2715","parent","16","2018-06-05 20:02:04","206065"
"ASDOYPL3T2CFL","cs_wg_full_v1_pilot1","3H7XDTSHKCSXGTLJTJ15BZMIKGEWGA","4","0","FIREFLY","17","7","1","2799","firefly","17","2018-06-05 20:02:08","206066"
"ABKQ4J2P3CADD","cs_wg_full_v1_pilot1","3PJ71Z61R43P0II8IP6AQSA1KQB91Y","21","0","KIDNEY","8","7","0","1868","kidney","8","2018-06-05 20:02:12","206067"
"A3DAQQDUWAZ6LA","cs_wg_full_v1_pilot1","35DR22AR5DLBBHEL89Q7UOBGPDG3X3","14","0","EARDRUM","6","7","0","1437","EARDRUM ","8","2018-06-05 20:02:13","206068"
"A1NKBXOTZAI1YK","cs_wg_full_v1_pilot1","35K3O9HUABEXLT3XXZ1H78F6CXAEFE","14","0","BUDGET","12","7","0","4916","BUDGET ","12","2018-06-05 20:02:14","206069"
"A3HZ8JZAJB124J","cs_wg_full_v1_pilot1","3PDJHANYK5HDMA1OM76JY5Z6BEZ6HJ","5","0","PLANET","8","7","0","2135","planet","8","2018-06-05 20:02:18","206070"
"ABKQ4J2P3CADD","cs_wg_full_v1_pilot1","3PJ71Z61R43P0II8IP6AQSA1KQB91Y","22","0","TURKEY","9","7","0","2318","turkey","9","2018-06-05 20:02:19","206071"
"A014297063OPPUEBTOLM","cs_wg_full_v1_pilot1","3O6CYIULED2GLBMEDOQMFEN9TOTWUA","3","0","MONKEY","9","7","0","4664","Monkey","9","2018-06-05 20:02:22","206072"
"A1NKBXOTZAI1YK","cs_wg_full_v1_pilot1","35K3O9HUABEXLT3XXZ1H78F6CXAEFE","15","0","BANQUET","5","7","0","1810","BANQUET","5","2018-06-05 20:02:25","206073"
"ASDOYPL3T2CFL","cs_wg_full_v1_pilot1","3H7XDTSHKCSXGTLJTJ15BZMIKGEWGA","5","0","CHIMNEY","8","7","0","6971","chimney","8","2018-06-05 20:02:29","206074"
"ABKQ4J2P3CADD","cs_wg_full_v1_pilot1","3PJ71Z61R43P0II8IP6AQSA1KQB91Y","23","0","SUNBURN","5","7","1","3436","sunburn","5","2018-06-05 20:02:29","206075"
"A3DAQQDUWAZ6LA","cs_wg_full_v1_pilot1","35DR22AR5DLBBHEL89Q7UOBGPDG3X3","15","0","SPONGE","8","7","0","8475","SPONGE","7
7","2018-06-05 20:02:31","206076"
"A3HZ8JZAJB124J","cs_wg_full_v1_pilot1","3PDJHANYK5HDMA1OM76JY5Z6BEZ6HJ","6","0","COFFIN","17","7","0","3778","coffin","17","2018-06-05 20:02:35","206077"
"ABKQ4J2P3CADD","cs_wg_full_v1_pilot1","3PJ71Z61R43P0II8IP6AQSA1KQB91Y","24","0","BIKINI","8","7","0","2458","bikini","8","2018-06-05 20:02:37","206078"
"ASDOYPL3T2CFL","cs_wg_full_v1_pilot1","3H7XDTSHKCSXGTLJTJ15BZMIKGEWGA","6","0","HEAVEN","3","7","1","3393","heaven","3","2018-06-05 20:02:43","206079"
"A1NKBXOTZAI1YK","cs_wg_full_v1_pilot1","35K3O9HUABEXLT3XXZ1H78F6CXAEFE","16","0","BATTERY","16","7","0","1610","BATTERY ","16","2018-06-05 20:02:44","206080"
"A014297063OPPUEBTOLM","cs_wg_full_v1_pilot1","3O6CYIULED2GLBMEDOQMFEN9TOTWUA","4","0","CRICKET","3","7","1","9465","cricket","3","2018-06-05 20:02:44","206081"
"A3DAQQDUWAZ6LA","cs_wg_full_v1_pilot1","35DR22AR5DLBBHEL89Q7UOBGPDG3X3","16","0","CABINET","5","7","0","1013","cabinte","5","2018-06-05 20:02:47","206082"
"ABKQ4J2P3CADD","cs_wg_full_v1_pilot1","3PJ71Z61R43P0II8IP6AQSA1KQB91Y","25","0","CHURCH","6","7","1","3580","church","6","2018-06-05 20:02:53","206083"
"ASDOYPL3T2CFL","cs_wg_full_v1_pilot1","3H7XDTSHKCSXGTLJTJ15BZMIKGEWGA","7","0","BULLET","5","7","1","2813","bullet","5","2018-06-05 20:02:57","206084"
"A1NKBXOTZAI1YK","cs_wg_full_v1_pilot1","35K3O9HUABEXLT3XXZ1H78F6CXAEFE","17","0","CANNON","8","7","0","2824","CANNON ","8","2018-06-05 20:02:59","206085"
"ABKQ4J2P3CADD","cs_wg_full_v1_pilot1","3PJ71Z61R43P0II8IP6AQSA1KQB91Y","26","0","TURKEY","9","7","0","1996","turkey","9","2018-06-05 20:03:01","206086"
"A014297063OPPUEBTOLM","cs_wg_full_v1_pilot1","3O6CYIULED2GLBMEDOQMFEN9TOTWUA","5","0","ROYALTY","5","7","1","4894","Royalty","5","2018-06-05 20:03:04","206087"
"ABKQ4J2P3CADD","cs_wg_full_v1_pilot1","3PJ71Z61R43P0II8IP6AQSA1KQB91Y","27","0","PARENT","16","7","0","1291","parent","16","2018-06-05 20:03:08","206088"
"ABKQ4J2P3CADD","cs_wg_full_v1_pilot1","3PJ71Z61R43P0II8IP6AQSA1KQB91Y","28","0","CHURCH","6","7","1","1389","church","6","2018-06-05 20:03:17","206089"
"ASDOYPL3T2CFL","cs_wg_full_v1_pilot1","3H7XDTSHKCSXGTLJTJ15BZMIKGEWGA","8","0","CHICKEN","3","7","0","6382","chicken","3","2018-06-05 20:03:17","206090"
"A3DAQQDUWAZ6LA","cs_wg_full_v1_pilot1","35DR22AR5DLBBHEL89Q7UOBGPDG3X3","17","0","BULLET","5","7","0","2478","BULLET ","6","2018-06-05 20:03:18","206091"
"A014297063OPPUEBTOLM","cs_wg_full_v1_pilot1","3O6CYIULED2GLBMEDOQMFEN9TOTWUA","6","0","BAPTISM","8","7","0","4316","Baptism","8","2018-06-05 20:03:22","206092"
"ABKQ4J2P3CADD","cs_wg_full_v1_pilot1","3PJ71Z61R43P0II8IP6AQSA1KQB91Y","29","0","PARENT","16","7","0","1434","parent","16","2018-06-05 20:03:25","206093"
"A1NKBXOTZAI1YK","cs_wg_full_v1_pilot1","35K3O9HUABEXLT3XXZ1H78F6CXAEFE","18","0","BEAVER","3","7","1","18131","beaver","3","2018-06-05 20:03:31","206094"
"ASDOYPL3T2CFL","cs_wg_full_v1_pilot1","3H7XDTSHKCSXGTLJTJ15BZMIKGEWGA","9","0","JACKET","9","7","1","3819","jacket","9","2018-06-05 20:03:31","206095"
"A3DAQQDUWAZ6LA","cs_wg_full_v1_pilot1","35DR22AR5DLBBHEL89Q7UOBGPDG3X3","18","0","EARDRUM","6","7","0","1350","EARDRUM ","7
7","2018-06-05 20:03:31","206096"
"ABKQ4J2P3CADD","cs_wg_full_v1_pilot1","3PJ71Z61R43P0II8IP6AQSA1KQB91Y","30","0","CHURCH","6","7","1","1276","church","6","2018-06-05 20:03:33","206097"
"A1NKBXOTZAI1YK","cs_wg_full_v1_pilot1","35K3O9HUABEXLT3XXZ1H78F6CXAEFE","19","0","GIRAFFE","17","7","0","2399","GIRAFFE ","17","2018-06-05 20:03:40","206098"
"A014297063OPPUEBTOLM","cs_wg_full_v1_pilot1","3O6CYIULED2GLBMEDOQMFEN9TOTWUA","7","0","BEAVER","3","7","0","5734","Beaver","3","2018-06-05 20:03:41","206099"
"ABKQ4J2P3CADD","cs_wg_full_v1_pilot1","3PJ71Z61R43P0II8IP6AQSA1KQB91Y","31","0","SCIENCE","5","7","1","5125","science","5","2018-06-05 20:03:45","206100"
"A3DAQQDUWAZ6LA","cs_wg_full_v1_pilot1","35DR22AR5DLBBHEL89Q7UOBGPDG3X3","19","0","GIRAFFE","17","7","0","3255","GIRAFFE","7","2018-06-05 20:03:46","206101"
"ASDOYPL3T2CFL","cs_wg_full_v1_pilot1","3H7XDTSHKCSXGTLJTJ15BZMIKGEWGA","10","0","FRIEND","16","7","0","4603","friend","16","2018-06-05 20:03:49","206102"
"A1NKBXOTZAI1YK","cs_wg_full_v1_pilot1","35K3O9HUABEXLT3XXZ1H78F6CXAEFE","20","0","BATTERY","16","7","0","3261","BATTERY ","16","2018-06-05 20:03:50","206103"
"ABKQ4J2P3CADD","cs_wg_full_v1_pilot1","3PJ71Z61R43P0II8IP6AQSA1KQB91Y","32","0","SUNBURN","5","7","1","2240","sunburn","5","2018-06-05 20:03:53","206104"
"A014297063OPPUEBTOLM","cs_wg_full_v1_pilot1","3O6CYIULED2GLBMEDOQMFEN9TOTWUA","8","0","BAPTISM","8","7","0","3087","Baptism","8","2018-06-05 20:03:55","206105"
"A1NKBXOTZAI1YK","cs_wg_full_v1_pilot1","35K3O9HUABEXLT3XXZ1H78F6CXAEFE","21","0","SMOKER","9","7","0","2087","SMOKER ","9","2018-06-05 20:03:59","206106"
"A3DAQQDUWAZ6LA","cs_wg_full_v1_pilot1","35DR22AR5DLBBHEL89Q7UOBGPDG3X3","20","0","LIQUID","5","7","0","5319","LIQUID","7
7","2018-06-05 20:04:00","206107"
"ABKQ4J2P3CADD","cs_wg_full_v1_pilot1","3PJ71Z61R43P0II8IP6AQSA1KQB91Y","33","0","SHIVER","3","7","1","3845","shiver","3","2018-06-05 20:04:02","206108"
"ASDOYPL3T2CFL","cs_wg_full_v1_pilot1","3H7XDTSHKCSXGTLJTJ15BZMIKGEWGA","11","0","BULLET","5","7","0","4316","bullet","5","2018-06-05 20:04:04","206109"
"A1NKBXOTZAI1YK","cs_wg_full_v1_pilot1","35K3O9HUABEXLT3XXZ1H78F6CXAEFE","22","0","ADDICT","8","7","0","2816","ADDICT ","8","2018-06-05 20:04:09","206110"
"ABKQ4J2P3CADD","cs_wg_full_v1_pilot1","3PJ71Z61R43P0II8IP6AQSA1KQB91Y","34","0","SHIVER","3","7","1","1971","shiver","3","2018-06-05 20:04:10","206111"
"A281NYJUA83Y3Y","cs_wg_full_v1_pilot1","36NEMU28XFEX83H54MZ0O46FG2QWMI","0","0","SPATULA","5","7","0","2448","spatula","7","2018-06-05 20:04:13","206112"
"A3DAQQDUWAZ6LA","cs_wg_full_v1_pilot1","35DR22AR5DLBBHEL89Q7UOBGPDG3X3","21","0","SPONGE","8","7","0","3029","SPONGE ","5","2018-06-05 20:04:13","206113"
"A014297063OPPUEBTOLM","cs_wg_full_v1_pilot1","3O6CYIULED2GLBMEDOQMFEN9TOTWUA","9","0","BROWNIE","5","7","0","7309","Brownie","5","2018-06-05 20:04:15","206114"
"ASDOYPL3T2CFL","cs_wg_full_v1_pilot1","3H7XDTSHKCSXGTLJTJ15BZMIKGEWGA","12","0","FRIEND","16","7","0","2489","friend","16","2018-06-05 20:04:17","206115"
"ABKQ4J2P3CADD","cs_wg_full_v1_pilot1","3PJ71Z61R43P0II8IP6AQSA1KQB91Y","35","0","BULLET","5","7","1","3172","bullet","5","2018-06-05 20:04:18","206116"
"A3DAQQDUWAZ6LA","cs_wg_full_v1_pilot1","35DR22AR5DLBBHEL89Q7UOBGPDG3X3","22","0","JACKET","9","7","0","3278","JACKET","7","2018-06-05 20:04:25","206117"
"A281NYJUA83Y3Y","cs_wg_full_v1_pilot1","36NEMU28XFEX83H54MZ0O46FG2QWMI","1","0","BAKERY","16","7","1","2255","bakery","16","2018-06-05 20:04:25","206118"
"A1NKBXOTZAI1YK","cs_wg_full_v1_pilot1","35K3O9HUABEXLT3XXZ1H78F6CXAEFE","23","0","GOGGLES","5","7","1","4872","GOGGLES ","5","2018-06-05 20:04:26","206119"
"ABKQ4J2P3CADD","cs_wg_full_v1_pilot1","3PJ71Z61R43P0II8IP6AQSA1KQB91Y","36","0","BIKINI","8","7","0","1678","bikini","8","2018-06-05 20:04:26","206120"
"ASDOYPL3T2CFL","cs_wg_full_v1_pilot1","3H7XDTSHKCSXGTLJTJ15BZMIKGEWGA","13","0","TENNIS","5","7","0","2882","Tennis","5","2018-06-05 20:04:30","206121"
"ABKQ4J2P3CADD","cs_wg_full_v1_pilot1","3PJ71Z61R43P0II8IP6AQSA1KQB91Y","37","0","TURKEY","9","7","0","2209","turkey","9","2018-06-05 20:04:34","206122"
"A014297063OPPUEBTOLM","cs_wg_full_v1_pilot1","3O6CYIULED2GLBMEDOQMFEN9TOTWUA","10","0","JUNGLE","12","7","0","5294","Jungle","12","2018-06-05 20:04:34","206123"
"A281NYJUA83Y3Y","cs_wg_full_v1_pilot1","36NEMU28XFEX83H54MZ0O46FG2QWMI","2","0","BROWNIE","5","7","0","1406","brownie","5","2018-06-05 20:04:35","206124"
"A3DAQQDUWAZ6LA","cs_wg_full_v1_pilot1","35DR22AR5DLBBHEL89Q7UOBGPDG3X3","23","0","CELERY","16","7","0","4725","CELERY","7
7","2018-06-05 20:04:39","206125"
"ASDOYPL3T2CFL","cs_wg_full_v1_pilot1","3H7XDTSHKCSXGTLJTJ15BZMIKGEWGA","14","0","FLIGHT","12","7","0","2440","flight","12","2018-06-05 20:04:43","206126"
"ABKQ4J2P3CADD","cs_wg_full_v1_pilot1","3PJ71Z61R43P0II8IP6AQSA1KQB91Y","38","0","KIDNEY","8","7","0","2301","kidney","8","2018-06-05 20:04:43","206127"
"A281NYJUA83Y3Y","cs_wg_full_v1_pilot1","36NEMU28XFEX83H54MZ0O46FG2QWMI","3","0","FIREFLY","17","7","0","1686","firefly","17","2018-06-05 20:04:45","206128"
"A014297063OPPUEBTOLM","cs_wg_full_v1_pilot1","3O6CYIULED2GLBMEDOQMFEN9TOTWUA","11","0","JUNGLE","12","7","0","1613","jungle ","12","2018-06-05 20:04:48","206129"
"ABKQ4J2P3CADD","cs_wg_full_v1_pilot1","3PJ71Z61R43P0II8IP6AQSA1KQB91Y","39","0","SHIVER","3","7","1","1044","shiver","3","2018-06-05 20:04:49","206130"
"A3DAQQDUWAZ6LA","cs_wg_full_v1_pilot1","35DR22AR5DLBBHEL89Q7UOBGPDG3X3","24","0","SPONGE","8","7","0","3862","SPONGE","7","2018-06-05 20:04:50","206131"
"ABKQ4J2P3CADD","cs_wg_full_v1_pilot1","3PJ71Z61R43P0II8IP6AQSA1KQB91Y","40","0","SCIENCE","5","7","1","1524","science","5","2018-06-05 20:04:57","206132"
"A281NYJUA83Y3Y","cs_wg_full_v1_pilot1","36NEMU28XFEX83H54MZ0O46FG2QWMI","4","0","BIKINI","8","7","0","1428","bikini ","8","2018-06-05 20:04:58","206133"
"ASDOYPL3T2CFL","cs_wg_full_v1_pilot1","3H7XDTSHKCSXGTLJTJ15BZMIKGEWGA","15","0","CHICKEN","3","7","1","4723","chicken","3","2018-06-05 20:04:59","206134"
"A3DAQQDUWAZ6LA","cs_wg_full_v1_pilot1","35DR22AR5DLBBHEL89Q7UOBGPDG3X3","25","0","SPONGE","8","7","0","3590","SPONGE","7","2018-06-05 20:05:04","206135"
"ABKQ4J2P3CADD","cs_wg_full_v1_pilot1","3PJ71Z61R43P0II8IP6AQSA1KQB91Y","41","0","SCIENCE","5","7","1","957","science","5","2018-06-05 20:05:04","206136"
"A014297063OPPUEBTOLM","cs_wg_full_v1_pilot1","3O6CYIULED2GLBMEDOQMFEN9TOTWUA","12","0","MAGNET","8","7","1","4598","Magnet","8","2018-06-05 20:05:06","206137"
"ABKQ4J2P3CADD","cs_wg_full_v1_pilot1","3PJ71Z61R43P0II8IP6AQSA1KQB91Y","42","0","SUNBURN","5","7","1","2100","sunburn","5","2018-06-05 20:05:13","206138"
"ASDOYPL3T2CFL","cs_wg_full_v1_pilot1","3H7XDTSHKCSXGTLJTJ15BZMIKGEWGA","16","0","CHIMNEY","8","7","0","3692","chimney","8","2018-06-05 20:05:14","206139"
"A3DAQQDUWAZ6LA","cs_wg_full_v1_pilot1","35DR22AR5DLBBHEL89Q7UOBGPDG3X3","26","0","CELERY","16","7","0","3245","CELERY","7","2018-06-05 20:05:16","206140"
"ABKQ4J2P3CADD","cs_wg_full_v1_pilot1","3PJ71Z61R43P0II8IP6AQSA1KQB91Y","43","0","TURKEY","9","7","0","1970","turkey","9","2018-06-05 20:05:20","206141"
"A014297063OPPUEBTOLM","cs_wg_full_v1_pilot1","3O6CYIULED2GLBMEDOQMFEN9TOTWUA","13","0","CRICKET","3","7","1","4188","cricket","3","2018-06-05 20:05:21","206142"
"ASDOYPL3T2CFL","cs_wg_full_v1_pilot1","3H7XDTSHKCSXGTLJTJ15BZMIKGEWGA","17","0","EARDRUM","6","7","1","3115","eardrum","6","2018-06-05 20:05:27","206143"
"A281NYJUA83Y3Y","cs_wg_full_v1_pilot1","36NEMU28XFEX83H54MZ0O46FG2QWMI","5","0","FIREFLY","17","7","0","13145","firefly","17","2018-06-05 20:05:27","206144"
"ABKQ4J2P3CADD","cs_wg_full_v1_pilot1","3PJ71Z61R43P0II8IP6AQSA1KQB91Y","44","0","PARENT","16","7","0","948","parent","16","2018-06-05 20:05:28","206145"
"A3DAQQDUWAZ6LA","cs_wg_full_v1_pilot1","35DR22AR5DLBBHEL89Q7UOBGPDG3X3","27","0","CABINET","5","7","0","8245","CABINET","7","2018-06-05 20:05:33","206146"
"A014297063OPPUEBTOLM","cs_wg_full_v1_pilot1","3O6CYIULED2GLBMEDOQMFEN9TOTWUA","14","0","CRICKET","3","7","1","2041","cricket","3","2018-06-05 20:05:34","206147"
"A281NYJUA83Y3Y","cs_wg_full_v1_pilot1","36NEMU28XFEX83H54MZ0O46FG2QWMI","6","0","BROWNIE","5","7","0","1542","brownie","5","2018-06-05 20:05:37","206148"
"ASDOYPL3T2CFL","cs_wg_full_v1_pilot1","3H7XDTSHKCSXGTLJTJ15BZMIKGEWGA","18","0","FIREFLY","17","7","0","3306","firefly","17","2018-06-05 20:05:42","206149"
"ABKQ4J2P3CADD","cs_wg_full_v1_pilot1","3PJ71Z61R43P0II8IP6AQSA1KQB91Y","45","0","CRICKET","3","7","1","5925","cricket","3","2018-06-05 20:05:42","206150"
"A3HZ8JZAJB124J","cs_wg_full_v1_pilot1","3PDJHANYK5HDMA1OM76JY5Z6BEZ6HJ","7","0","COFFIN","17","7","0","184102","coffin","17","2018-06-05 20:05:49","206151"
"ABKQ4J2P3CADD","cs_wg_full_v1_pilot1","3PJ71Z61R43P0II8IP6AQSA1KQB91Y","46","0","BIKINI","8","7","0","1311","bikini","8","2018-06-05 20:05:50","206152"
"A014297063OPPUEBTOLM","cs_wg_full_v1_pilot1","3O6CYIULED2GLBMEDOQMFEN9TOTWUA","15","0","MAGNET","8","7","0","2914","magnet","8","2018-06-05 20:05:51","206153"
"A3DAQQDUWAZ6LA","cs_wg_full_v1_pilot1","35DR22AR5DLBBHEL89Q7UOBGPDG3X3","28","0","JACKET","9","7","0","4247","JACKET","9","2018-06-05 20:05:56","206154"
"ASDOYPL3T2CFL","cs_wg_full_v1_pilot1","3H7XDTSHKCSXGTLJTJ15BZMIKGEWGA","19","0","FRIEND","16","7","0","2681","friend","16","2018-06-05 20:05:59","206155"
"A3HZ8JZAJB124J","cs_wg_full_v1_pilot1","3PDJHANYK5HDMA1OM76JY5Z6BEZ6HJ","8","0","JACKET","9","7","0","1582","jacket","9","2018-06-05 20:05:59","206156"
"ABKQ4J2P3CADD","cs_wg_full_v1_pilot1","3PJ71Z61R43P0II8IP6AQSA1KQB91Y","47","0","CRICKET","3","7","1","4499","cricket","3","2018-06-05 20:06:00","206157"
"A014297063OPPUEBTOLM","cs_wg_full_v1_pilot1","3O6CYIULED2GLBMEDOQMFEN9TOTWUA","16","0","ROYALTY","5","7","1","4014","Royalty","5","2018-06-05 20:06:09","206158"
"ABKQ4J2P3CADD","cs_wg_full_v1_pilot1","3PJ71Z61R43P0II8IP6AQSA1KQB91Y","48","0","BIKINI","8","7","0","3116","bikini","8","2018-06-05 20:06:09","206159"
"A3DAQQDUWAZ6LA","cs_wg_full_v1_pilot1","35DR22AR5DLBBHEL89Q7UOBGPDG3X3","29","0","BULLET","5","7","0","3918","BULLET","5","2018-06-05 20:06:09","206160"
"A3HZ8JZAJB124J","cs_wg_full_v1_pilot1","3PDJHANYK5HDMA1OM76JY5Z6BEZ6HJ","9","0","BASKET","3","7","0","1461","basket","3","2018-06-05 20:06:10","206161"
"ASDOYPL3T2CFL","cs_wg_full_v1_pilot1","3H7XDTSHKCSXGTLJTJ15BZMIKGEWGA","20","0","FLIGHT","12","7","0","2381","flight","12","2018-06-05 20:06:12","206162"
"ABKQ4J2P3CADD","cs_wg_full_v1_pilot1","3PJ71Z61R43P0II8IP6AQSA1KQB91Y","49","0","PARENT","16","7","0","1605","parent","16","2018-06-05 20:06:17","206163"
"A3HZ8JZAJB124J","cs_wg_full_v1_pilot1","3PDJHANYK5HDMA1OM76JY5Z6BEZ6HJ","10","0","BUDGET","12","7","0","1648","budget","12","2018-06-05 20:06:20","206164"
"A3DAQQDUWAZ6LA","cs_wg_full_v1_pilot1","35DR22AR5DLBBHEL89Q7UOBGPDG3X3","30","0","JACKET","9","7","0","5798","JACKET ","9","2018-06-05 20:06:25","206165"
"A014297063OPPUEBTOLM","cs_wg_full_v1_pilot1","3O6CYIULED2GLBMEDOQMFEN9TOTWUA","17","0","JUNGLE","12","7","0","1962","Jungle","12","2018-06-05 20:06:25","206166"
"ABKQ4J2P3CADD","cs_wg_full_v1_pilot1","3PJ71Z61R43P0II8IP6AQSA1KQB91Y","50","0","KIDNEY","8","7","0","2523","kidney","8","2018-06-05 20:06:25","206167"
"ASDOYPL3T2CFL","cs_wg_full_v1_pilot1","3H7XDTSHKCSXGTLJTJ15BZMIKGEWGA","21","0","CHIMNEY","8","7","1","5909","chimney","8","2018-06-05 20:06:30","206168"
"ABKQ4J2P3CADD","cs_wg_full_v1_pilot1","3PJ71Z61R43P0II8IP6AQSA1KQB91Y","51","0","BULLET","5","7","1","1866","bullet","5","2018-06-05 20:06:33","206169"
"A3HZ8JZAJB124J","cs_wg_full_v1_pilot1","3PDJHANYK5HDMA1OM76JY5Z6BEZ6HJ","11","0","PLANET","8","7","1","2943","planet","8","2018-06-05 20:06:34","206170"
"ABKQ4J2P3CADD","cs_wg_full_v1_pilot1","3PJ71Z61R43P0II8IP6AQSA1KQB91Y","52","0","TURKEY","9","7","0","1749","turkey","9","2018-06-05 20:06:39","206171"
"A014297063OPPUEBTOLM","cs_wg_full_v1_pilot1","3O6CYIULED2GLBMEDOQMFEN9TOTWUA","18","0","PRIEST","16","7","0","3860","priest","16","2018-06-05 20:06:42","206172"
"A3HZ8JZAJB124J","cs_wg_full_v1_pilot1","3PDJHANYK5HDMA1OM76JY5Z6BEZ6HJ","12","0","DOMINO","8","7","0","1480","domino","8","2018-06-05 20:06:44","206173"
"ASDOYPL3T2CFL","cs_wg_full_v1_pilot1","3H7XDTSHKCSXGTLJTJ15BZMIKGEWGA","22","0","ADDICT","8","7","1","3763","Addict","8","2018-06-05 20:06:44","206174"
"ABKQ4J2P3CADD","cs_wg_full_v1_pilot1","3PJ71Z61R43P0II8IP6AQSA1KQB91Y","53","0","SCIENCE","5","7","1","1510","science","5","2018-06-05 20:06:46","206175"
"A3DAQQDUWAZ6LA","cs_wg_full_v1_pilot1","35DR22AR5DLBBHEL89Q7UOBGPDG3X3","31","0","BULLET","5","7","0","12422","BULLET","5
5","2018-06-05 20:06:48","206176"
"A3HZ8JZAJB124J","cs_wg_full_v1_pilot1","3PDJHANYK5HDMA1OM76JY5Z6BEZ6HJ","13","0","CABINET","5","7","0","1581","cabinet","5","2018-06-05 20:06:54","206177"
"A014297063OPPUEBTOLM","cs_wg_full_v1_pilot1","3O6CYIULED2GLBMEDOQMFEN9TOTWUA","19","0","CRICKET","3","7","1","3672","cricket","3","2018-06-05 20:06:57","206178"
"ASDOYPL3T2CFL","cs_wg_full_v1_pilot1","3H7XDTSHKCSXGTLJTJ15BZMIKGEWGA","23","0","ADDICT","8","7","0","2524","Addict","8","2018-06-05 20:06:58","206179"
"A3DAQQDUWAZ6LA","cs_wg_full_v1_pilot1","35DR22AR5DLBBHEL89Q7UOBGPDG3X3","32","0","LIQUID","5","7","0","2973","LIQUID ","5","2018-06-05 20:07:00","206180"
"ABKQ4J2P3CADD","cs_wg_full_v1_pilot1","3PJ71Z61R43P0II8IP6AQSA1KQB91Y","54","0","FLIGHT","12","7","0","7617","flight","12","2018-06-05 20:07:01","206181"
"A3HZ8JZAJB124J","cs_wg_full_v1_pilot1","3PDJHANYK5HDMA1OM76JY5Z6BEZ6HJ","14","0","BUDGET","12","7","0","1207","budget","12","2018-06-05 20:07:05","206182"
"ABKQ4J2P3CADD","cs_wg_full_v1_pilot1","3PJ71Z61R43P0II8IP6AQSA1KQB91Y","55","0","COFFEE","17","7","0","2092","coffee","17","2018-06-05 20:07:09","206183"
"ASDOYPL3T2CFL","cs_wg_full_v1_pilot1","3H7XDTSHKCSXGTLJTJ15BZMIKGEWGA","24","0","HEAVEN","3","7","0","3785","heaven","3","2018-06-05 20:07:11","206184"
"A014297063OPPUEBTOLM","cs_wg_full_v1_pilot1","3O6CYIULED2GLBMEDOQMFEN9TOTWUA","20","0","WALRUS","6","7","0","2737","walrus","6","2018-06-05 20:07:12","206185"
"ABKQ4J2P3CADD","cs_wg_full_v1_pilot1","3PJ71Z61R43P0II8IP6AQSA1KQB91Y","56","0","COFFEE","17","7","0","922","coffee","17","2018-06-05 20:07:16","206186"
"A3DAQQDUWAZ6LA","cs_wg_full_v1_pilot1","35DR22AR5DLBBHEL89Q7UOBGPDG3X3","33","0","LIQUID","5","7","0","7878","LIQUID ","5","2018-06-05 20:07:18","206187"
"A3HZ8JZAJB124J","cs_wg_full_v1_pilot1","3PDJHANYK5HDMA1OM76JY5Z6BEZ6HJ","15","0","DOMINO","8","7","0","4949","domino","8","2018-06-05 20:07:19","206188"
"A014297063OPPUEBTOLM","cs_wg_full_v1_pilot1","3O6CYIULED2GLBMEDOQMFEN9TOTWUA","21","0","LIQUID","5","7","0","1675","liquid","5","2018-06-05 20:07:24","206189"
"ABKQ4J2P3CADD","cs_wg_full_v1_pilot1","3PJ71Z61R43P0II8IP6AQSA1KQB91Y","57","0","FLIGHT","12","7","0","3560","flight","12","2018-06-05 20:07:25","206190"
"ASDOYPL3T2CFL","cs_wg_full_v1_pilot1","3H7XDTSHKCSXGTLJTJ15BZMIKGEWGA","25","0","CHICKEN","3","7","0","5050","chicken","3","2018-06-05 20:07:26","206191"
"A3DAQQDUWAZ6LA","cs_wg_full_v1_pilot1","35DR22AR5DLBBHEL89Q7UOBGPDG3X3","34","0","FLIGHT","12","7","0","2869","FLIGHT","12","2018-06-05 20:07:28","206192"
"A3HZ8JZAJB124J","cs_wg_full_v1_pilot1","3PDJHANYK5HDMA1OM76JY5Z6BEZ6HJ","16","0","SPATULA","5","7","0","2875","spatula","5","2018-06-05 20:07:31","206193"
"ABKQ4J2P3CADD","cs_wg_full_v1_pilot1","3PJ71Z61R43P0II8IP6AQSA1KQB91Y","58","0","SHIVER","3","7","1","2522","shiver","3","2018-06-05 20:07:33","206194"
"A014297063OPPUEBTOLM","cs_wg_full_v1_pilot1","3O6CYIULED2GLBMEDOQMFEN9TOTWUA","22","0","ROYALTY","5","7","1","2251","royalty","5","2018-06-05 20:07:38","206195"
"A3HZ8JZAJB124J","cs_wg_full_v1_pilot1","3PDJHANYK5HDMA1OM76JY5Z6BEZ6HJ","17","0","JACKET","9","7","0","1275","jacket","9","2018-06-05 20:07:41","206196"
"ABKQ4J2P3CADD","cs_wg_full_v1_pilot1","3PJ71Z61R43P0II8IP6AQSA1KQB91Y","59","0","CRICKET","3","7","0","1686","cricket","3","2018-06-05 20:07:41","206197"
"ASDOYPL3T2CFL","cs_wg_full_v1_pilot1","3H7XDTSHKCSXGTLJTJ15BZMIKGEWGA","26","0","TENNIS","5","7","0","4833","Tennis","5","2018-06-05 20:07:42","206198"
"A3DAQQDUWAZ6LA","cs_wg_full_v1_pilot1","35DR22AR5DLBBHEL89Q7UOBGPDG3X3","35","0","SILVER","3","7","0","4686","SILVER","3","2018-06-05 20:07:42","206199"
"A3HZ8JZAJB124J","cs_wg_full_v1_pilot1","3PDJHANYK5HDMA1OM76JY5Z6BEZ6HJ","18","0","PLANET","8","7","0","294","planet","8","2018-06-05 20:07:49","206200"
"ABKQ4J2P3CADD","cs_wg_full_v1_pilot1","3PJ71Z61R43P0II8IP6AQSA1KQB91Y","60","0","CHURCH","6","7","1","3388","church","6","2018-06-05 20:07:50","206201"
"A014297063OPPUEBTOLM","cs_wg_full_v1_pilot1","3O6CYIULED2GLBMEDOQMFEN9TOTWUA","23","0","BROWNIE","5","7","1","3045","brownie","5","2018-06-05 20:07:53","206202"
"A3DAQQDUWAZ6LA","cs_wg_full_v1_pilot1","35DR22AR5DLBBHEL89Q7UOBGPDG3X3","36","0","BASKET","3","7","0","4787","BASKET","3","2018-06-05 20:07:54","206203"
"ABKQ4J2P3CADD","cs_wg_full_v1_pilot1","3PJ71Z61R43P0II8IP6AQSA1KQB91Y","61","0","PARENT","16","7","0","473","parent","16","2018-06-05 20:07:57","206204"
"ASDOYPL3T2CFL","cs_wg_full_v1_pilot1","3H7XDTSHKCSXGTLJTJ15BZMIKGEWGA","27","0","FIREFLY","17","7","0","2283","firefly","17","2018-06-05 20:07:58","206205"
"A3HZ8JZAJB124J","cs_wg_full_v1_pilot1","3PDJHANYK5HDMA1OM76JY5Z6BEZ6HJ","19","0","PRIEST","16","7","0","1335","preist","8","2018-06-05 20:08:01","206206"
"A014297063OPPUEBTOLM","cs_wg_full_v1_pilot1","3O6CYIULED2GLBMEDOQMFEN9TOTWUA","24","0","JUNGLE","12","7","0","1657","jungle","12","2018-06-05 20:08:05","206207"
"A3DAQQDUWAZ6LA","cs_wg_full_v1_pilot1","35DR22AR5DLBBHEL89Q7UOBGPDG3X3","37","0","BULLET","5","7","0","3214","BULLET","5","2018-06-05 20:08:06","206208"
"ABKQ4J2P3CADD","cs_wg_full_v1_pilot1","3PJ71Z61R43P0II8IP6AQSA1KQB91Y","62","0","KIDNEY","8","7","0","3565","kidney","8","2018-06-05 20:08:06","206209"
"ABKQ4J2P3CADD","cs_wg_full_v1_pilot1","3PJ71Z61R43P0II8IP6AQSA1KQB91Y","63","0","SHIVER","3","7","1","1269","shiver","3","2018-06-05 20:08:13","206210"
"ASDOYPL3T2CFL","cs_wg_full_v1_pilot1","3H7XDTSHKCSXGTLJTJ15BZMIKGEWGA","28","0","CHIMNEY","8","7","1","5082","chimney","8","2018-06-05 20:08:14","206211"
"A3HZ8JZAJB124J","cs_wg_full_v1_pilot1","3PDJHANYK5HDMA1OM76JY5Z6BEZ6HJ","20","0","EARDRUM","6","7","0","2090","eardrum","6","2018-06-05 20:08:14","206212"
"A3DAQQDUWAZ6LA","cs_wg_full_v1_pilot1","35DR22AR5DLBBHEL89Q7UOBGPDG3X3","38","0","LIQUID","5","7","0","3501","LIQUID","5","2018-06-05 20:08:17","206213"
"ABKQ4J2P3CADD","cs_wg_full_v1_pilot1","3PJ71Z61R43P0II8IP6AQSA1KQB91Y","64","0","BIKINI","8","7","0","1189","bikini","8","2018-06-05 20:08:20","206214"
"A014297063OPPUEBTOLM","cs_wg_full_v1_pilot1","3O6CYIULED2GLBMEDOQMFEN9TOTWUA","25","0","MONKEY","9","7","0","2306","monkey","9","2018-06-05 20:08:22","206215"
"A3HZ8JZAJB124J","cs_wg_full_v1_pilot1","3PDJHANYK5HDMA1OM76JY5Z6BEZ6HJ","21","0","SPATULA","5","7","0","1454","spatula","5","2018-06-05 20:08:25","206216"
"ASDOYPL3T2CFL","cs_wg_full_v1_pilot1","3H7XDTSHKCSXGTLJTJ15BZMIKGEWGA","29","0","HEAVEN","3","7","1","2857","heaven","3","2018-06-05 20:08:26","206217"
"ABKQ4J2P3CADD","cs_wg_full_v1_pilot1","3PJ71Z61R43P0II8IP6AQSA1KQB91Y","65","0","BULLET","5","7","1","1005","bullet","5","2018-06-05 20:08:26","206218"
"A3DAQQDUWAZ6LA","cs_wg_full_v1_pilot1","35DR22AR5DLBBHEL89Q7UOBGPDG3X3","39","0","GIRAFFE","17","7","0","2355","GIRAFFE","17","2018-06-05 20:08:29","206219"
"ABKQ4J2P3CADD","cs_wg_full_v1_pilot1","3PJ71Z61R43P0II8IP6AQSA1KQB91Y","66","0","BULLET","5","7","1","2525","bullet","5","2018-06-05 20:08:35","206220"
"A014297063OPPUEBTOLM","cs_wg_full_v1_pilot1","3O6CYIULED2GLBMEDOQMFEN9TOTWUA","26","0","LIQUID","5","7","1","2488","liquid","5","2018-06-05 20:08:36","206221"
"ASDOYPL3T2CFL","cs_wg_full_v1_pilot1","3H7XDTSHKCSXGTLJTJ15BZMIKGEWGA","30","0","BULLET","5","7","1","2276","bullet","5","2018-06-05 20:08:40","206222"
"A3HZ8JZAJB124J","cs_wg_full_v1_pilot1","3PDJHANYK5HDMA1OM76JY5Z6BEZ6HJ","22","0","EARDRUM","6","7","0","4706","eardrum","6","2018-06-05 20:08:40","206223"
"A3DAQQDUWAZ6LA","cs_wg_full_v1_pilot1","35DR22AR5DLBBHEL89Q7UOBGPDG3X3","40","0","SPONGE","8","7","0","396","SPONGE ","8","2018-06-05 20:08:41","206224"
"ABKQ4J2P3CADD","cs_wg_full_v1_pilot1","3PJ71Z61R43P0II8IP6AQSA1KQB91Y","67","0","CRICKET","3","7","0","802","cricket","3","2018-06-05 20:08:42","206225"
"A014297063OPPUEBTOLM","cs_wg_full_v1_pilot1","3O6CYIULED2GLBMEDOQMFEN9TOTWUA","27","0","ROYALTY","5","7","1","2834","royalty","5","2018-06-05 20:08:49","206226"
"ABKQ4J2P3CADD","cs_wg_full_v1_pilot1","3PJ71Z61R43P0II8IP6AQSA1KQB91Y","68","0","COFFEE","17","7","0","1405","coffee","17","2018-06-05 20:08:49","206227"
"A3DAQQDUWAZ6LA","cs_wg_full_v1_pilot1","35DR22AR5DLBBHEL89Q7UOBGPDG3X3","41","0","SILVER","3","7","0","299","SILVER","3","2018-06-05 20:08:49","206228"
"A3HZ8JZAJB124J","cs_wg_full_v1_pilot1","3PDJHANYK5HDMA1OM76JY5Z6BEZ6HJ","23","0","BASKET","3","7","0","1410","basket","3","2018-06-05 20:08:52","206229"
"ASDOYPL3T2CFL","cs_wg_full_v1_pilot1","3H7XDTSHKCSXGTLJTJ15BZMIKGEWGA","31","0","CHIMNEY","8","7","0","6364","chimney","8","2018-06-05 20:08:56","206230"
"ABKQ4J2P3CADD","cs_wg_full_v1_pilot1","3PJ71Z61R43P0II8IP6AQSA1KQB91Y","69","0","TURKEY","9","7","0","1798","turkey","9","2018-06-05 20:08:57","206231"
"A3DAQQDUWAZ6LA","cs_wg_full_v1_pilot1","35DR22AR5DLBBHEL89Q7UOBGPDG3X3","42","0","CASINO","8","7","0","252","CASINO","8","2018-06-05 20:09:00","206232"
"A014297063OPPUEBTOLM","cs_wg_full_v1_pilot1","3O6CYIULED2GLBMEDOQMFEN9TOTWUA","28","0","COFFIN","17","7","0","2166","coffin","17","2018-06-05 20:09:02","206233"
"A3HZ8JZAJB124J","cs_wg_full_v1_pilot1","3PDJHANYK5HDMA1OM76JY5Z6BEZ6HJ","24","0","EARDRUM","6","7","0","3254","eardrum","6","2018-06-05 20:09:03","206234"
"ABKQ4J2P3CADD","cs_wg_full_v1_pilot1","3PJ71Z61R43P0II8IP6AQSA1KQB91Y","70","0","BIKINI","8","7","0","1326","bikini","8","2018-06-05 20:09:04","206235"
"A281NYJUA83Y3Y","cs_wg_full_v1_pilot1","36NEMU28XFEX83H54MZ0O46FG2QWMI","7","0","JUNGLE","12","7","0","199923","jungle","12","2018-06-05 20:09:09","206236"
"A39XIQCFSCNHFU","cs_wg_full_v1_pilot1","31Z0PCVWUKGMVJ6O5BS0I22QHJHT7I","0","0","CANVAS","3","7","0","2931","CANVAS","3","2018-06-05 20:09:09","206237"
"A3DAQQDUWAZ6LA","cs_wg_full_v1_pilot1","35DR22AR5DLBBHEL89Q7UOBGPDG3X3","43","0","BASKET","3","7","0","408","BASKET ","3","2018-06-05 20:09:11","206238"
"ABKQ4J2P3CADD","cs_wg_full_v1_pilot1","3PJ71Z61R43P0II8IP6AQSA1KQB91Y","71","0","COFFEE","17","7","0","1925","coffee","17","2018-06-05 20:09:11","206239"
"ASDOYPL3T2CFL","cs_wg_full_v1_pilot1","3H7XDTSHKCSXGTLJTJ15BZMIKGEWGA","32","0","JACKET","9","7","0","4459","jacket","9","2018-06-05 20:09:11","206240"
"A3HZ8JZAJB124J","cs_wg_full_v1_pilot1","3PDJHANYK5HDMA1OM76JY5Z6BEZ6HJ","25","0","COFFIN","17","7","0","1072","coffin","17","2018-06-05 20:09:12","206241"
"A014297063OPPUEBTOLM","cs_wg_full_v1_pilot1","3O6CYIULED2GLBMEDOQMFEN9TOTWUA","29","0","MAGNET","8","7","1","2827","magnet","8","2018-06-05 20:09:17","206242"
"ABKQ4J2P3CADD","cs_wg_full_v1_pilot1","3PJ71Z61R43P0II8IP6AQSA1KQB91Y","72","0","CHURCH","6","7","1","1197","church","6","2018-06-05 20:09:18","206243"
"A3DAQQDUWAZ6LA","cs_wg_full_v1_pilot1","35DR22AR5DLBBHEL89Q7UOBGPDG3X3","44","0","JACKET","9","7","0","430","JACKET ","9","2018-06-05 20:09:20","206244"
"A281NYJUA83Y3Y","cs_wg_full_v1_pilot1","36NEMU28XFEX83H54MZ0O46FG2QWMI","8","0","BAKERY","16","7","0","1938","bakery","16","2018-06-05 20:09:20","206245"
"A39XIQCFSCNHFU","cs_wg_full_v1_pilot1","31Z0PCVWUKGMVJ6O5BS0I22QHJHT7I","1","0","BAGPIPE","8","7","0","2339","BAGPIPE","8","2018-06-05 20:09:22","206246"
"A3HZ8JZAJB124J","cs_wg_full_v1_pilot1","3PDJHANYK5HDMA1OM76JY5Z6BEZ6HJ","26","0","JACKET","9","7","0","2397","jacket","9","2018-06-05 20:09:23","206247"
"ABKQ4J2P3CADD","cs_wg_full_v1_pilot1","3PJ71Z61R43P0II8IP6AQSA1KQB91Y","73","0","FLIGHT","12","7","0","963","flight","12","2018-06-05 20:09:24","206248"
"ASDOYPL3T2CFL","cs_wg_full_v1_pilot1","3H7XDTSHKCSXGTLJTJ15BZMIKGEWGA","33","0","EARDRUM","6","7","1","3923","eardrum","6","2018-06-05 20:09:25","206249"
"A014297063OPPUEBTOLM","cs_wg_full_v1_pilot1","3O6CYIULED2GLBMEDOQMFEN9TOTWUA","30","0","WALRUS","6","7","1","2320","walrus","6","2018-06-05 20:09:30","206250"
"ABKQ4J2P3CADD","cs_wg_full_v1_pilot1","3PJ71Z61R43P0II8IP6AQSA1KQB91Y","74","0","CRICKET","3","7","1","1073","cricket","3","2018-06-05 20:09:31","206251"
"A3DAQQDUWAZ6LA","cs_wg_full_v1_pilot1","35DR22AR5DLBBHEL89Q7UOBGPDG3X3","45","0","CASINO","8","7","0","1701","CASINO ","8","2018-06-05 20:09:31","206252"
"A281NYJUA83Y3Y","cs_wg_full_v1_pilot1","36NEMU28XFEX83H54MZ0O46FG2QWMI","9","0","EARDRUM","6","7","0","2722","eardrum","6","2018-06-05 20:09:32","206253"
"A39XIQCFSCNHFU","cs_wg_full_v1_pilot1","31Z0PCVWUKGMVJ6O5BS0I22QHJHT7I","2","0","CELERY","16","7","0","1078","CELERY","16","2018-06-05 20:09:32","206254"
"ABKQ4J2P3CADD","cs_wg_full_v1_pilot1","3PJ71Z61R43P0II8IP6AQSA1KQB91Y","75","0","COFFEE","17","7","0","594","coffee","17","2018-06-05 20:09:37","206255"
"A3HZ8JZAJB124J","cs_wg_full_v1_pilot1","3PDJHANYK5HDMA1OM76JY5Z6BEZ6HJ","27","0","SPATULA","5","7","0","3241","spatula","5","2018-06-05 20:09:38","206256"
"ASDOYPL3T2CFL","cs_wg_full_v1_pilot1","3H7XDTSHKCSXGTLJTJ15BZMIKGEWGA","34","0","CHICKEN","3","7","1","5946","chicken","3","2018-06-05 20:09:40","206257"
"A39XIQCFSCNHFU","cs_wg_full_v1_pilot1","31Z0PCVWUKGMVJ6O5BS0I22QHJHT7I","3","0","CRICKET","3","7","0","1236","CRICKET","3","2018-06-05 20:09:42","206258"
"A3DAQQDUWAZ6LA","cs_wg_full_v1_pilot1","35DR22AR5DLBBHEL89Q7UOBGPDG3X3","46","0","LIQUID","5","7","0","1398","LIQUID","5","2018-06-05 20:09:43","206259"
"ABKQ4J2P3CADD","cs_wg_full_v1_pilot1","3PJ71Z61R43P0II8IP6AQSA1KQB91Y","76","0","KIDNEY","8","7","0","1140","kidney","8","2018-06-05 20:09:44","206260"
"A014297063OPPUEBTOLM","cs_wg_full_v1_pilot1","3O6CYIULED2GLBMEDOQMFEN9TOTWUA","31","0","BROWNIE","5","7","0","2452","brownie","5","2018-06-05 20:09:44","206261"
"A3HZ8JZAJB124J","cs_wg_full_v1_pilot1","3PDJHANYK5HDMA1OM76JY5Z6BEZ6HJ","28","0","CABINET","5","7","0","1976","cabinet","5","2018-06-05 20:09:48","206262"
"A39XIQCFSCNHFU","cs_wg_full_v1_pilot1","31Z0PCVWUKGMVJ6O5BS0I22QHJHT7I","4","0","WALRUS","6","7","0","1524","WALRUS","6","2018-06-05 20:09:51","206263"
"ABKQ4J2P3CADD","cs_wg_full_v1_pilot1","3PJ71Z61R43P0II8IP6AQSA1KQB91Y","77","0","SUNBURN","5","7","1","3467","sunburn","5","2018-06-05 20:09:53","206264"
"A3DAQQDUWAZ6LA","cs_wg_full_v1_pilot1","35DR22AR5DLBBHEL89Q7UOBGPDG3X3","47","0","CASINO","8","7","0","39","CASINO ","8","2018-06-05 20:09:54","206265"
"ASDOYPL3T2CFL","cs_wg_full_v1_pilot1","3H7XDTSHKCSXGTLJTJ15BZMIKGEWGA","35","0","LIQUID","5","7","1","3885","liquid","5","2018-06-05 20:09:55","206266"
"A3HZ8JZAJB124J","cs_wg_full_v1_pilot1","3PDJHANYK5HDMA1OM76JY5Z6BEZ6HJ","29","0","CABINET","5","7","1","3559","cabinet","5","2018-06-05 20:09:59","206267"
"A39XIQCFSCNHFU","cs_wg_full_v1_pilot1","31Z0PCVWUKGMVJ6O5BS0I22QHJHT7I","5","0","BULLET","5","7","0","964","BULLET","5","2018-06-05 20:10:00","206268"
"ABKQ4J2P3CADD","cs_wg_full_v1_pilot1","3PJ71Z61R43P0II8IP6AQSA1KQB91Y","78","0","SCIENCE","5","7","1","1419","science","5","2018-06-05 20:10:01","206269"
"A3DAQQDUWAZ6LA","cs_wg_full_v1_pilot1","35DR22AR5DLBBHEL89Q7UOBGPDG3X3","48","0","BASKET","3","7","0","757","BASKET ","3","2018-06-05 20:10:04","206270"
"A014297063OPPUEBTOLM","cs_wg_full_v1_pilot1","3O6CYIULED2GLBMEDOQMFEN9TOTWUA","32","0","CRICKET","3","7","1","4739","cricket","3","2018-06-05 20:10:04","206271"
"A3HZ8JZAJB124J","cs_wg_full_v1_pilot1","3PDJHANYK5HDMA1OM76JY5Z6BEZ6HJ","30","0","CABINET","5","7","1","1975","cabinet","5","2018-06-05 20:10:08","206272"
"A39XIQCFSCNHFU","cs_wg_full_v1_pilot1","31Z0PCVWUKGMVJ6O5BS0I22QHJHT7I","6","0","SPATULA","5","7","0","1071","SPATULA","5","2018-06-05 20:10:08","206273"
"ABKQ4J2P3CADD","cs_wg_full_v1_pilot1","3PJ71Z61R43P0II8IP6AQSA1KQB91Y","79","0","SUNBURN","5","7","1","2617","sunburn","5","2018-06-05 20:10:10","206274"
"ASDOYPL3T2CFL","cs_wg_full_v1_pilot1","3H7XDTSHKCSXGTLJTJ15BZMIKGEWGA","36","0","TENNIS","5","7","1","7595","Tennis","5","2018-06-05 20:10:15","206275"
"A3DAQQDUWAZ6LA","cs_wg_full_v1_pilot1","35DR22AR5DLBBHEL89Q7UOBGPDG3X3","49","0","GIRAFFE","17","7","0","1509","GIRAFFE ","17","2018-06-05 20:10:18","206276"
"A3HZ8JZAJB124J","cs_wg_full_v1_pilot1","3PDJHANYK5HDMA1OM76JY5Z6BEZ6HJ","31","0","PLANET","8","7","0","2308","planet","8","2018-06-05 20:10:18","206277"
"ABKQ4J2P3CADD","cs_wg_full_v1_pilot1","3PJ71Z61R43P0II8IP6AQSA1KQB91Y","80","0","SCIENCE","5","7","1","763","science","5","2018-06-05 20:10:18","206278"
"A39XIQCFSCNHFU","cs_wg_full_v1_pilot1","31Z0PCVWUKGMVJ6O5BS0I22QHJHT7I","7","0","PICKLE","9","7","0","829","PICKLE","9","2018-06-05 20:10:18","206279"
"A014297063OPPUEBTOLM","cs_wg_full_v1_pilot1","3O6CYIULED2GLBMEDOQMFEN9TOTWUA","33","0","BROWNIE","5","7","1","4040","brownie","5","2018-06-05 20:10:19","206280"
"ABKQ4J2P3CADD","cs_wg_full_v1_pilot1","3PJ71Z61R43P0II8IP6AQSA1KQB91Y","81","0","FLIGHT","12","7","0","883","flight","12","2018-06-05 20:10:24","206281"
"A3DAQQDUWAZ6LA","cs_wg_full_v1_pilot1","35DR22AR5DLBBHEL89Q7UOBGPDG3X3","50","0","EARDRUM","6","7","0","1445","EARDRUM ","6","2018-06-05 20:10:28","206282"
"ASDOYPL3T2CFL","cs_wg_full_v1_pilot1","3H7XDTSHKCSXGTLJTJ15BZMIKGEWGA","37","0","BULLET","5","7","1","3772","bullet","5","2018-06-05 20:10:29","206283"
"A3HZ8JZAJB124J","cs_wg_full_v1_pilot1","3PDJHANYK5HDMA1OM76JY5Z6BEZ6HJ","32","0","EARDRUM","6","7","0","1518","eardrum","6","2018-06-05 20:10:30","206284"
"ABKQ4J2P3CADD","cs_wg_full_v1_pilot1","3PJ71Z61R43P0II8IP6AQSA1KQB91Y","82","0","TURKEY","9","7","0","1576","turkey","9","2018-06-05 20:10:31","206285"
"A39XIQCFSCNHFU","cs_wg_full_v1_pilot1","31Z0PCVWUKGMVJ6O5BS0I22QHJHT7I","8","0","WALRUS","6","7","1","5230","WALRUS","6","2018-06-05 20:10:31","206286"
"A014297063OPPUEBTOLM","cs_wg_full_v1_pilot1","3O6CYIULED2GLBMEDOQMFEN9TOTWUA","34","0","JUNGLE","12","7","0","2089","jungle","12","2018-06-05 20:10:32","206287"
"ABKQ4J2P3CADD","cs_wg_full_v1_pilot1","3PJ71Z61R43P0II8IP6AQSA1KQB91Y","83","0","BIKINI","8","7","0","1061","bikini","8","2018-06-05 20:10:39","206288"
"A3DAQQDUWAZ6LA","cs_wg_full_v1_pilot1","35DR22AR5DLBBHEL89Q7UOBGPDG3X3","51","0","CASINO","8","7","0","2933","CASINO","8","2018-06-05 20:10:39","206289"
"A39XIQCFSCNHFU","cs_wg_full_v1_pilot1","31Z0PCVWUKGMVJ6O5BS0I22QHJHT7I","9","0","CANVAS","3","7","1","2078","CANVAS","3","2018-06-05 20:10:41","206290"
"ASDOYPL3T2CFL","cs_wg_full_v1_pilot1","3H7XDTSHKCSXGTLJTJ15BZMIKGEWGA","38","0","FLIGHT","12","7","0","2676","flight","12","2018-06-05 20:10:41","206291"
"A3HZ8JZAJB124J","cs_wg_full_v1_pilot1","3PDJHANYK5HDMA1OM76JY5Z6BEZ6HJ","33","0","JACKET","9","7","0","2522","jacket","9","2018-06-05 20:10:42","206292"
"A014297063OPPUEBTOLM","cs_wg_full_v1_pilot1","3O6CYIULED2GLBMEDOQMFEN9TOTWUA","35","0","COFFIN","17","7","0","1657","coffin","17","2018-06-05 20:10:45","206293"
"ABKQ4J2P3CADD","cs_wg_full_v1_pilot1","3PJ71Z61R43P0II8IP6AQSA1KQB91Y","84","0","CHURCH","6","7","1","957","church","6","2018-06-05 20:10:46","206294"
"A3DAQQDUWAZ6LA","cs_wg_full_v1_pilot1","35DR22AR5DLBBHEL89Q7UOBGPDG3X3","52","0","SILVER","3","7","0","838","SILVER ","3","2018-06-05 20:10:49","206295"
"A39XIQCFSCNHFU","cs_wg_full_v1_pilot1","31Z0PCVWUKGMVJ6O5BS0I22QHJHT7I","10","0","SCIENCE","5","7","0","941","SCIENCE","5","2018-06-05 20:10:49","206296"
"ASDOYPL3T2CFL","cs_wg_full_v1_pilot1","3H7XDTSHKCSXGTLJTJ15BZMIKGEWGA","39","0","BULLET","5","7","1","2044","bullet","5","2018-06-05 20:10:52","206297"
"ABKQ4J2P3CADD","cs_wg_full_v1_pilot1","3PJ71Z61R43P0II8IP6AQSA1KQB91Y","85","0","FLIGHT","12","7","0","771","flight","12","2018-06-05 20:10:52","206298"
"A3HZ8JZAJB124J","cs_wg_full_v1_pilot1","3PDJHANYK5HDMA1OM76JY5Z6BEZ6HJ","34","0","PRIEST","16","7","1","2757","preist","16","2018-06-05 20:10:52","206299"
"A281NYJUA83Y3Y","cs_wg_full_v1_pilot1","36NEMU28XFEX83H54MZ0O46FG2QWMI","10","0","BROWNIE","5","7","1","4613","Brownie","5 ","2018-06-05 20:10:54","206300"
"A39XIQCFSCNHFU","cs_wg_full_v1_pilot1","31Z0PCVWUKGMVJ6O5BS0I22QHJHT7I","11","0","SCIENCE","5","7","1","1820","SCIENCE","5","2018-06-05 20:10:58","206301"
"ABKQ4J2P3CADD","cs_wg_full_v1_pilot1","3PJ71Z61R43P0II8IP6AQSA1KQB91Y","86","0","CHURCH","6","7","1","805","church","6","2018-06-05 20:10:59","206302"
"A3HZ8JZAJB124J","cs_wg_full_v1_pilot1","3PDJHANYK5HDMA1OM76JY5Z6BEZ6HJ","35","0","HEAVEN","3","7","1","1992","heaven","3","2018-06-05 20:11:01","206303"
"A014297063OPPUEBTOLM","cs_wg_full_v1_pilot1","3O6CYIULED2GLBMEDOQMFEN9TOTWUA","36","0","BEAVER","3","7","0","4641","beaver","3","2018-06-05 20:11:01","206304"
"ASDOYPL3T2CFL","cs_wg_full_v1_pilot1","3H7XDTSHKCSXGTLJTJ15BZMIKGEWGA","40","0","BULLET","5","7","1","1900","bullet","5","2018-06-05 20:11:03","206305"
"A3DAQQDUWAZ6LA","cs_wg_full_v1_pilot1","35DR22AR5DLBBHEL89Q7UOBGPDG3X3","53","0","SILVER","3","7","0","905","SILVER ","3","2018-06-05 20:11:05","206306"
"ABKQ4J2P3CADD","cs_wg_full_v1_pilot1","3PJ71Z61R43P0II8IP6AQSA1KQB91Y","87","0","SCIENCE","5","7","1","764","science","5","2018-06-05 20:11:05","206307"
"A39XIQCFSCNHFU","cs_wg_full_v1_pilot1","31Z0PCVWUKGMVJ6O5BS0I22QHJHT7I","12","0","CANVAS","3","7","1","1428","CANVAS","3","2018-06-05 20:11:06","206308"
"A3HZ8JZAJB124J","cs_wg_full_v1_pilot1","3PDJHANYK5HDMA1OM76JY5Z6BEZ6HJ","36","0","CABINET","5","7","0","2700","cabinet","5","2018-06-05 20:11:11","206309"
"ABKQ4J2P3CADD","cs_wg_full_v1_pilot1","3PJ71Z61R43P0II8IP6AQSA1KQB91Y","88","0","BIKINI","8","7","0","1219","bikini","8","2018-06-05 20:11:12","206310"
"ASDOYPL3T2CFL","cs_wg_full_v1_pilot1","3H7XDTSHKCSXGTLJTJ15BZMIKGEWGA","41","0","EARDRUM","6","7","1","2553","eardrum","6","2018-06-05 20:11:14","206311"
"A014297063OPPUEBTOLM","cs_wg_full_v1_pilot1","3O6CYIULED2GLBMEDOQMFEN9TOTWUA","37","0","JUNGLE","12","7","0","1519","jungle","12","2018-06-05 20:11:14","206312"
"A3DAQQDUWAZ6LA","cs_wg_full_v1_pilot1","35DR22AR5DLBBHEL89Q7UOBGPDG3X3","54","0","CABINET","5","7","0","854","CABINET ","5","2018-06-05 20:11:16","206313"
"A39XIQCFSCNHFU","cs_wg_full_v1_pilot1","31Z0PCVWUKGMVJ6O5BS0I22QHJHT7I","13","0","BAGPIPE","8","7","1","3015","BAGPIPE","8","2018-06-05 20:11:18","206314"
"ABKQ4J2P3CADD","cs_wg_full_v1_pilot1","3PJ71Z61R43P0II8IP6AQSA1KQB91Y","89","0","BULLET","5","7","1","916","bullet","5","2018-06-05 20:11:19","206315"
"A3HZ8JZAJB124J","cs_wg_full_v1_pilot1","3PDJHANYK5HDMA1OM76JY5Z6BEZ6HJ","37","0","HEAVEN","3","7","1","2560","heaven","3","2018-06-05 20:11:21","206316"
"A281NYJUA83Y3Y","cs_wg_full_v1_pilot1","36NEMU28XFEX83H54MZ0O46FG2QWMI","11","0","CHIMNEY","8","7","0","1434","chimney ","8","2018-06-05 20:11:25","206317"
"ABKQ4J2P3CADD","cs_wg_full_v1_pilot1","3PJ71Z61R43P0II8IP6AQSA1KQB91Y","90","0","PARENT","16","7","0","781","parent","16","2018-06-05 20:11:26","206318"
"ASDOYPL3T2CFL","cs_wg_full_v1_pilot1","3H7XDTSHKCSXGTLJTJ15BZMIKGEWGA","42","0","FRIEND","16","7","0","2601","friend","16","2018-06-05 20:11:27","206319"
"A39XIQCFSCNHFU","cs_wg_full_v1_pilot1","31Z0PCVWUKGMVJ6O5BS0I22QHJHT7I","14","0","KIDNEY","8","7","0","1660","KIDNEY","8","2018-06-05 20:11:28","206320"
"A014297063OPPUEBTOLM","cs_wg_full_v1_pilot1","3O6CYIULED2GLBMEDOQMFEN9TOTWUA","38","0","WALRUS","6","7","1","3769","walrus","6","2018-06-05 20:11:29","206321"
"A3HZ8JZAJB124J","cs_wg_full_v1_pilot1","3PDJHANYK5HDMA1OM76JY5Z6BEZ6HJ","38","0","PILLAR","5","7","0","1927","piller","5","2018-06-05 20:11:31","206322"
"A3DAQQDUWAZ6LA","cs_wg_full_v1_pilot1","35DR22AR5DLBBHEL89Q7UOBGPDG3X3","55","0","FLIGHT","12","7","0","5613","FLIGHT","12","2018-06-05 20:11:32","206323"
"ABKQ4J2P3CADD","cs_wg_full_v1_pilot1","3PJ71Z61R43P0II8IP6AQSA1KQB91Y","91","0","KIDNEY","8","7","0","683","kidney","8","2018-06-05 20:11:32","206324"
"A281NYJUA83Y3Y","cs_wg_full_v1_pilot1","36NEMU28XFEX83H54MZ0O46FG2QWMI","12","0","SPATULA","5","7","0","1859","spatula","5","2018-06-05 20:11:35","206325"
"A39XIQCFSCNHFU","cs_wg_full_v1_pilot1","31Z0PCVWUKGMVJ6O5BS0I22QHJHT7I","15","0","FLIGHT","12","7","0","948","FLIGHT","12","2018-06-05 20:11:37","206326"
"ASDOYPL3T2CFL","cs_wg_full_v1_pilot1","3H7XDTSHKCSXGTLJTJ15BZMIKGEWGA","43","0","EARDRUM","6","7","1","1909","eardrum","6","2018-06-05 20:11:38","206327"
"ABKQ4J2P3CADD","cs_wg_full_v1_pilot1","3PJ71Z61R43P0II8IP6AQSA1KQB91Y","92","0","BULLET","5","7","1","849","bullet","5","2018-06-05 20:11:39","206328"
"A014297063OPPUEBTOLM","cs_wg_full_v1_pilot1","3O6CYIULED2GLBMEDOQMFEN9TOTWUA","39","0","BEAVER","3","7","1","2074","beaver","3","2018-06-05 20:11:41","206329"
"A3HZ8JZAJB124J","cs_wg_full_v1_pilot1","3PDJHANYK5HDMA1OM76JY5Z6BEZ6HJ","39","0","PRIEST","16","7","1","2759","preist","16","2018-06-05 20:11:42","206330"
"A3DAQQDUWAZ6LA","cs_wg_full_v1_pilot1","35DR22AR5DLBBHEL89Q7UOBGPDG3X3","56","0","CABINET","5","7","0","868","CABINET ","5","2018-06-05 20:11:42","206331"
"A39XIQCFSCNHFU","cs_wg_full_v1_pilot1","31Z0PCVWUKGMVJ6O5BS0I22QHJHT7I","16","0","SCIENCE","5","7","1","1332","SCIENCE","5","2018-06-05 20:11:45","206332"
"ABKQ4J2P3CADD","cs_wg_full_v1_pilot1","3PJ71Z61R43P0II8IP6AQSA1KQB91Y","93","0","BULLET","5","7","0","747","bullet","5","2018-06-05 20:11:45","206333"
"ASDOYPL3T2CFL","cs_wg_full_v1_pilot1","3H7XDTSHKCSXGTLJTJ15BZMIKGEWGA","44","0","FRIEND","16","7","0","2508","friend","16","2018-06-05 20:11:51","206334"
"A3HZ8JZAJB124J","cs_wg_full_v1_pilot1","3PDJHANYK5HDMA1OM76JY5Z6BEZ6HJ","40","0","PLANET","8","7","1","2597","planet","8","2018-06-05 20:11:51","206335"
"ABKQ4J2P3CADD","cs_wg_full_v1_pilot1","3PJ71Z61R43P0II8IP6AQSA1KQB91Y","94","0","SHIVER","3","7","1","882","shiver","3","2018-06-05 20:11:51","206336"
"A3DAQQDUWAZ6LA","cs_wg_full_v1_pilot1","35DR22AR5DLBBHEL89Q7UOBGPDG3X3","57","0","BASKET","3","7","0","701","BASKET ","3","2018-06-05 20:11:53","206337"
"A39XIQCFSCNHFU","cs_wg_full_v1_pilot1","31Z0PCVWUKGMVJ6O5BS0I22QHJHT7I","17","0","SCIENCE","5","7","1","1276","SCIENCE","5","2018-06-05 20:11:54","206338"
"A014297063OPPUEBTOLM","cs_wg_full_v1_pilot1","3O6CYIULED2GLBMEDOQMFEN9TOTWUA","40","0","PRIEST","16","7","0","1611","priest","16","2018-06-05 20:11:54","206339"
"A281NYJUA83Y3Y","cs_wg_full_v1_pilot1","36NEMU28XFEX83H54MZ0O46FG2QWMI","13","0","FIREFLY","17","7","0","1715","firefly","17","2018-06-05 20:11:57","206340"
"ABKQ4J2P3CADD","cs_wg_full_v1_pilot1","3PJ71Z61R43P0II8IP6AQSA1KQB91Y","95","0","FLIGHT","12","7","0","770","flight","12","2018-06-05 20:11:58","206341"
"A3HZ8JZAJB124J","cs_wg_full_v1_pilot1","3PDJHANYK5HDMA1OM76JY5Z6BEZ6HJ","41","0","PLANET","8","7","0","2008","planet","8","2018-06-05 20:12:00","206342"
"A3DAQQDUWAZ6LA","cs_wg_full_v1_pilot1","35DR22AR5DLBBHEL89Q7UOBGPDG3X3","58","0","SPONGE","8","7","0","677","SPONGE ","8","2018-06-05 20:12:03","206343"
"A39XIQCFSCNHFU","cs_wg_full_v1_pilot1","31Z0PCVWUKGMVJ6O5BS0I22QHJHT7I","18","0","BULLET","5","7","0","2744","BULLET","5","2018-06-05 20:12:04","206344"
"ASDOYPL3T2CFL","cs_wg_full_v1_pilot1","3H7XDTSHKCSXGTLJTJ15BZMIKGEWGA","45","0","JACKET","9","7","1","3963","jacket","9","2018-06-05 20:12:05","206345"
"A281NYJUA83Y3Y","cs_wg_full_v1_pilot1","36NEMU28XFEX83H54MZ0O46FG2QWMI","14","0","BLANKET","3","7","0","916","Blankey","3","2018-06-05 20:12:05","206346"
"ABKQ4J2P3CADD","cs_wg_full_v1_pilot1","3PJ71Z61R43P0II8IP6AQSA1KQB91Y","96","0","SUNBURN","5","7","1","852","sunburn","5","2018-06-05 20:12:06","206347"
"A3HZ8JZAJB124J","cs_wg_full_v1_pilot1","3PDJHANYK5HDMA1OM76JY5Z6BEZ6HJ","42","0","BUDGET","12","7","0","1951","budget","12","2018-06-05 20:12:09","206348"
"A014297063OPPUEBTOLM","cs_wg_full_v1_pilot1","3O6CYIULED2GLBMEDOQMFEN9TOTWUA","41","0","LIQUID","5","7","1","3750","liquid","5","2018-06-05 20:12:11","206349"
"A39XIQCFSCNHFU","cs_wg_full_v1_pilot1","31Z0PCVWUKGMVJ6O5BS0I22QHJHT7I","19","0","BULLET","5","7","1","1782","BULLET","5","2018-06-05 20:12:13","206350"
"A3DAQQDUWAZ6LA","cs_wg_full_v1_pilot1","35DR22AR5DLBBHEL89Q7UOBGPDG3X3","59","0","BULLET","5","7","0","860","BULLET ","5","2018-06-05 20:12:14","206351"
"ABKQ4J2P3CADD","cs_wg_full_v1_pilot1","3PJ71Z61R43P0II8IP6AQSA1KQB91Y","97","0","SHIVER","3","7","1","711","shiver","
3","2018-06-05 20:12:15","206352"
"ASDOYPL3T2CFL","cs_wg_full_v1_pilot1","3H7XDTSHKCSXGTLJTJ15BZMIKGEWGA","46","0","FRIEND","16","7","0","1756","friend","16","2018-06-05 20:12:16","206353"
"A281NYJUA83Y3Y","cs_wg_full_v1_pilot1","36NEMU28XFEX83H54MZ0O46FG2QWMI","15","0","BIKINI","8","7","0","3544","bikini ","8","2018-06-05 20:12:17","206354"
"A3HZ8JZAJB124J","cs_wg_full_v1_pilot1","3PDJHANYK5HDMA1OM76JY5Z6BEZ6HJ","43","0","HEAVEN","3","7","1","1687","heaven","3","2018-06-05 20:12:19","206355"
"A3DAQQDUWAZ6LA","cs_wg_full_v1_pilot1","35DR22AR5DLBBHEL89Q7UOBGPDG3X3","60","0","BULLET","5","7","0","341","BULLET ","5","2018-06-05 20:12:23","206356"
"A39XIQCFSCNHFU","cs_wg_full_v1_pilot1","31Z0PCVWUKGMVJ6O5BS0I22QHJHT7I","20","0","CANVAS","3","7","1","2093","CANVAS","3","2018-06-05 20:12:23","206357"
"A014297063OPPUEBTOLM","cs_wg_full_v1_pilot1","3O6CYIULED2GLBMEDOQMFEN9TOTWUA","42","0","LIQUID","5","7","1","1795","liquid","5","2018-06-05 20:12:23","206358"
"ABKQ4J2P3CADD","cs_wg_full_v1_pilot1","3PJ71Z61R43P0II8IP6AQSA1KQB91Y","98","0","SUNBURN","5","7","1","947","sunburn","5","2018-06-05 20:12:26","206359"
"A281NYJUA83Y3Y","cs_wg_full_v1_pilot1","36NEMU28XFEX83H54MZ0O46FG2QWMI","16","0","FIREFLY","17","7","0","869","Firefly","17","2018-06-05 20:12:28","206360"
"A3HZ8JZAJB124J","cs_wg_full_v1_pilot1","3PDJHANYK5HDMA1OM76JY5Z6BEZ6HJ","44","0","EARDRUM","6","7","0","2624","eardrum","6","2018-06-05 20:12:29","206361"
"ABKQ4J2P3CADD","cs_wg_full_v1_pilot1","3PJ71Z61R43P0II8IP6AQSA1KQB91Y","99","0","CRICKET","3","7","1","833","cricket","3","2018-06-05 20:12:30","206362"
"A39XIQCFSCNHFU","cs_wg_full_v1_pilot1","31Z0PCVWUKGMVJ6O5BS0I22QHJHT7I","21","0","TRAFFIC","17","7","0","901","TRAFFIC","17","2018-06-05 20:12:32","206363"
"A3DAQQDUWAZ6LA","cs_wg_full_v1_pilot1","35DR22AR5DLBBHEL89Q7UOBGPDG3X3","61","0","BULLET","5","7","0","237","BULLET ","5","2018-06-05 20:12:33","206364"
"A014297063OPPUEBTOLM","cs_wg_full_v1_pilot1","3O6CYIULED2GLBMEDOQMFEN9TOTWUA","43","0","MONKEY","9","7","0","2208","monkey","9","2018-06-05 20:12:36","206365"
"ABKQ4J2P3CADD","cs_wg_full_v1_pilot1","3PJ71Z61R43P0II8IP6AQSA1KQB91Y","100","0","KIDNEY","8","7","0","1211","kidney","8","2018-06-05 20:12:37","206366"
"A3HZ8JZAJB124J","cs_wg_full_v1_pilot1","3PDJHANYK5HDMA1OM76JY5Z6BEZ6HJ","45","0","HEAVEN","3","7","1","1488","heaven","3","2018-06-05 20:12:37","206367"
"A39XIQCFSCNHFU","cs_wg_full_v1_pilot1","31Z0PCVWUKGMVJ6O5BS0I22QHJHT7I","22","0","SPATULA","5","7","1","1822","SPATULA","5","2018-06-05 20:12:41","206368"
"A3DAQQDUWAZ6LA","cs_wg_full_v1_pilot1","35DR22AR5DLBBHEL89Q7UOBGPDG3X3","62","0","CELERY","16","7","0","1639","CELERY ","16","2018-06-05 20:12:44","206369"
"ASDOYPL3T2CFL","cs_wg_full_v1_pilot1","3H7XDTSHKCSXGTLJTJ15BZMIKGEWGA","47","0","HEAVEN","3","7","1","2468","tennis","3","2018-06-05 20:12:46","206370"
"A281NYJUA83Y3Y","cs_wg_full_v1_pilot1","36NEMU28XFEX83H54MZ0O46FG2QWMI","17","0","JUNGLE","12","7","0","1677","jungle ","12","2018-06-05 20:12:47","206371"
"A3HZ8JZAJB124J","cs_wg_full_v1_pilot1","3PDJHANYK5HDMA1OM76JY5Z6BEZ6HJ","46","0","BUDGET","12","7","0","2408","budget","12","2018-06-05 20:12:48","206372"
"A014297063OPPUEBTOLM","cs_wg_full_v1_pilot1","3O6CYIULED2GLBMEDOQMFEN9TOTWUA","44","0","BAPTISM","8","7","0","1636","baptism","8","2018-06-05 20:12:49","206373"
"ABKQ4J2P3CADD","cs_wg_full_v1_pilot1","3PJ71Z61R43P0II8IP6AQSA1KQB91Y","102","0","PARENT","16","7","0","1171","parent","16","2018-06-05 20:12:51","206374"
"A39XIQCFSCNHFU","cs_wg_full_v1_pilot1","31Z0PCVWUKGMVJ6O5BS0I22QHJHT7I","23","0","FLIGHT","12","7","0","1743","FLIGHT","12","2018-06-05 20:12:52","206375"
"A3DAQQDUWAZ6LA","cs_wg_full_v1_pilot1","35DR22AR5DLBBHEL89Q7UOBGPDG3X3","63","0","EARDRUM","6","7","0","773","EARDRUM ","6","2018-06-05 20:12:55","206376"
"A3HZ8JZAJB124J","cs_wg_full_v1_pilot1","3PDJHANYK5HDMA1OM76JY5Z6BEZ6HJ","47","0","JACKET","9","7","0","1623","jacket","9","2018-06-05 20:12:56","206377"
"A281NYJUA83Y3Y","cs_wg_full_v1_pilot1","36NEMU28XFEX83H54MZ0O46FG2QWMI","18","0","CANVAS","3","7","1","2890","canvas","3","2018-06-05 20:12:57","206378"
"ABKQ4J2P3CADD","cs_wg_full_v1_pilot1","3PJ71Z61R43P0II8IP6AQSA1KQB91Y","103","0","FLIGHT","12","7","0","693","flight","12","2018-06-05 20:12:58","206379"
"A39XIQCFSCNHFU","cs_wg_full_v1_pilot1","31Z0PCVWUKGMVJ6O5BS0I22QHJHT7I","24","0","WALRUS","6","7","1","1700","WALRUS","6","2018-06-05 20:13:00","206380"
"ASDOYPL3T2CFL","cs_wg_full_v1_pilot1","3H7XDTSHKCSXGTLJTJ15BZMIKGEWGA","48","0","TENNIS","5","7","1","4224","tennis","5","2018-06-05 20:13:01","206381"
"A014297063OPPUEBTOLM","cs_wg_full_v1_pilot1","3O6CYIULED2GLBMEDOQMFEN9TOTWUA","45","0","BEAVER","3","7","1","1893","beaver","3","2018-06-05 20:13:02","206382"
"A3HZ8JZAJB124J","cs_wg_full_v1_pilot1","3PDJHANYK5HDMA1OM76JY5Z6BEZ6HJ","48","0","EARDRUM","6","7","0","1837","eardrum","6","2018-06-05 20:13:05","206383"
"A3DAQQDUWAZ6LA","cs_wg_full_v1_pilot1","35DR22AR5DLBBHEL89Q7UOBGPDG3X3","64","0","CELERY","16","7","0","1006","CELERY ","16","2018-06-05 20:13:08","206384"
"A39XIQCFSCNHFU","cs_wg_full_v1_pilot1","31Z0PCVWUKGMVJ6O5BS0I22QHJHT7I","25","0","BULLET","5","7","1","1709","BULLET","5","2018-06-05 20:13:09","206385"
"A1XBKAX2AVXF2O","cs_wg_full_v1_pilot1","3FTOP5WARFPEZ5AZ8ITN1H5UB3N0JN","0","0","TENNIS","5","7","1","6944","zug","0.7","2018-06-05 20:13:10","206386"
"ABKQ4J2P3CADD","cs_wg_full_v1_pilot1","3PJ71Z61R43P0II8IP6AQSA1KQB91Y","105","0","SCIENCE","5","7","1","886","science","5","2018-06-05 20:13:12","206387"
"ASDOYPL3T2CFL","cs_wg_full_v1_pilot1","3H7XDTSHKCSXGTLJTJ15BZMIKGEWGA","49","0","JACKET","9","7","0","3189","jacket","9","2018-06-05 20:13:13","206388"
"A014297063OPPUEBTOLM","cs_wg_full_v1_pilot1","3O6CYIULED2GLBMEDOQMFEN9TOTWUA","46","0","BEAVER","3","7","1","1805","beaver","3","2018-06-05 20:13:14","206389"
"A3HZ8JZAJB124J","cs_wg_full_v1_pilot1","3PDJHANYK5HDMA1OM76JY5Z6BEZ6HJ","49","0","JACKET","9","7","0","2206","jacket","9","2018-06-05 20:13:15","206390"
"A3DAQQDUWAZ6LA","cs_wg_full_v1_pilot1","35DR22AR5DLBBHEL89Q7UOBGPDG3X3","65","0","EARDRUM","6","7","0","893","EARDRUM","6","2018-06-05 20:13:18","206391"
"A39XIQCFSCNHFU","cs_wg_full_v1_pilot1","31Z0PCVWUKGMVJ6O5BS0I22QHJHT7I","26","0","CANVAS","3","7","1","1110","CANVAS","3","2018-06-05 20:13:18","206392"
"ABKQ4J2P3CADD","cs_wg_full_v1_pilot1","3PJ71Z61R43P0II8IP6AQSA1KQB91Y","106","0","COFFEE","17","7","0","980","coffee","17","2018-06-05 20:13:18","206393"
"ABKQ4J2P3CADD","cs_wg_full_v1_pilot1","3PJ71Z61R43P0II8IP6AQSA1KQB91Y","101","0","FLIGHT","12","7","0","716","flight","12","2018-06-05 20:13:22","206394"
"ABKQ4J2P3CADD","cs_wg_full_v1_pilot1","3PJ71Z61R43P0II8IP6AQSA1KQB91Y","107","0","BIKINI","8","7","0","835","bikini","8","2018-06-05 20:13:25","206395"
"A3HZ8JZAJB124J","cs_wg_full_v1_pilot1","3PDJHANYK5HDMA1OM76JY5Z6BEZ6HJ","50","0","PILLAR","5","7","1","2459","pillar","5","2018-06-05 20:13:25","206396"
"A39XIQCFSCNHFU","cs_wg_full_v1_pilot1","31Z0PCVWUKGMVJ6O5BS0I22QHJHT7I","27","0","SPATULA","5","7","1","1549","SPATULA","5","2018-06-05 20:13:27","206397"
"ASDOYPL3T2CFL","cs_wg_full_v1_pilot1","3H7XDTSHKCSXGTLJTJ15BZMIKGEWGA","50","0","ADDICT","8","7","0","5438","addict","8","2018-06-05 20:13:28","206398"
"A3DAQQDUWAZ6LA","cs_wg_full_v1_pilot1","35DR22AR5DLBBHEL89Q7UOBGPDG3X3","66","0","CELERY","16","7","0","1069","CELERY ","16","2018-06-05 20:13:29","206399"
"ABKQ4J2P3CADD","cs_wg_full_v1_pilot1","3PJ71Z61R43P0II8IP6AQSA1KQB91Y","104","0","TURKEY","9","7","1","1106","turkey","9","2018-06-05 20:13:29","206400"
"ABKQ4J2P3CADD","cs_wg_full_v1_pilot1","3PJ71Z61R43P0II8IP6AQSA1KQB91Y","108","0","CRICKET","3","7","1","1005","cricket","3","2018-06-05 20:13:32","206401"
"A014297063OPPUEBTOLM","cs_wg_full_v1_pilot1","3O6CYIULED2GLBMEDOQMFEN9TOTWUA","47","0","PRIEST","16","7","0","2591","priest","16","2018-06-05 20:13:35","206402"
"A3HZ8JZAJB124J","cs_wg_full_v1_pilot1","3PDJHANYK5HDMA1OM76JY5Z6BEZ6HJ","51","0","PLANET","8","7","0","1713","planet","8","2018-06-05 20:13:36","206403"
"A39XIQCFSCNHFU","cs_wg_full_v1_pilot1","31Z0PCVWUKGMVJ6O5BS0I22QHJHT7I","28","0","PICKLE","9","7","0","2207","PICKLE","9","2018-06-05 20:13:37","206404"
"ASDOYPL3T2CFL","cs_wg_full_v1_pilot1","3H7XDTSHKCSXGTLJTJ15BZMIKGEWGA","51","0","TENNIS","5","7","1","2935","tennis","5","2018-06-05 20:13:40","206405"
"ABKQ4J2P3CADD","cs_wg_full_v1_pilot1","3PJ71Z61R43P0II8IP6AQSA1KQB91Y","109","0","CRICKET","3","7","1","820","cricket","3","2018-06-05 20:13:40","206406"
"A3HZ8JZAJB124J","cs_wg_full_v1_pilot1","3PDJHANYK5HDMA1OM76JY5Z6BEZ6HJ","52","0","CABINET","5","7","0","1437","cabinet","5","2018-06-05 20:13:44","206407"
"A39XIQCFSCNHFU","cs_wg_full_v1_pilot1","31Z0PCVWUKGMVJ6O5BS0I22QHJHT7I","29","0","BULLET","5","7","1","1717","BULLET","5","2018-06-05 20:13:46","206408"
"A1XBKAX2AVXF2O","cs_wg_full_v1_pilot1","3FTOP5WARFPEZ5AZ8ITN1H5UB3N0JN","1","0","WAFFLE","17","7","1","3953","waffle","17","2018-06-05 20:13:48","206409"
"ABKQ4J2P3CADD","cs_wg_full_v1_pilot1","3PJ71Z61R43P0II8IP6AQSA1KQB91Y","110","0","FLIGHT","12","7","0","1843","flight","12","2018-06-05 20:13:48","206410"
"A014297063OPPUEBTOLM","cs_wg_full_v1_pilot1","3O6CYIULED2GLBMEDOQMFEN9TOTWUA","48","0","WALRUS","6","7","1","1889","walrus","6","2018-06-05 20:13:48","206411"
"A3DAQQDUWAZ6LA","cs_wg_full_v1_pilot1","35DR22AR5DLBBHEL89Q7UOBGPDG3X3","67","0","EARDRUM","6","7","0","12366","EARDRUM ","6","2018-06-05 20:13:50","206412"
"A3HZ8JZAJB124J","cs_wg_full_v1_pilot1","3PDJHANYK5HDMA1OM76JY5Z6BEZ6HJ","53","0","COFFIN","17","7","0","1558","coffin","17","2018-06-05 20:13:54","206413"
"ASDOYPL3T2CFL","cs_wg_full_v1_pilot1","3H7XDTSHKCSXGTLJTJ15BZMIKGEWGA","52","0","JACKET","9","7","0","3125","jacket","9","2018-06-05 20:13:55","206414"
"ABKQ4J2P3CADD","cs_wg_full_v1_pilot1","3PJ71Z61R43P0II8IP6AQSA1KQB91Y","111","0","TURKEY","9","7","0","1411","turkey","9","2018-06-05 20:13:55","206415"
"A39XIQCFSCNHFU","cs_wg_full_v1_pilot1","31Z0PCVWUKGMVJ6O5BS0I22QHJHT7I","30","0","PICKLE","9","7","1","1741","PICKLE","9","2018-06-05 20:13:58","206416"
"A2LLFJURME73XE","cs_wg_full_v1_pilot1","39JEC7537U27KS591N0QZ6IPFFLVCQ","0","0","HEAVEN","3","7","1","20001","HEAVEN ","3","2018-06-05 20:13:59","206417"
"A3DAQQDUWAZ6LA","cs_wg_full_v1_pilot1","35DR22AR5DLBBHEL89Q7UOBGPDG3X3","68","0","EARDRUM","6","7","0","916","EARDRUM ","6","2018-06-05 20:14:00","206418"
"A014297063OPPUEBTOLM","cs_wg_full_v1_pilot1","3O6CYIULED2GLBMEDOQMFEN9TOTWUA","49","0","MONKEY","9","7","0","1443","monkey","9","2018-06-05 20:14:01","206419"
"ABKQ4J2P3CADD","cs_wg_full_v1_pilot1","3PJ71Z61R43P0II8IP6AQSA1KQB91Y","112","0","SUNBURN","5","7","1","947","sunburn","5","2018-06-05 20:14:03","206420"
"A3HZ8JZAJB124J","cs_wg_full_v1_pilot1","3PDJHANYK5HDMA1OM76JY5Z6BEZ6HJ","54","0","BUDGET","12","7","1","1979","budget","12","2018-06-05 20:14:03","206421"
"A1XBKAX2AVXF2O","cs_wg_full_v1_pilot1","3FTOP5WARFPEZ5AZ8ITN1H5UB3N0JN","2","0","SUNBURN","5","7","0","3387","wafrin","5","2018-06-05 20:14:04","206422"
"A39XIQCFSCNHFU","cs_wg_full_v1_pilot1","31Z0PCVWUKGMVJ6O5BS0I22QHJHT7I","31","0","PICKLE","9","7","0","1157","PICKLE","9","2018-06-05 20:14:07","206423"
"ASDOYPL3T2CFL","cs_wg_full_v1_pilot1","3H7XDTSHKCSXGTLJTJ15BZMIKGEWGA","53","0","TENNIS","5","7","1","2286","tennis","5","2018-06-05 20:14:10","206424"
"A3DAQQDUWAZ6LA","cs_wg_full_v1_pilot1","35DR22AR5DLBBHEL89Q7UOBGPDG3X3","69","0","LIQUID","5","7","0","709","LIQUID ","5","2018-06-05 20:14:10","206425"
"ABKQ4J2P3CADD","cs_wg_full_v1_pilot1","3PJ71Z61R43P0II8IP6AQSA1KQB91Y","113","0","SHIVER","3","7","1","906","shiver","3","2018-06-05 20:14:11","206426"
"A281NYJUA83Y3Y","cs_wg_full_v1_pilot1","36NEMU28XFEX83H54MZ0O46FG2QWMI","19","0","BAKERY","16","7","0","974","bakery","16","2018-06-05 20:14:11","206427"
"A014297063OPPUEBTOLM","cs_wg_full_v1_pilot1","3O6CYIULED2GLBMEDOQMFEN9TOTWUA","50","0","COFFIN","17","7","0","1297","coffin","17","2018-06-05 20:14:15","206428"
"A1XBKAX2AVXF2O","cs_wg_full_v1_pilot1","3FTOP5WARFPEZ5AZ8ITN1H5UB3N0JN","3","0","HEAVEN","3","7","0","3221","heaven","3","2018-06-05 20:14:16","206429"
"A3HZ8JZAJB124J","cs_wg_full_v1_pilot1","3PDJHANYK5HDMA1OM76JY5Z6BEZ6HJ","55","0","BASKET","3","7","0","1579","basket","3","2018-06-05 20:14:17","206430"
"A39XIQCFSCNHFU","cs_wg_full_v1_pilot1","31Z0PCVWUKGMVJ6O5BS0I22QHJHT7I","32","0","KIDNEY","8","7","1","2365","KIDNEY","8","2018-06-05 20:14:17","206431"
"ABKQ4J2P3CADD","cs_wg_full_v1_pilot1","3PJ71Z61R43P0II8IP6AQSA1KQB91Y","114","0","CHURCH","6","7","1","1482","church","6","2018-06-05 20:14:18","206432"
"A2LLFJURME73XE","cs_wg_full_v1_pilot1","39JEC7537U27KS591N0QZ6IPFFLVCQ","1","0","PILLAR","5","7","1","7166","PILLAR ","5","2018-06-05 20:14:18","206433"
"A3DAQQDUWAZ6LA","cs_wg_full_v1_pilot1","35DR22AR5DLBBHEL89Q7UOBGPDG3X3","70","0","BASKET","3","7","0","406","BASKET ","3","2018-06-05 20:14:20","206434"
"ASDOYPL3T2CFL","cs_wg_full_v1_pilot1","3H7XDTSHKCSXGTLJTJ15BZMIKGEWGA","54","0","FRIEND","16","7","0","2562","friend","16","2018-06-05 20:14:22","206435"
"ABKQ4J2P3CADD","cs_wg_full_v1_pilot1","3PJ71Z61R43P0II8IP6AQSA1KQB91Y","115","0","FLIGHT","12","7","0","813","flight","12","2018-06-05 20:14:24","206436"
"A281NYJUA83Y3Y","cs_wg_full_v1_pilot1","36NEMU28XFEX83H54MZ0O46FG2QWMI","20","0","CANVAS","3","7","0","5231","canvas","3","2018-06-05 20:14:26","206437"
"A3HZ8JZAJB124J","cs_wg_full_v1_pilot1","3PDJHANYK5HDMA1OM76JY5Z6BEZ6HJ","56","0","HEAVEN","3","7","1","1681","heaven","3","2018-06-05 20:14:26","206438"
"A014297063OPPUEBTOLM","cs_wg_full_v1_pilot1","3O6CYIULED2GLBMEDOQMFEN9TOTWUA","51","0","WALRUS","6","7","1","2032","walrus","6","2018-06-05 20:14:28","206439"
"A39XIQCFSCNHFU","cs_wg_full_v1_pilot1","31Z0PCVWUKGMVJ6O5BS0I22QHJHT7I","33","0","SPATULA","5","7","1","1554","SPATULA","5","2018-06-05 20:14:28","206440"
"A3DAQQDUWAZ6LA","cs_wg_full_v1_pilot1","35DR22AR5DLBBHEL89Q7UOBGPDG3X3","71","0","CABINET","5","7","0","572","CABINET ","5","2018-06-05 20:14:29","206441"
"ABKQ4J2P3CADD","cs_wg_full_v1_pilot1","3PJ71Z61R43P0II8IP6AQSA1KQB91Y","116","0","KIDNEY","8","7","0","1269","kidney","8","2018-06-05 20:14:31","206442"
"A2LLFJURME73XE","cs_wg_full_v1_pilot1","39JEC7537U27KS591N0QZ6IPFFLVCQ","2","0","JUNGLE","12","7","0","3608","JUNGLE","12","2018-06-05 20:14:32","206443"
"A1XBKAX2AVXF2O","cs_wg_full_v1_pilot1","3FTOP5WARFPEZ5AZ8ITN1H5UB3N0JN","4","0","PLANET","8","7","1","3228","planet","8","2018-06-05 20:14:33","206444"
"A281NYJUA83Y3Y","cs_wg_full_v1_pilot1","36NEMU28XFEX83H54MZ0O46FG2QWMI","21","0","BLANKET","3","7","0","2013","blanket","3","2018-06-05 20:14:35","206445"
"A3HZ8JZAJB124J","cs_wg_full_v1_pilot1","3PDJHANYK5HDMA1OM76JY5Z6BEZ6HJ","57","0","PILLAR","5","7","0","1582","pillar","5","2018-06-05 20:14:36","206446"
"ABKQ4J2P3CADD","cs_wg_full_v1_pilot1","3PJ71Z61R43P0II8IP6AQSA1KQB91Y","117","0","COFFEE","17","7","0","1063","coffee","17","2018-06-05 20:14:38","206447"
"A3DAQQDUWAZ6LA","cs_wg_full_v1_pilot1","35DR22AR5DLBBHEL89Q7UOBGPDG3X3","72","0","CELERY","16","7","0","1117","CELERY ","16","2018-06-05 20:14:40","206448"
"A39XIQCFSCNHFU","cs_wg_full_v1_pilot1","31Z0PCVWUKGMVJ6O5BS0I22QHJHT7I","34","0","BAGPIPE","8","7","1","4580","BAGPIPE","8","2018-06-05 20:14:42","206449"
"A014297063OPPUEBTOLM","cs_wg_full_v1_pilot1","3O6CYIULED2GLBMEDOQMFEN9TOTWUA","52","0","BROWNIE","5","7","1","3100","brownie","5","2018-06-05 20:14:42","206450"
"A281NYJUA83Y3Y","cs_wg_full_v1_pilot1","36NEMU28XFEX83H54MZ0O46FG2QWMI","22","0","JUNGLE","12","7","0","1218","jungle","12","2018-06-05 20:14:43","206451"
"ABKQ4J2P3CADD","cs_wg_full_v1_pilot1","3PJ71Z61R43P0II8IP6AQSA1KQB91Y","118","0","SHIVER","3","7","1","756","shiver","3","2018-06-05 20:14:45","206452"
"A3HZ8JZAJB124J","cs_wg_full_v1_pilot1","3PDJHANYK5HDMA1OM76JY5Z6BEZ6HJ","58","0","PILLAR","5","7","1","2713","pillar","5","2018-06-05 20:14:46","206453"
"A2LLFJURME73XE","cs_wg_full_v1_pilot1","39JEC7537U27KS591N0QZ6IPFFLVCQ","3","0","PICTURE","5","7","0","3274","PICTURE","5","2018-06-05 20:14:48","206454"
"A281NYJUA83Y3Y","cs_wg_full_v1_pilot1","36NEMU28XFEX83H54MZ0O46FG2QWMI","23","0","CHIMNEY","8","7","0","1011","Chimney","8","2018-06-05 20:14:51","206455"
"A3DAQQDUWAZ6LA","cs_wg_full_v1_pilot1","35DR22AR5DLBBHEL89Q7UOBGPDG3X3","73","0","FLIGHT","12","7","0","3622","FLIGHT","12","2018-06-05 20:14:52","206456"
"A1XBKAX2AVXF2O","cs_wg_full_v1_pilot1","3FTOP5WARFPEZ5AZ8ITN1H5UB3N0JN","5","0","CHORUS","6","7","1","2620","chorus","6","2018-06-05 20:14:52","206457"
"A39XIQCFSCNHFU","cs_wg_full_v1_pilot1","31Z0PCVWUKGMVJ6O5BS0I22QHJHT7I","35","0","FLIGHT","12","7","0","1045","FLIGHT","12","2018-06-05 20:14:52","206458"
"ABKQ4J2P3CADD","cs_wg_full_v1_pilot1","3PJ71Z61R43P0II8IP6AQSA1KQB91Y","119","0","CHURCH","6","7","1","1092","church","6","2018-06-05 20:14:53","206459"
"A3HZ8JZAJB124J","cs_wg_full_v1_pilot1","3PDJHANYK5HDMA1OM76JY5Z6BEZ6HJ","59","0","BASKET","3","7","0","1869","basket","3","2018-06-05 20:14:55","206460"
"A014297063OPPUEBTOLM","cs_wg_full_v1_pilot1","3O6CYIULED2GLBMEDOQMFEN9TOTWUA","53","0","BAPTISM","8","7","0","1391","baptism","8","2018-06-05 20:14:56","206461"
"A39XIQCFSCNHFU","cs_wg_full_v1_pilot1","31Z0PCVWUKGMVJ6O5BS0I22QHJHT7I","36","0","WALRUS","6","7","1","1213","WALRUS","6","2018-06-05 20:15:00","206462"
"A281NYJUA83Y3Y","cs_wg_full_v1_pilot1","36NEMU28XFEX83H54MZ0O46FG2QWMI","24","0","SPATULA","5","7","1","1958","spatula","5","2018-06-05 20:15:01","206463"
"A3DAQQDUWAZ6LA","cs_wg_full_v1_pilot1","35DR22AR5DLBBHEL89Q7UOBGPDG3X3","74","0","JACKET","9","7","0","382","JACKET ","9","2018-06-05 20:15:02","206464"
"A2LLFJURME73XE","cs_wg_full_v1_pilot1","39JEC7537U27KS591N0QZ6IPFFLVCQ","4","0","PRIEST","16","7","1","4772","PRIEST","16","2018-06-05 20:15:03","206465"
"ASDOYPL3T2CFL","cs_wg_full_v1_pilot1","3H7XDTSHKCSXGTLJTJ15BZMIKGEWGA","55","0","TENNIS","5","7","1","2045","tennis","5","2018-06-05 20:15:05","206466"
"A3HZ8JZAJB124J","cs_wg_full_v1_pilot1","3PDJHANYK5HDMA1OM76JY5Z6BEZ6HJ","60","0","JACKET","9","7","1","1923","jacket","9","2018-06-05 20:15:06","206467"
"A1XBKAX2AVXF2O","cs_wg_full_v1_pilot1","3FTOP5WARFPEZ5AZ8ITN1H5UB3N0JN","6","0","BAGPIPE","8","7","1","1515","badge","6","2018-06-05 20:15:07","206468"
"A39XIQCFSCNHFU","cs_wg_full_v1_pilot1","31Z0PCVWUKGMVJ6O5BS0I22QHJHT7I","37","0","SCIENCE","5","7","1","1236","SCIENCE","5","2018-06-05 20:15:09","206469"
"A014297063OPPUEBTOLM","cs_wg_full_v1_pilot1","3O6CYIULED2GLBMEDOQMFEN9TOTWUA","54","0","ROYALTY","5","7","1","5548","royalty","5","2018-06-05 20:15:13","206470"
"A39XIQCFSCNHFU","cs_wg_full_v1_pilot1","31Z0PCVWUKGMVJ6O5BS0I22QHJHT7I","38","0","CANVAS","3","7","1","1163","CANVAS","3","2018-06-05 20:15:17","206471"
"A2LLFJURME73XE","cs_wg_full_v1_pilot1","39JEC7537U27KS591N0QZ6IPFFLVCQ","5","0","BROWNIE","5","7","0","4326","BROWNIE","7","2018-06-05 20:15:19","206472"
"A3HZ8JZAJB124J","cs_wg_full_v1_pilot1","3PDJHANYK5HDMA1OM76JY5Z6BEZ6HJ","61","0","SPATULA","5","7","0","2246","spatula5","5","2018-06-05 20:15:19","206473"
"A3DAQQDUWAZ6LA","cs_wg_full_v1_pilot1","35DR22AR5DLBBHEL89Q7UOBGPDG3X3","75","0","FLIGHT","12","7","0","1093","FLIGHT ","9","2018-06-05 20:15:20","206474"
"ASDOYPL3T2CFL","cs_wg_full_v1_pilot1","3H7XDTSHKCSXGTLJTJ15BZMIKGEWGA","56","0","LIQUID","5","7","0","6015","liquid","5","2018-06-05 20:15:23","206475"
"A014297063OPPUEBTOLM","cs_wg_full_v1_pilot1","3O6CYIULED2GLBMEDOQMFEN9TOTWUA","55","0","BROWNIE","5","7","1","1519","brownie","5","2018-06-05 20:15:26","206476"
"A39XIQCFSCNHFU","cs_wg_full_v1_pilot1","31Z0PCVWUKGMVJ6O5BS0I22QHJHT7I","39","0","SCIENCE","5","7","1","1350","SCIENCE","5","2018-06-05 20:15:27","206477"
"A3HZ8JZAJB124J","cs_wg_full_v1_pilot1","3PDJHANYK5HDMA1OM76JY5Z6BEZ6HJ","62","0","PILLAR","5","7","1","2155","pillar","5","2018-06-05 20:15:29","206478"
"A3DAQQDUWAZ6LA","cs_wg_full_v1_pilot1","35DR22AR5DLBBHEL89Q7UOBGPDG3X3","76","0","JACKET","9","7","0","326","JACKET ","9","2018-06-05 20:15:30","206479"
"A2LLFJURME73XE","cs_wg_full_v1_pilot1","39JEC7537U27KS591N0QZ6IPFFLVCQ","6","0","EARDRUM","6","7","0","3282","EARDRUM","6","2018-06-05 20:15:33","206480"
"A1XBKAX2AVXF2O","cs_wg_full_v1_pilot1","3FTOP5WARFPEZ5AZ8ITN1H5UB3N0JN","7","0","BAGPIPE","8","7","1","15951","BAGPIPE ","6","2018-06-05 20:15:34","206481"
"A39XIQCFSCNHFU","cs_wg_full_v1_pilot1","31Z0PCVWUKGMVJ6O5BS0I22QHJHT7I","40","0","SCIENCE","5","7","1","1188","SCIENCE","5","2018-06-05 20:15:35","206482"
"ASDOYPL3T2CFL","cs_wg_full_v1_pilot1","3H7XDTSHKCSXGTLJTJ15BZMIKGEWGA","57","0","BULLET","5","7","1","2381","bullet","5","2018-06-05 20:15:38","206483"
"A014297063OPPUEBTOLM","cs_wg_full_v1_pilot1","3O6CYIULED2GLBMEDOQMFEN9TOTWUA","56","0","BEAVER","3","7","1","1478","beaver","3","2018-06-05 20:15:39","206484"
"A3DAQQDUWAZ6LA","cs_wg_full_v1_pilot1","35DR22AR5DLBBHEL89Q7UOBGPDG3X3","77","0","BASKET","3","7","0","2214","BASKET","3","2018-06-05 20:15:42","206485"
"A3HZ8JZAJB124J","cs_wg_full_v1_pilot1","3PDJHANYK5HDMA1OM76JY5Z6BEZ6HJ","63","0","CABINET","5","7","0","1332","cabinet","5","2018-06-05 20:15:43","206486"
"A39XIQCFSCNHFU","cs_wg_full_v1_pilot1","31Z0PCVWUKGMVJ6O5BS0I22QHJHT7I","41","0","CELERY","16","7","0","2141","CELERY","16","2018-06-05 20:15:44","206487"
"A1XBKAX2AVXF2O","cs_wg_full_v1_pilot1","3FTOP5WARFPEZ5AZ8ITN1H5UB3N0JN","8","0","CHICKEN","3","7","0","3652","CHICKEN","3","2018-06-05 20:15:45","206488"
"A2LLFJURME73XE","cs_wg_full_v1_pilot1","39JEC7537U27KS591N0QZ6IPFFLVCQ","7","0","PRIEST","16","7","1","2775","PRIEST","16","2018-06-05 20:15:47","206489"
"A014297063OPPUEBTOLM","cs_wg_full_v1_pilot1","3O6CYIULED2GLBMEDOQMFEN9TOTWUA","57","0","MONKEY","9","7","0","1305","monkey","9","2018-06-05 20:15:51","206490"
"A3DAQQDUWAZ6LA","cs_wg_full_v1_pilot1","35DR22AR5DLBBHEL89Q7UOBGPDG3X3","78","0","CASINO","8","7","0","573","CASINO ","8","2018-06-05 20:15:52","206491"
"A3HZ8JZAJB124J","cs_wg_full_v1_pilot1","3PDJHANYK5HDMA1OM76JY5Z6BEZ6HJ","64","0","HEAVEN","3","7","1","1481","heaven","3","2018-06-05 20:15:53","206492"
"A39XIQCFSCNHFU","cs_wg_full_v1_pilot1","31Z0PCVWUKGMVJ6O5BS0I22QHJHT7I","42","0","CELERY","16","7","0","876","CELERY","16","2018-06-05 20:15:54","206493"
"A1XBKAX2AVXF2O","cs_wg_full_v1_pilot1","3FTOP5WARFPEZ5AZ8ITN1H5UB3N0JN","9","0","CELERY","16","7","1","4195","CELERY","16","2018-06-05 20:15:59","206494"
"ASDOYPL3T2CFL","cs_wg_full_v1_pilot1","3H7XDTSHKCSXGTLJTJ15BZMIKGEWGA","58","0","CHICKEN","3","7","1","9772","chicken","3","2018-06-05 20:16:01","206495"
"A3DAQQDUWAZ6LA","cs_wg_full_v1_pilot1","35DR22AR5DLBBHEL89Q7UOBGPDG3X3","79","0","SPONGE","8","7","0","292","SPONGE ","8","2018-06-05 20:16:02","206496"
"A2LLFJURME73XE","cs_wg_full_v1_pilot1","39JEC7537U27KS591N0QZ6IPFFLVCQ","8","0","JACKET","9","7","1","4495","JACKET","9","2018-06-05 20:16:02","206497"
"A3HZ8JZAJB124J","cs_wg_full_v1_pilot1","3PDJHANYK5HDMA1OM76JY5Z6BEZ6HJ","65","0","PLANET","8","7","1","1887","plaent","8","2018-06-05 20:16:03","206498"
"A39XIQCFSCNHFU","cs_wg_full_v1_pilot1","31Z0PCVWUKGMVJ6O5BS0I22QHJHT7I","43","0","SPATULA","5","7","1","1341","SPATULA","7","2018-06-05 20:16:04","206499"
"A014297063OPPUEBTOLM","cs_wg_full_v1_pilot1","3O6CYIULED2GLBMEDOQMFEN9TOTWUA","58","0","WALRUS","6","7","1","2212","walrus","6","2018-06-05 20:16:04","206500"
"A1XBKAX2AVXF2O","cs_wg_full_v1_pilot1","3FTOP5WARFPEZ5AZ8ITN1H5UB3N0JN","10","0","FLIGHT","12","7","1","4795","FLIGHT","12","2018-06-05 20:16:11","206501"
"A3HZ8JZAJB124J","cs_wg_full_v1_pilot1","3PDJHANYK5HDMA1OM76JY5Z6BEZ6HJ","66","0","CABINET","5","7","1","1406","cabinet","5","2018-06-05 20:16:11","206502"
"A3DAQQDUWAZ6LA","cs_wg_full_v1_pilot1","35DR22AR5DLBBHEL89Q7UOBGPDG3X3","80","0","FLIGHT","12","7","0","643","FLIGHT ","12","2018-06-05 20:16:11","206503"
"ASDOYPL3T2CFL","cs_wg_full_v1_pilot1","3H7XDTSHKCSXGTLJTJ15BZMIKGEWGA","59","0","FLIGHT","12","7","0","1659","flight","12","2018-06-05 20:16:13","206504"
"A39XIQCFSCNHFU","cs_wg_full_v1_pilot1","31Z0PCVWUKGMVJ6O5BS0I22QHJHT7I","44","0","SPATULA","5","7","1","1805","SPATULA","5","2018-06-05 20:16:13","206505"
"A2LLFJURME73XE","cs_wg_full_v1_pilot1","39JEC7537U27KS591N0QZ6IPFFLVCQ","9","0","PICTURE","5","7","0","2911","PICTURE","5","2018-06-05 20:16:15","206506"
"A014297063OPPUEBTOLM","cs_wg_full_v1_pilot1","3O6CYIULED2GLBMEDOQMFEN9TOTWUA","59","0","COFFIN","17","7","0","1248","coffin","17","2018-06-05 20:16:16","206507"
"A3HZ8JZAJB124J","cs_wg_full_v1_pilot1","3PDJHANYK5HDMA1OM76JY5Z6BEZ6HJ","67","0","EARDRUM","6","7","1","2479","eardrum","6","2018-06-05 20:16:21","206508"
"A39XIQCFSCNHFU","cs_wg_full_v1_pilot1","31Z0PCVWUKGMVJ6O5BS0I22QHJHT7I","45","0","CRICKET","3","7","1","4029","CRICKET","3","2018-06-05 20:16:24","206509"
"A1XBKAX2AVXF2O","cs_wg_full_v1_pilot1","3FTOP5WARFPEZ5AZ8ITN1H5UB3N0JN","11","0","WAFFLE","17","7","1","4683","WAFFLE","17","2018-06-05 20:16:25","206510"
"A3DAQQDUWAZ6LA","cs_wg_full_v1_pilot1","35DR22AR5DLBBHEL89Q7UOBGPDG3X3","81","0","GIRAFFE","17","7","0","565","GIRAFFE ","17","2018-06-05 20:16:28","206511"
"A014297063OPPUEBTOLM","cs_wg_full_v1_pilot1","3O6CYIULED2GLBMEDOQMFEN9TOTWUA","60","0","MONKEY","9","7","0","1194","monkey","9","2018-06-05 20:16:29","206512"
"A3HZ8JZAJB124J","cs_wg_full_v1_pilot1","3PDJHANYK5HDMA1OM76JY5Z6BEZ6HJ","68","0","BUDGET","12","7","1","1550","budget","12","2018-06-05 20:16:30","206513"
"A2LLFJURME73XE","cs_wg_full_v1_pilot1","39JEC7537U27KS591N0QZ6IPFFLVCQ","10","0","KIDNEY","8","7","1","2889","KIDNEY","8","2018-06-05 20:16:30","206514"
"ASDOYPL3T2CFL","cs_wg_full_v1_pilot1","3H7XDTSHKCSXGTLJTJ15BZMIKGEWGA","60","0","FIREFLY","17","7","0","2104","firefly","17","2018-06-05 20:16:32","206515"
"A39XIQCFSCNHFU","cs_wg_full_v1_pilot1","31Z0PCVWUKGMVJ6O5BS0I22QHJHT7I","46","0","CRICKET","3","7","1","1108","CRICKET","3","2018-06-05 20:16:33","206516"
"A8YTY0RDR6AYX","cs_wg_full_v1_pilot1","36AHBNMV1RDYTE6S6UILQB41IWYYD1","0","0","BEGGAR","12","7","1","4355","beggar","7","2018-06-05 20:16:33","206517"
"A3DAQQDUWAZ6LA","cs_wg_full_v1_pilot1","35DR22AR5DLBBHEL89Q7UOBGPDG3X3","82","0","BULLET","5","7","0","734","BULLET ","5","2018-06-05 20:16:34","206518"
"A3HZ8JZAJB124J","cs_wg_full_v1_pilot1","3PDJHANYK5HDMA1OM76JY5Z6BEZ6HJ","69","0","COFFIN","17","7","1","2195","coffin","17","2018-06-05 20:16:39","206519"
"A281NYJUA83Y3Y","cs_wg_full_v1_pilot1","36NEMU28XFEX83H54MZ0O46FG2QWMI","25","0","EARDRUM","6","7","0","8290","eardrum","6","2018-06-05 20:16:41","206520"
"A1XBKAX2AVXF2O","cs_wg_full_v1_pilot1","3FTOP5WARFPEZ5AZ8ITN1H5UB3N0JN","12","0","HEAVEN","3","7","0","7782","HEAVEN","5","2018-06-05 20:16:41","206521"
"A39XIQCFSCNHFU","cs_wg_full_v1_pilot1","31Z0PCVWUKGMVJ6O5BS0I22QHJHT7I","47","0","CRICKET","3","7","1","1364","CRICKET","3","2018-06-05 20:16:41","206522"
"A014297063OPPUEBTOLM","cs_wg_full_v1_pilot1","3O6CYIULED2GLBMEDOQMFEN9TOTWUA","61","0","ROYALTY","5","7","1","2075","royalty","5","2018-06-05 20:16:42","206523"
"A2LLFJURME73XE","cs_wg_full_v1_pilot1","39JEC7537U27KS591N0QZ6IPFFLVCQ","11","0","PILLAR","5","7","0","3354","PILLAR","5","2018-06-05 20:16:44","206524"
"ASDOYPL3T2CFL","cs_wg_full_v1_pilot1","3H7XDTSHKCSXGTLJTJ15BZMIKGEWGA","61","0","CHICKEN","3","7","1","3361","chicken","3","2018-06-05 20:16:45","206525"
"A3DAQQDUWAZ6LA","cs_wg_full_v1_pilot1","35DR22AR5DLBBHEL89Q7UOBGPDG3X3","83","0","CASINO","8","7","0","645","CASINO ","8","2018-06-05 20:16:46","206526"
"A3HZ8JZAJB124J","cs_wg_full_v1_pilot1","3PDJHANYK5HDMA1OM76JY5Z6BEZ6HJ","70","0","PRIEST","16","7","0","2617","priest","16","2018-06-05 20:16:49","206527"
"A281NYJUA83Y3Y","cs_wg_full_v1_pilot1","36NEMU28XFEX83H54MZ0O46FG2QWMI","26","0","SPATULA","5","7","1","1922","spatula","6","2018-06-05 20:16:51","206528"
"A39XIQCFSCNHFU","cs_wg_full_v1_pilot1","31Z0PCVWUKGMVJ6O5BS0I22QHJHT7I","48","0","PICKLE","9","7","0","2079","PICKLE","9","2018-06-05 20:16:51","206529"
"A3DAQQDUWAZ6LA","cs_wg_full_v1_pilot1","35DR22AR5DLBBHEL89Q7UOBGPDG3X3","84","0","LIQUID","5","7","0","837","LIQUID ","5","2018-06-05 20:16:56","206530"
"A3HZ8JZAJB124J","cs_wg_full_v1_pilot1","3PDJHANYK5HDMA1OM76JY5Z6BEZ6HJ","71","0","COFFIN","17","7","0","1591","coffin","17","2018-06-05 20:16:58","206531"
"A8YTY0RDR6AYX","cs_wg_full_v1_pilot1","36AHBNMV1RDYTE6S6UILQB41IWYYD1","1","0","BATTERY","16","7","1","8296","battery","16","2018-06-05 20:16:58","206532"
"A014297063OPPUEBTOLM","cs_wg_full_v1_pilot1","3O6CYIULED2GLBMEDOQMFEN9TOTWUA","62","0","BAPTISM","8","7","0","1424","baptism","8","2018-06-05 20:16:58","206533"
"A39XIQCFSCNHFU","cs_wg_full_v1_pilot1","31Z0PCVWUKGMVJ6O5BS0I22QHJHT7I","49","0","FLIGHT","12","7","0","637","FLIGHT","12","2018-06-05 20:16:59","206534"
"A281NYJUA83Y3Y","cs_wg_full_v1_pilot1","36NEMU28XFEX83H54MZ0O46FG2QWMI","27","0","MONKEY","9","7","0","1478","monkey","9","2018-06-05 20:16:59","206535"
"A2LLFJURME73XE","cs_wg_full_v1_pilot1","39JEC7537U27KS591N0QZ6IPFFLVCQ","12","0","EARDRUM","6","7","0","2493","endarum","6","2018-06-05 20:17:03","206536"
"ASDOYPL3T2CFL","cs_wg_full_v1_pilot1","3H7XDTSHKCSXGTLJTJ15BZMIKGEWGA","62","0","CHICKEN","3","7","1","3343","chicken","3","2018-06-05 20:17:06","206537"
"A3DAQQDUWAZ6LA","cs_wg_full_v1_pilot1","35DR22AR5DLBBHEL89Q7UOBGPDG3X3","85","0","GIRAFFE","17","7","0","901","GIRAFFE","17","2018-06-05 20:17:07","206538"
"A39XIQCFSCNHFU","cs_wg_full_v1_pilot1","31Z0PCVWUKGMVJ6O5BS0I22QHJHT7I","50","0","WALRUS","6","7","1","1189","WALRUS","6","2018-06-05 20:17:07","206539"
"A3HZ8JZAJB124J","cs_wg_full_v1_pilot1","3PDJHANYK5HDMA1OM76JY5Z6BEZ6HJ","72","0","SPATULA","5","7","1","1925","spatula","5","2018-06-05 20:17:07","206540"
"A8YTY0RDR6AYX","cs_wg_full_v1_pilot1","36AHBNMV1RDYTE6S6UILQB41IWYYD1","2","0","EARDRUM","6","7","1","3691","eardrum","6","2018-06-05 20:17:12","206541"
"A281NYJUA83Y3Y","cs_wg_full_v1_pilot1","36NEMU28XFEX83H54MZ0O46FG2QWMI","28","0","BLANKET","3","7","0","1324","blanket","3","2018-06-05 20:17:13","206542"
"A2LLFJURME73XE","cs_wg_full_v1_pilot1","39JEC7537U27KS591N0QZ6IPFFLVCQ","13","0","HEAVEN","3","7","0","1757","HEAVEN","3","2018-06-05 20:17:15","206543"
"A3DAQQDUWAZ6LA","cs_wg_full_v1_pilot1","35DR22AR5DLBBHEL89Q7UOBGPDG3X3","86","0","SILVER","3","7","0","430","SILVER ","3","2018-06-05 20:17:16","206544"
"A3HZ8JZAJB124J","cs_wg_full_v1_pilot1","3PDJHANYK5HDMA1OM76JY5Z6BEZ6HJ","73","0","CABINET","5","7","1","2061","cabinet","5","2018-06-05 20:17:16","206545"
"A39XIQCFSCNHFU","cs_wg_full_v1_pilot1","31Z0PCVWUKGMVJ6O5BS0I22QHJHT7I","51","0","BAGPIPE","8","7","0","2613","BAGPIPE","8","2018-06-05 20:17:17","206546"
"ASDOYPL3T2CFL","cs_wg_full_v1_pilot1","3H7XDTSHKCSXGTLJTJ15BZMIKGEWGA","63","0","JACKET","9","7","0","2706","jacket","9","2018-06-05 20:17:19","206547"
"A8YTY0RDR6AYX","cs_wg_full_v1_pilot1","36AHBNMV1RDYTE6S6UILQB41IWYYD1","3","0","NICKEL","3","7","0","1716","nickel","3","2018-06-05 20:17:23","206548"
"A3DAQQDUWAZ6LA","cs_wg_full_v1_pilot1","35DR22AR5DLBBHEL89Q7UOBGPDG3X3","87","0","FLIGHT","12","7","0","268","FLIGHT ","12","2018-06-05 20:17:26","206549"
"A3HZ8JZAJB124J","cs_wg_full_v1_pilot1","3PDJHANYK5HDMA1OM76JY5Z6BEZ6HJ","74","0","PRIEST","16","7","0","2252","priest","16","2018-06-05 20:17:27","206550"
"A2LLFJURME73XE","cs_wg_full_v1_pilot1","39JEC7537U27KS591N0QZ6IPFFLVCQ","14","0","PILLAR","5","7","0","1753","PILLAR","5","2018-06-05 20:17:28","206551"
"A39XIQCFSCNHFU","cs_wg_full_v1_pilot1","31Z0PCVWUKGMVJ6O5BS0I22QHJHT7I","52","0","KIDNEY","8","7","1","3262","KIDNEY","8","2018-06-05 20:17:28","206552"
"A281NYJUA83Y3Y","cs_wg_full_v1_pilot1","36NEMU28XFEX83H54MZ0O46FG2QWMI","29","0","BLANKET","3","7","1","1437","blanket","3","2018-06-05 20:17:31","206553"
"ASDOYPL3T2CFL","cs_wg_full_v1_pilot1","3H7XDTSHKCSXGTLJTJ15BZMIKGEWGA","64","0","FLIGHT","12","7","0","1636","flight","12","2018-06-05 20:17:32","206554"
"A8YTY0RDR6AYX","cs_wg_full_v1_pilot1","36AHBNMV1RDYTE6S6UILQB41IWYYD1","4","0","NICKEL","3","7","0","2715","nickel","3","2018-06-05 20:17:35","206555"
"A3DAQQDUWAZ6LA","cs_wg_full_v1_pilot1","35DR22AR5DLBBHEL89Q7UOBGPDG3X3","88","0","LIQUID","5","7","0","869","LIQUID ","12","2018-06-05 20:17:36","206556"
"A3HZ8JZAJB124J","cs_wg_full_v1_pilot1","3PDJHANYK5HDMA1OM76JY5Z6BEZ6HJ","75","0","PILLAR","5","7","1","1924","pillar","5","2018-06-05 20:17:36","206557"
"A014297063OPPUEBTOLM","cs_wg_full_v1_pilot1","3O6CYIULED2GLBMEDOQMFEN9TOTWUA","63","0","PRIEST","16","7","0","2130","priest","16","2018-06-05 20:17:37","206558"
"A39XIQCFSCNHFU","cs_wg_full_v1_pilot1","31Z0PCVWUKGMVJ6O5BS0I22QHJHT7I","53","0","CRICKET","3","7","1","2293","CRICKET","3","2018-06-05 20:17:37","206559"
"A281NYJUA83Y3Y","cs_wg_full_v1_pilot1","36NEMU28XFEX83H54MZ0O46FG2QWMI","30","0","MONKEY","9","7","0","940","monkey","9","2018-06-05 20:17:39","206560"
"A2LLFJURME73XE","cs_wg_full_v1_pilot1","39JEC7537U27KS591N0QZ6IPFFLVCQ","15","0","PILLAR","5","7","1","2495","PILLAR","5","2018-06-05 20:17:41","206561"
"A39XIQCFSCNHFU","cs_wg_full_v1_pilot1","31Z0PCVWUKGMVJ6O5BS0I22QHJHT7I","54","0","CRICKET","3","7","1","1347","CRICKET","3","2018-06-05 20:17:46","206562"
"ASDOYPL3T2CFL","cs_wg_full_v1_pilot1","3H7XDTSHKCSXGTLJTJ15BZMIKGEWGA","65","0","HEAVEN","3","7","1","2675","heaven","3","2018-06-05 20:17:46","206563"
"A8YTY0RDR6AYX","cs_wg_full_v1_pilot1","36AHBNMV1RDYTE6S6UILQB41IWYYD1","5","0","MAGNET","8","7","1","4370","magnet","8","2018-06-05 20:17:48","206564"
"A3HZ8JZAJB124J","cs_wg_full_v1_pilot1","3PDJHANYK5HDMA1OM76JY5Z6BEZ6HJ","76","0","DOMINO","8","7","1","3032","domino","8","2018-06-05 20:17:48","206565"
"A014297063OPPUEBTOLM","cs_wg_full_v1_pilot1","3O6CYIULED2GLBMEDOQMFEN9TOTWUA","64","0","PRIEST","16","7","0","1630","priest","16","2018-06-05 20:17:51","206566"
"A2LLFJURME73XE","cs_wg_full_v1_pilot1","39JEC7537U27KS591N0QZ6IPFFLVCQ","16","0","BROWNIE","5","7","0","1449","BROWNIE","5","2018-06-05 20:17:53","206567"
"A3DAQQDUWAZ6LA","cs_wg_full_v1_pilot1","35DR22AR5DLBBHEL89Q7UOBGPDG3X3","89","0","BASKET","3","7","0","773","BASKET ","9","2018-06-05 20:17:53","206568"
"A281NYJUA83Y3Y","cs_wg_full_v1_pilot1","36NEMU28XFEX83H54MZ0O46FG2QWMI","31","0","CHIMNEY","8","7","0","1586","chimney","8","2018-06-05 20:17:56","206569"
"A39XIQCFSCNHFU","cs_wg_full_v1_pilot1","31Z0PCVWUKGMVJ6O5BS0I22QHJHT7I","55","0","FLIGHT","12","7","0","1020","FLIGHT","12","2018-06-05 20:17:57","206570"
"A3HZ8JZAJB124J","cs_wg_full_v1_pilot1","3PDJHANYK5HDMA1OM76JY5Z6BEZ6HJ","77","0","BASKET","3","7","1","1832","basket","3","2018-06-05 20:17:57","206571"
"ASDOYPL3T2CFL","cs_wg_full_v1_pilot1","3H7XDTSHKCSXGTLJTJ15BZMIKGEWGA","66","0","FLIGHT","12","7","0","1514","flight","12","2018-06-05 20:18:03","206572"
"A3DAQQDUWAZ6LA","cs_wg_full_v1_pilot1","35DR22AR5DLBBHEL89Q7UOBGPDG3X3","90","0","JACKET","9","7","0","614","JACKET ","8","2018-06-05 20:18:05","206573"
"A39XIQCFSCNHFU","cs_wg_full_v1_pilot1","31Z0PCVWUKGMVJ6O5BS0I22QHJHT7I","56","0","TRAFFIC","17","7","0","1597","TRAFFIC","17","2018-06-05 20:18:06","206574"
"A2LLFJURME73XE","cs_wg_full_v1_pilot1","39JEC7537U27KS591N0QZ6IPFFLVCQ","17","0","FIREFLY","17","7","0","3225","FIREFLY","17","2018-06-05 20:18:07","206575"
"A3HZ8JZAJB124J","cs_wg_full_v1_pilot1","3PDJHANYK5HDMA1OM76JY5Z6BEZ6HJ","78","0","CABINET","5","7","1","1731","cabinet","5","2018-06-05 20:18:07","206576"
"A8YTY0RDR6AYX","cs_wg_full_v1_pilot1","36AHBNMV1RDYTE6S6UILQB41IWYYD1","6","0","MAGNET","8","7","0","2163","magnet","8","2018-06-05 20:18:07","206577"
"A281NYJUA83Y3Y","cs_wg_full_v1_pilot1","36NEMU28XFEX83H54MZ0O46FG2QWMI","32","0","CANVAS","3","7","1","1973","canvas","3","2018-06-05 20:18:07","206578"
"A014297063OPPUEBTOLM","cs_wg_full_v1_pilot1","3O6CYIULED2GLBMEDOQMFEN9TOTWUA","65","0","CRICKET","3","7","1","3731","cricket","3","2018-06-05 20:18:08","206579"
"A39XIQCFSCNHFU","cs_wg_full_v1_pilot1","31Z0PCVWUKGMVJ6O5BS0I22QHJHT7I","57","0","SPATULA","5","7","1","1238","SPATULA","5","2018-06-05 20:18:15","206580"
"ASDOYPL3T2CFL","cs_wg_full_v1_pilot1","3H7XDTSHKCSXGTLJTJ15BZMIKGEWGA","67","0","ADDICT","8","7","0","2975","addict","8","2018-06-05 20:18:15","206581"
"A3HZ8JZAJB124J","cs_wg_full_v1_pilot1","3PDJHANYK5HDMA1OM76JY5Z6BEZ6HJ","79","0","PILLAR","5","7","1","1376","pillar","5","2018-06-05 20:18:16","206582"
"A3DAQQDUWAZ6LA","cs_wg_full_v1_pilot1","35DR22AR5DLBBHEL89Q7UOBGPDG3X3","91","0","CELERY","16","7","0","773","CELERY ","16","2018-06-05 20:18:17","206583"
"A281NYJUA83Y3Y","cs_wg_full_v1_pilot1","36NEMU28XFEX83H54MZ0O46FG2QWMI","33","0","CHIMNEY","8","7","0","1224","chimney","8","2018-06-05 20:18:18","206584"
"A8YTY0RDR6AYX","cs_wg_full_v1_pilot1","36AHBNMV1RDYTE6S6UILQB41IWYYD1","7","0","PEANUT","5","7","1","3147","PEANUT","5","2018-06-05 20:18:19","206585"
"A2LLFJURME73XE","cs_wg_full_v1_pilot1","39JEC7537U27KS591N0QZ6IPFFLVCQ","18","0","PRIEST","16","7","0","2338","PRIEST","16","2018-06-05 20:18:20","206586"
"A39XIQCFSCNHFU","cs_wg_full_v1_pilot1","31Z0PCVWUKGMVJ6O5BS0I22QHJHT7I","58","0","CELERY","16","7","0","1149","CELERY","16","2018-06-05 20:18:23","206587"
"A014297063OPPUEBTOLM","cs_wg_full_v1_pilot1","3O6CYIULED2GLBMEDOQMFEN9TOTWUA","66","0","MAGNET","8","7","1","1796","magnet","8","2018-06-05 20:18:25","206588"
"A3HZ8JZAJB124J","cs_wg_full_v1_pilot1","3PDJHANYK5HDMA1OM76JY5Z6BEZ6HJ","80","0","DOMINO","8","7","1","1793","domino","8","2018-06-05 20:18:25","206589"
"A8YTY0RDR6AYX","cs_wg_full_v1_pilot1","36AHBNMV1RDYTE6S6UILQB41IWYYD1","8","0","PEANUT","5","7","1","1098","PEANUT","5","2018-06-05 20:18:29","206590"
"A3DAQQDUWAZ6LA","cs_wg_full_v1_pilot1","35DR22AR5DLBBHEL89Q7UOBGPDG3X3","92","0","JACKET","9","7","0","606","JACKET ","19","2018-06-05 20:18:29","206591"
"A281NYJUA83Y3Y","cs_wg_full_v1_pilot1","36NEMU28XFEX83H54MZ0O46FG2QWMI","34","0","CHIMNEY","8","7","0","3481","chimney","8","2018-06-05 20:18:30","206592"
"ASDOYPL3T2CFL","cs_wg_full_v1_pilot1","3H7XDTSHKCSXGTLJTJ15BZMIKGEWGA","68","0","CHICKEN","3","7","1","3111","chicken","3","2018-06-05 20:18:32","206593"
"A39XIQCFSCNHFU","cs_wg_full_v1_pilot1","31Z0PCVWUKGMVJ6O5BS0I22QHJHT7I","59","0","FLIGHT","12","7","0","701","FLIGHT","12","2018-06-05 20:18:33","206594"
"A3HZ8JZAJB124J","cs_wg_full_v1_pilot1","3PDJHANYK5HDMA1OM76JY5Z6BEZ6HJ","81","0","BUDGET","12","7","0","3550","budget","12","2018-06-05 20:18:36","206595"
"A014297063OPPUEBTOLM","cs_wg_full_v1_pilot1","3O6CYIULED2GLBMEDOQMFEN9TOTWUA","67","0","CRICKET","3","7","1","1659","cricket","3","2018-06-05 20:18:38","206596"
"A3DAQQDUWAZ6LA","cs_wg_full_v1_pilot1","35DR22AR5DLBBHEL89Q7UOBGPDG3X3","93","0","SILVER","3","7","0","293","SILVER ","3","2018-06-05 20:18:38","206597"
"A8YTY0RDR6AYX","cs_wg_full_v1_pilot1","36AHBNMV1RDYTE6S6UILQB41IWYYD1","9","0","NICKEL","3","7","1","2780","NICKEL","5","2018-06-05 20:18:40","206598"
"A281NYJUA83Y3Y","cs_wg_full_v1_pilot1","36NEMU28XFEX83H54MZ0O46FG2QWMI","35","0","BAKERY","16","7","0","2595","bakery","28","2018-06-05 20:18:41","206599"
"A39XIQCFSCNHFU","cs_wg_full_v1_pilot1","31Z0PCVWUKGMVJ6O5BS0I22QHJHT7I","60","0","KIDNEY","8","7","1","3660","KIDNEY","8","2018-06-05 20:18:44","206600"
"ASDOYPL3T2CFL","cs_wg_full_v1_pilot1","3H7XDTSHKCSXGTLJTJ15BZMIKGEWGA","69","0","ADDICT","8","7","0","1990","addict","8","2018-06-05 20:18:46","206601"
"A3HZ8JZAJB124J","cs_wg_full_v1_pilot1","3PDJHANYK5HDMA1OM76JY5Z6BEZ6HJ","82","0","JACKET","9","7","1","2406","jacket","9","2018-06-05 20:18:46","206602"
"A3DAQQDUWAZ6LA","cs_wg_full_v1_pilot1","35DR22AR5DLBBHEL89Q7UOBGPDG3X3","94","0","FLIGHT","12","7","0","719","FLIGHT ","12","2018-06-05 20:18:48","206603"
"A281NYJUA83Y3Y","cs_wg_full_v1_pilot1","36NEMU28XFEX83H54MZ0O46FG2QWMI","36","0","JUNGLE","12","7","0","2705","jungle","12","2018-06-05 20:18:51","206604"
"A014297063OPPUEBTOLM","cs_wg_full_v1_pilot1","3O6CYIULED2GLBMEDOQMFEN9TOTWUA","68","0","BEAVER","3","7","1","1986","beaver","3","2018-06-05 20:18:51","206605"
"A39XIQCFSCNHFU","cs_wg_full_v1_pilot1","31Z0PCVWUKGMVJ6O5BS0I22QHJHT7I","61","0","TRAFFIC","17","7","0","989","TRAFFIC","17","2018-06-05 20:18:54","206606"
"A3HZ8JZAJB124J","cs_wg_full_v1_pilot1","3PDJHANYK5HDMA1OM76JY5Z6BEZ6HJ","83","0","BASKET","3","7","1","1763","asket","3","2018-06-05 20:18:56","206607"
"A3DAQQDUWAZ6LA","cs_wg_full_v1_pilot1","35DR22AR5DLBBHEL89Q7UOBGPDG3X3","95","0","SILVER","3","7","0","685","SILVER ","12","2018-06-05 20:18:58","206608"
"A8YTY0RDR6AYX","cs_wg_full_v1_pilot1","36AHBNMV1RDYTE6S6UILQB41IWYYD1","10","0","CANVAS","3","7","1","8629","CANVAS","3","2018-06-05 20:18:58","206609"
"ASDOYPL3T2CFL","cs_wg_full_v1_pilot1","3H7XDTSHKCSXGTLJTJ15BZMIKGEWGA","70","0","CHICKEN","3","7","0","2426","chicken","3","2018-06-05 20:18:58","206610"
"A281NYJUA83Y3Y","cs_wg_full_v1_pilot1","36NEMU28XFEX83H54MZ0O46FG2QWMI","37","0","BROWNIE","5","7","1","1828","brownie","5","2018-06-05 20:19:03","206611"
"A2LLFJURME73XE","cs_wg_full_v1_pilot1","39JEC7537U27KS591N0QZ6IPFFLVCQ","19","0","JUNGLE","12","7","0","32485","JUNGLE","12","2018-06-05 20:19:04","206612"
"A014297063OPPUEBTOLM","cs_wg_full_v1_pilot1","3O6CYIULED2GLBMEDOQMFEN9TOTWUA","69","0","LIQUID","5","7","1","2372","liquid","5","2018-06-05 20:19:04","206613"
"A39XIQCFSCNHFU","cs_wg_full_v1_pilot1","31Z0PCVWUKGMVJ6O5BS0I22QHJHT7I","62","0","BAGPIPE","8","7","0","2444","BAGPIPE","8","2018-06-05 20:19:05","206614"
"A3HZ8JZAJB124J","cs_wg_full_v1_pilot1","3PDJHANYK5HDMA1OM76JY5Z6BEZ6HJ","84","0","EARDRUM","6","7","0","3053","eardrum","6","2018-06-05 20:19:06","206615"
"A3DAQQDUWAZ6LA","cs_wg_full_v1_pilot1","35DR22AR5DLBBHEL89Q7UOBGPDG3X3","96","0","SILVER","3","7","0","653","SILVER ","3","2018-06-05 20:19:09","206616"
"A8YTY0RDR6AYX","cs_wg_full_v1_pilot1","36AHBNMV1RDYTE6S6UILQB41IWYYD1","11","0","MAGNET","8","7","1","2889","MAGNET","3","2018-06-05 20:19:13","206617"
"ASDOYPL3T2CFL","cs_wg_full_v1_pilot1","3H7XDTSHKCSXGTLJTJ15BZMIKGEWGA","71","0","CHIMNEY","8","7","0","2568","chimney","8","2018-06-05 20:19:13","206618"
"A39XIQCFSCNHFU","cs_wg_full_v1_pilot1","31Z0PCVWUKGMVJ6O5BS0I22QHJHT7I","63","0","CRICKET","3","7","1","1605","CRICKET","3","2018-06-05 20:19:14","206619"
"A281NYJUA83Y3Y","cs_wg_full_v1_pilot1","36NEMU28XFEX83H54MZ0O46FG2QWMI","38","0","BIKINI","8","7","0","2155","bikini","8","2018-06-05 20:19:14","206620"
"A2LLFJURME73XE","cs_wg_full_v1_pilot1","39JEC7537U27KS591N0QZ6IPFFLVCQ","20","0","JUNGLE","12","7","0","1258","JUNGLE","12","2018-06-05 20:19:16","206621"
"A014297063OPPUEBTOLM","cs_wg_full_v1_pilot1","3O6CYIULED2GLBMEDOQMFEN9TOTWUA","70","0","LIQUID","5","7","1","1598","liquid","5","2018-06-05 20:19:17","206622"
"A3HZ8JZAJB124J","cs_wg_full_v1_pilot1","3PDJHANYK5HDMA1OM76JY5Z6BEZ6HJ","85","0","SPATULA","5","7","1","2653","spatula","5","2018-06-05 20:19:18","206623"
"A3DAQQDUWAZ6LA","cs_wg_full_v1_pilot1","35DR22AR5DLBBHEL89Q7UOBGPDG3X3","97","0","FLIGHT","12","7","0","695","FLIGHT ","12","2018-06-05 20:19:20","206624"
"A8YTY0RDR6AYX","cs_wg_full_v1_pilot1","36AHBNMV1RDYTE6S6UILQB41IWYYD1","12","0","SPATULA","5","7","1","2707","SPATULA","7","2018-06-05 20:19:22","206625"
"A39XIQCFSCNHFU","cs_wg_full_v1_pilot1","31Z0PCVWUKGMVJ6O5BS0I22QHJHT7I","64","0","WALRUS","6","7","0","2461","WALRUS","6","2018-06-05 20:19:23","206626"
"ASDOYPL3T2CFL","cs_wg_full_v1_pilot1","3H7XDTSHKCSXGTLJTJ15BZMIKGEWGA","72","0","LIQUID","5","7","1","4438","liquid","5","2018-06-05 20:19:28","206627"
"A3HZ8JZAJB124J","cs_wg_full_v1_pilot1","3PDJHANYK5HDMA1OM76JY5Z6BEZ6HJ","86","0","DOMINO","8","7","0","2570","domino","8","2018-06-05 20:19:29","206628"
"A2LLFJURME73XE","cs_wg_full_v1_pilot1","39JEC7537U27KS591N0QZ6IPFFLVCQ","21","0","FIREFLY","17","7","0","3281","FIREFLY","17","2018-06-05 20:19:29","206629"
"A281NYJUA83Y3Y","cs_wg_full_v1_pilot1","36NEMU28XFEX83H54MZ0O46FG2QWMI","39","0","BLANKET","3","7","1","2387","blanket","3","2018-06-05 20:19:31","206630"
"A39XIQCFSCNHFU","cs_wg_full_v1_pilot1","31Z0PCVWUKGMVJ6O5BS0I22QHJHT7I","65","0","CANVAS","3","7","1","1052","CANVAS","3","2018-06-05 20:19:31","206631"
"A014297063OPPUEBTOLM","cs_wg_full_v1_pilot1","3O6CYIULED2GLBMEDOQMFEN9TOTWUA","71","0","ROYALTY","5","7","1","3194","royalty","5","2018-06-05 20:19:32","206632"
"A3DAQQDUWAZ6LA","cs_wg_full_v1_pilot1","35DR22AR5DLBBHEL89Q7UOBGPDG3X3","98","0","EARDRUM","6","7","0","2670","EARDRUM","12","2018-06-05 20:19:33","206633"
"A3HZ8JZAJB124J","cs_wg_full_v1_pilot1","3PDJHANYK5HDMA1OM76JY5Z6BEZ6HJ","87","0","PRIEST","16","7","0","2265","priest","16","2018-06-05 20:19:39","206634"
"A39XIQCFSCNHFU","cs_wg_full_v1_pilot1","31Z0PCVWUKGMVJ6O5BS0I22QHJHT7I","66","0","CELERY","16","7","0","1269","CELERY","16","2018-06-05 20:19:40","206635"
"A8YTY0RDR6AYX","cs_wg_full_v1_pilot1","36AHBNMV1RDYTE6S6UILQB41IWYYD1","13","0","BEGGAR","12","7","1","7076","BEGGAR","12","2018-06-05 20:19:42","206636"
"ASDOYPL3T2CFL","cs_wg_full_v1_pilot1","3H7XDTSHKCSXGTLJTJ15BZMIKGEWGA","73","0","HEAVEN","3","7","1","4399","heaven","3","2018-06-05 20:19:42","206637"
"A3DAQQDUWAZ6LA","cs_wg_full_v1_pilot1","35DR22AR5DLBBHEL89Q7UOBGPDG3X3","99","0","JACKET","9","7","0","661","JACKET ","9","2018-06-05 20:19:43","206638"
"A014297063OPPUEBTOLM","cs_wg_full_v1_pilot1","3O6CYIULED2GLBMEDOQMFEN9TOTWUA","72","0","LIQUID","5","7","1","1422","liquid","5","2018-06-05 20:19:45","206639"
"A2LLFJURME73XE","cs_wg_full_v1_pilot1","39JEC7537U27KS591N0QZ6IPFFLVCQ","22","0","KIDNEY","8","7","0","6106","KIDNEY","8","2018-06-05 20:19:45","206640"
"A39XIQCFSCNHFU","cs_wg_full_v1_pilot1","31Z0PCVWUKGMVJ6O5BS0I22QHJHT7I","67","0","WALRUS","6","7","1","2127","WALRUS","6","2018-06-05 20:19:49","206641"
"A3HZ8JZAJB124J","cs_wg_full_v1_pilot1","3PDJHANYK5HDMA1OM76JY5Z6BEZ6HJ","88","0","PLANET","8","7","0","3363","planet","8","2018-06-05 20:19:49","206642"
"A281NYJUA83Y3Y","cs_wg_full_v1_pilot1","36NEMU28XFEX83H54MZ0O46FG2QWMI","40","0","MONKEY","9","7","0","9051","monkey","9","2018-06-05 20:19:52","206643"
"A3DAQQDUWAZ6LA","cs_wg_full_v1_pilot1","35DR22AR5DLBBHEL89Q7UOBGPDG3X3","100","0","EARDRUM","6","7","0","904","EARDRUM ","6","2018-06-05 20:19:55","206644"
"A8YTY0RDR6AYX","cs_wg_full_v1_pilot1","36AHBNMV1RDYTE6S6UILQB41IWYYD1","14","0","BAPTISM","8","7","1","4057","BAPTISM","8","2018-06-05 20:19:57","206645"
"A39XIQCFSCNHFU","cs_wg_full_v1_pilot1","31Z0PCVWUKGMVJ6O5BS0I22QHJHT7I","68","0","CANVAS","3","7","1","1348","CANVAS","3","2018-06-05 20:19:57","206646"
