"subject","version","assignmentId","trial","trial_type","word","value","alt","choice","rt","resp","resp2","stamp","id"
"ARJJKTGF3RDCO","cs_wg_v10_real1","36ZN444YTRZ37BICSLAYFHMB2P0OIB","0","0","BOOKSHELF","10","5","0","3601","Bookshelf","10","2018-01-26 19:12:25","169652"
"ARJJKTGF3RDCO","cs_wg_v10_real1","36ZN444YTRZ37BICSLAYFHMB2P0OIB","1","0","STRUCTURE","0","5","1","3238","structure","0","2018-01-26 19:12:37","169653"
"ARJJKTGF3RDCO","cs_wg_v10_real1","36ZN444YTRZ37BICSLAYFHMB2P0OIB","2","0","MACHINE","1","5","0","2438","machine","1","2018-01-26 19:12:46","169654"
"ARJJKTGF3RDCO","cs_wg_v10_real1","36ZN444YTRZ37BICSLAYFHMB2P0OIB","3","0","UMBRELLA","10","5","0","2439","umbrella","10","2018-01-26 19:12:57","169655"
"ARJJKTGF3RDCO","cs_wg_v10_real1","36ZN444YTRZ37BICSLAYFHMB2P0OIB","4","0","BOOKSHELF","10","5","0","1702","bookshelf","10","2018-01-26 19:13:06","169656"
"ARJJKTGF3RDCO","cs_wg_v10_real1","36ZN444YTRZ37BICSLAYFHMB2P0OIB","5","0","BASKET","9","5","0","1702","basket","9","2018-01-26 19:13:14","169657"
"ARJJKTGF3RDCO","cs_wg_v10_real1","36ZN444YTRZ37BICSLAYFHMB2P0OIB","6","0","STRUCTURE","0","5","0","1734","structure","0","2018-01-26 19:13:22","169658"
"AEWGY34WUIA32","cs_wg_v10_real1","3IO1LGZLK9YKTZ0VJ3CDLS66ET268X","0","0","TRAFFIC","10","5","0","3635","traffic","10","2018-01-26 19:13:23","169659"
"ARJJKTGF3RDCO","cs_wg_v10_real1","36ZN444YTRZ37BICSLAYFHMB2P0OIB","7","0","UMBRELLA","10","5","0","1893","umbrella","10","2018-01-26 19:13:31","169660"
"ARJJKTGF3RDCO","cs_wg_v10_real1","36ZN444YTRZ37BICSLAYFHMB2P0OIB","8","0","DOORWAY","0","5","1","2054","doorway","0","2018-01-26 19:13:39","169661"
"AEWGY34WUIA32","cs_wg_v10_real1","3IO1LGZLK9YKTZ0VJ3CDLS66ET268X","1","0","UMBRELLA","10","5","0","3577","umbrella","10","2018-01-26 19:13:44","169662"
"ARJJKTGF3RDCO","cs_wg_v10_real1","36ZN444YTRZ37BICSLAYFHMB2P0OIB","9","0","DOORWAY","0","5","1","1126","doorway","0","2018-01-26 19:13:47","169663"
"ARJJKTGF3RDCO","cs_wg_v10_real1","36ZN444YTRZ37BICSLAYFHMB2P0OIB","10","0","COMMUNITY","9","5","0","1014","community","9","2018-01-26 19:13:54","169664"
"ARJJKTGF3RDCO","cs_wg_v10_real1","36ZN444YTRZ37BICSLAYFHMB2P0OIB","11","0","STOMACH","0","5","0","919","stomach","0","2018-01-26 19:14:01","169665"
"AEWGY34WUIA32","cs_wg_v10_real1","3IO1LGZLK9YKTZ0VJ3CDLS66ET268X","2","0","FOOTBALL","0","5","0","1667","football","0","2018-01-26 19:14:02","169666"
"ARJJKTGF3RDCO","cs_wg_v10_real1","36ZN444YTRZ37BICSLAYFHMB2P0OIB","12","0","MACHINE","1","5","0","2486","machine","1","2018-01-26 19:14:09","169667"
"ARJJKTGF3RDCO","cs_wg_v10_real1","36ZN444YTRZ37BICSLAYFHMB2P0OIB","13","0","STOMACH","0","5","1","1527","stomach","0","2018-01-26 19:14:16","169668"
"AEWGY34WUIA32","cs_wg_v10_real1","3IO1LGZLK9YKTZ0VJ3CDLS66ET268X","3","0","HELICOPTER","1","5","0","1538","helicoptor","1","2018-01-26 19:14:22","169669"
"ARJJKTGF3RDCO","cs_wg_v10_real1","36ZN444YTRZ37BICSLAYFHMB2P0OIB","14","0","LADDER","1","5","0","742","ladder","1","2018-01-26 19:14:24","169670"
"ARJJKTGF3RDCO","cs_wg_v10_real1","36ZN444YTRZ37BICSLAYFHMB2P0OIB","15","0","KEYBOARD","9","5","1","1926","keyboard","9","2018-01-26 19:14:33","169671"
"AEWGY34WUIA32","cs_wg_v10_real1","3IO1LGZLK9YKTZ0VJ3CDLS66ET268X","4","0","LADDER","10","5","0","1194","ladder","10","2018-01-26 19:14:39","169672"
"ARJJKTGF3RDCO","cs_wg_v10_real1","36ZN444YTRZ37BICSLAYFHMB2P0OIB","16","0","BASKET","9","5","1","2055","basket","9 ","2018-01-26 19:14:41","169673"
"ARJJKTGF3RDCO","cs_wg_v10_real1","36ZN444YTRZ37BICSLAYFHMB2P0OIB","17","0","LADDER","1","5","1","1510","ladder","1","2018-01-26 19:14:49","169674"
"AEWGY34WUIA32","cs_wg_v10_real1","3IO1LGZLK9YKTZ0VJ3CDLS66ET268X","5","0","DOORWAY","0","5","0","2217","doorway","0","2018-01-26 19:14:57","169675"
"ARJJKTGF3RDCO","cs_wg_v10_real1","36ZN444YTRZ37BICSLAYFHMB2P0OIB","18","0","MACHINE","1","5","1","4116","machine","1","2018-01-26 19:14:59","169676"
"ARJJKTGF3RDCO","cs_wg_v10_real1","36ZN444YTRZ37BICSLAYFHMB2P0OIB","19","0","BOOKSHELF","10","5","0","886","bookshelf","10","2018-01-26 19:15:05","169677"
"ARJJKTGF3RDCO","cs_wg_v10_real1","36ZN444YTRZ37BICSLAYFHMB2P0OIB","20","0","MACHINE","1","5","1","1398","machine","1","2018-01-26 19:15:12","169678"
"AEWGY34WUIA32","cs_wg_v10_real1","3IO1LGZLK9YKTZ0VJ3CDLS66ET268X","6","0","UMBRELLA","10","5","0","3378","umbrella","10","2018-01-26 19:15:18","169679"
"ARJJKTGF3RDCO","cs_wg_v10_real1","36ZN444YTRZ37BICSLAYFHMB2P0OIB","21","0","FOOTBALL","1","5","0","3495","football","1","2018-01-26 19:15:22","169680"
"ARJJKTGF3RDCO","cs_wg_v10_real1","36ZN444YTRZ37BICSLAYFHMB2P0OIB","22","0","HELICOPTER","10","5","1","2022","helicopter","10","2018-01-26 19:15:30","169681"
"ARJJKTGF3RDCO","cs_wg_v10_real1","36ZN444YTRZ37BICSLAYFHMB2P0OIB","23","0","STRUCTURE","0","5","1","1638","structure","0","2018-01-26 19:15:37","169682"
"AEWGY34WUIA32","cs_wg_v10_real1","3IO1LGZLK9YKTZ0VJ3CDLS66ET268X","7","0","STOMACH","1","5","0","8905","stomach","1","2018-01-26 19:15:39","169683"
"ARJJKTGF3RDCO","cs_wg_v10_real1","36ZN444YTRZ37BICSLAYFHMB2P0OIB","24","0","WEDDING","10","5","0","998","wedding","10","2018-01-26 19:15:49","169684"
"ARJJKTGF3RDCO","cs_wg_v10_real1","36ZN444YTRZ37BICSLAYFHMB2P0OIB","25","0","WEDDING","10","5","0","711","wedding","10","2018-01-26 19:15:55","169685"
"AEWGY34WUIA32","cs_wg_v10_real1","3IO1LGZLK9YKTZ0VJ3CDLS66ET268X","8","0","BOOKSHELF","9","5","0","1537","bookshelf","9","2018-01-26 19:15:56","169686"
"ARJJKTGF3RDCO","cs_wg_v10_real1","36ZN444YTRZ37BICSLAYFHMB2P0OIB","26","0","TRAFFIC","0","5","1","1350","traffic","0","2018-01-26 19:16:03","169687"
"ARJJKTGF3RDCO","cs_wg_v10_real1","36ZN444YTRZ37BICSLAYFHMB2P0OIB","27","0","FOOTBALL","1","5","0","1654","football","1","2018-01-26 19:16:10","169688"
"AEWGY34WUIA32","cs_wg_v10_real1","3IO1LGZLK9YKTZ0VJ3CDLS66ET268X","9","0","MACHINE","0","5","0","1185","machine","0","2018-01-26 19:16:10","169689"
"ARJJKTGF3RDCO","cs_wg_v10_real1","36ZN444YTRZ37BICSLAYFHMB2P0OIB","28","0","WEDDING","10","5","0","630","wedding","10","2018-01-26 19:16:16","169690"
"ARJJKTGF3RDCO","cs_wg_v10_real1","36ZN444YTRZ37BICSLAYFHMB2P0OIB","29","0","COMMUNITY","9","5","0","1062","community","9","2018-01-26 19:16:23","169691"
"AEWGY34WUIA32","cs_wg_v10_real1","3IO1LGZLK9YKTZ0VJ3CDLS66ET268X","10","0","BASKET","10","5","0","1042","basket","10","2018-01-26 19:16:27","169692"
"AEWGY34WUIA32","cs_wg_v10_real1","3IO1LGZLK9YKTZ0VJ3CDLS66ET268X","11","0","STRUCTURE","0","5","0","1874","structure","0","2018-01-26 19:16:57","169693"
"AEWGY34WUIA32","cs_wg_v10_real1","3IO1LGZLK9YKTZ0VJ3CDLS66ET268X","12","0","TRAFFIC","10","5","0","1769","traffic","10","2018-01-26 19:17:10","169694"
"AEWGY34WUIA32","cs_wg_v10_real1","3IO1LGZLK9YKTZ0VJ3CDLS66ET268X","13","0","HELICOPTER","1","5","1","8554","helicoptor","1","2018-01-26 19:17:33","169695"
"AEWGY34WUIA32","cs_wg_v10_real1","3IO1LGZLK9YKTZ0VJ3CDLS66ET268X","14","0","BASKET","10","5","0","6251","basket","10","2018-01-26 19:17:49","169696"
"AEWGY34WUIA32","cs_wg_v10_real1","3IO1LGZLK9YKTZ0VJ3CDLS66ET268X","15","0","COMMUNITY","1","5","0","1985","community","1","2018-01-26 19:18:21","169697"
"ARJJKTGF3RDCO","cs_wg_v10_real1","36ZN444YTRZ37BICSLAYFHMB2P0OIB","30","0","KEYBOARD","9","5","0","1110","keyboard","9","2018-01-26 19:18:42","169698"
"AEWGY34WUIA32","cs_wg_v10_real1","3IO1LGZLK9YKTZ0VJ3CDLS66ET268X","16","0","HELICOPTER","1","5","1","5978","helicoptor","1","2018-01-26 19:18:43","169699"
"ARJJKTGF3RDCO","cs_wg_v10_real1","36ZN444YTRZ37BICSLAYFHMB2P0OIB","31","0","KEYBOARD","9","5","0","790","keyboard","9","2018-01-26 19:18:51","169700"
"AEWGY34WUIA32","cs_wg_v10_real1","3IO1LGZLK9YKTZ0VJ3CDLS66ET268X","17","0","STOMACH","1","5","1","3848","stomach","1","2018-01-26 19:18:54","169701"
"ARJJKTGF3RDCO","cs_wg_v10_real1","36ZN444YTRZ37BICSLAYFHMB2P0OIB","32","0","STOMACH","0","5","0","1398","stomach","0","2018-01-26 19:18:57","169702"
"ARJJKTGF3RDCO","cs_wg_v10_real1","36ZN444YTRZ37BICSLAYFHMB2P0OIB","33","0","HELICOPTER","10","5","0","661","helicopter","10","2018-01-26 19:19:04","169703"
"AEWGY34WUIA32","cs_wg_v10_real1","3IO1LGZLK9YKTZ0VJ3CDLS66ET268X","18","0","BASKET","10","5","0","10753","basket","10","2018-01-26 19:19:12","169704"
"ARJJKTGF3RDCO","cs_wg_v10_real1","36ZN444YTRZ37BICSLAYFHMB2P0OIB","34","0","BOOKSHELF","10","5","0","886","bookshelf","10","2018-01-26 19:19:15","169705"
"ARJJKTGF3RDCO","cs_wg_v10_real1","36ZN444YTRZ37BICSLAYFHMB2P0OIB","35","0","BASKET","9","5","1","1271","basket","9","2018-01-26 19:19:22","169706"
"AEWGY34WUIA32","cs_wg_v10_real1","3IO1LGZLK9YKTZ0VJ3CDLS66ET268X","19","0","STOMACH","1","5","1","5946","stomach","1","2018-01-26 19:19:26","169707"
"ARJJKTGF3RDCO","cs_wg_v10_real1","36ZN444YTRZ37BICSLAYFHMB2P0OIB","36","0","WEDDING","10","5","0","566","wedding","10","2018-01-26 19:19:28","169708"
"ARJJKTGF3RDCO","cs_wg_v10_real1","36ZN444YTRZ37BICSLAYFHMB2P0OIB","37","0","DOORWAY","0","5","1","838","doorway","0","2018-01-26 19:19:34","169709"
"ARJJKTGF3RDCO","cs_wg_v10_real1","36ZN444YTRZ37BICSLAYFHMB2P0OIB","38","0","HELICOPTER","10","5","0","599","helicopter","10","2018-01-26 19:19:40","169710"
"AEWGY34WUIA32","cs_wg_v10_real1","3IO1LGZLK9YKTZ0VJ3CDLS66ET268X","20","0","KEYBOARD","9","5","0","2762","keyboard","9","2018-01-26 19:19:45","169711"
"ARJJKTGF3RDCO","cs_wg_v10_real1","36ZN444YTRZ37BICSLAYFHMB2P0OIB","39","0","WEDDING","10","5","0","581","wedding","10","2018-01-26 19:19:47","169712"
"ARJJKTGF3RDCO","cs_wg_v10_real1","36ZN444YTRZ37BICSLAYFHMB2P0OIB","40","0","STOMACH","0","5","1","758","stomach","0","2018-01-26 19:19:53","169713"
"ARJJKTGF3RDCO","cs_wg_v10_real1","36ZN444YTRZ37BICSLAYFHMB2P0OIB","41","0","COMMUNITY","9","5","0","790","community","9","2018-01-26 19:19:59","169714"
"ARJJKTGF3RDCO","cs_wg_v10_real1","36ZN444YTRZ37BICSLAYFHMB2P0OIB","42","0","BOOKSHELF","10","5","0","518","bookshelf","10","2018-01-26 19:20:06","169715"
"AEWGY34WUIA32","cs_wg_v10_real1","3IO1LGZLK9YKTZ0VJ3CDLS66ET268X","21","0","TRAFFIC","10","5","0","4848","traffic","10","2018-01-26 19:20:09","169716"
"ARJJKTGF3RDCO","cs_wg_v10_real1","36ZN444YTRZ37BICSLAYFHMB2P0OIB","43","0","STRUCTURE","0","5","1","759","structure0","0","2018-01-26 19:20:13","169717"
"ARJJKTGF3RDCO","cs_wg_v10_real1","36ZN444YTRZ37BICSLAYFHMB2P0OIB","44","0","FOOTBALL","1","5","1","1270","football","1","2018-01-26 19:20:20","169718"
"ARJJKTGF3RDCO","cs_wg_v10_real1","36ZN444YTRZ37BICSLAYFHMB2P0OIB","45","0","LADDER","1","5","1","790","ladder","1","2018-01-26 19:20:26","169719"
"AEWGY34WUIA32","cs_wg_v10_real1","3IO1LGZLK9YKTZ0VJ3CDLS66ET268X","22","0","FOOTBALL","0","5","1","8905","football","0","2018-01-26 19:20:26","169720"
"ARJJKTGF3RDCO","cs_wg_v10_real1","36ZN444YTRZ37BICSLAYFHMB2P0OIB","46","0","DOORWAY","0","5","1","837","doorway","0","2018-01-26 19:20:32","169721"
"AEWGY34WUIA32","cs_wg_v10_real1","3IO1LGZLK9YKTZ0VJ3CDLS66ET268X","23","0","FOOTBALL","0","5","1","3873","football","0","2018-01-26 19:20:37","169722"
"ARJJKTGF3RDCO","cs_wg_v10_real1","36ZN444YTRZ37BICSLAYFHMB2P0OIB","47","0","BASKET","9","5","1","983","basket9","9","2018-01-26 19:20:39","169723"
"ARJJKTGF3RDCO","cs_wg_v10_real1","36ZN444YTRZ37BICSLAYFHMB2P0OIB","48","0","TRAFFIC","0","5","0","1318","traffic","0","2018-01-26 19:20:45","169724"
"AEWGY34WUIA32","cs_wg_v10_real1","3IO1LGZLK9YKTZ0VJ3CDLS66ET268X","24","0","COMMUNITY","1","5","1","3385","community","1","2018-01-26 19:20:49","169725"
"ARJJKTGF3RDCO","cs_wg_v10_real1","36ZN444YTRZ37BICSLAYFHMB2P0OIB","49","0","STOMACH","0","5","1","3111","stomach","0","2018-01-26 19:20:54","169726"
"ARJJKTGF3RDCO","cs_wg_v10_real1","36ZN444YTRZ37BICSLAYFHMB2P0OIB","50","0","TRAFFIC","0","5","1","1670","traffic","0","2018-01-26 19:21:01","169727"
"AEWGY34WUIA32","cs_wg_v10_real1","3IO1LGZLK9YKTZ0VJ3CDLS66ET268X","25","0","LADDER","10","5","0","4960","ladder","10","2018-01-26 19:21:04","169728"
"ARJJKTGF3RDCO","cs_wg_v10_real1","36ZN444YTRZ37BICSLAYFHMB2P0OIB","51","0","UMBRELLA","10","5","0","806","umbrella","10","2018-01-26 19:21:10","169729"
"AEWGY34WUIA32","cs_wg_v10_real1","3IO1LGZLK9YKTZ0VJ3CDLS66ET268X","26","0","UMBRELLA","10","5","0","3034","umbrella","10","2018-01-26 19:21:17","169730"
"ARJJKTGF3RDCO","cs_wg_v10_real1","36ZN444YTRZ37BICSLAYFHMB2P0OIB","52","0","WEDDING","10","5","0","781","wedding","10","2018-01-26 19:21:22","169731"
"ARJJKTGF3RDCO","cs_wg_v10_real1","36ZN444YTRZ37BICSLAYFHMB2P0OIB","53","0","BOOKSHELF","10","5","0","566","bookshelf","10","2018-01-26 19:21:28","169732"
"AS1QMPXIT1EGX","cs_wg_v10_real1","3C6FJU71TQUKAGHESP8A0B8OAUMYU4","0","0","STOMACH","0","5","0","3415","stomach","0","2018-01-26 19:21:32","169733"
"AEWGY34WUIA32","cs_wg_v10_real1","3IO1LGZLK9YKTZ0VJ3CDLS66ET268X","27","0","STRUCTURE","0","5","1","9474","structure","0","2018-01-26 19:21:35","169734"
"ARJJKTGF3RDCO","cs_wg_v10_real1","36ZN444YTRZ37BICSLAYFHMB2P0OIB","54","0","COMMUNITY","9","5","0","1414","community","9","2018-01-26 19:21:36","169735"
"ARJJKTGF3RDCO","cs_wg_v10_real1","36ZN444YTRZ37BICSLAYFHMB2P0OIB","55","0","UMBRELLA","10","5","0","710","umbrella","10","2018-01-26 19:21:43","169736"
"AEWGY34WUIA32","cs_wg_v10_real1","3IO1LGZLK9YKTZ0VJ3CDLS66ET268X","28","0","KEYBOARD","9","5","0","4322","keyboard","9","2018-01-26 19:21:47","169737"
"AS1QMPXIT1EGX","cs_wg_v10_real1","3C6FJU71TQUKAGHESP8A0B8OAUMYU4","1","0","FOOTBALL","9","5","0","1791","football","9","2018-01-26 19:21:47","169738"
"ARJJKTGF3RDCO","cs_wg_v10_real1","36ZN444YTRZ37BICSLAYFHMB2P0OIB","56","0","TRAFFIC","0","5","1","1014","traffic","0","2018-01-26 19:21:50","169739"
"ARJJKTGF3RDCO","cs_wg_v10_real1","36ZN444YTRZ37BICSLAYFHMB2P0OIB","57","0","BASKET","9","5","1","1334","basket","9","2018-01-26 19:21:58","169740"
"AEWGY34WUIA32","cs_wg_v10_real1","3IO1LGZLK9YKTZ0VJ3CDLS66ET268X","29","0","FOOTBALL","0","5","1","3386","football","0","2018-01-26 19:22:00","169741"
"ARJJKTGF3RDCO","cs_wg_v10_real1","36ZN444YTRZ37BICSLAYFHMB2P0OIB","58","0","KEYBOARD","9","5","1","2198","keyboard","9","2018-01-26 19:22:07","169742"
"AS1QMPXIT1EGX","cs_wg_v10_real1","3C6FJU71TQUKAGHESP8A0B8OAUMYU4","2","0","MACHINE","10","5","0","1653","machine","10","2018-01-26 19:22:07","169743"
"AEWGY34WUIA32","cs_wg_v10_real1","3IO1LGZLK9YKTZ0VJ3CDLS66ET268X","30","0","UMBRELLA","10","5","0","3202","umbrella","10","2018-01-26 19:22:10","169744"
"ARJJKTGF3RDCO","cs_wg_v10_real1","36ZN444YTRZ37BICSLAYFHMB2P0OIB","59","0","TRAFFIC","0","5","1","726","traffic","0","2018-01-26 19:22:14","169745"
"ARJJKTGF3RDCO","cs_wg_v10_real1","36ZN444YTRZ37BICSLAYFHMB2P0OIB","60","0","STOMACH","0","5","1","759","stomach","0","2018-01-26 19:22:20","169746"
"AS1QMPXIT1EGX","cs_wg_v10_real1","3C6FJU71TQUKAGHESP8A0B8OAUMYU4","3","0","HELICOPTER","10","5","0","1426","helicopter","10","2018-01-26 19:22:21","169747"
"ARJJKTGF3RDCO","cs_wg_v10_real1","36ZN444YTRZ37BICSLAYFHMB2P0OIB","61","0","KEYBOARD","9","5","0","854","keyboard","9","2018-01-26 19:22:27","169748"
"AEWGY34WUIA32","cs_wg_v10_real1","3IO1LGZLK9YKTZ0VJ3CDLS66ET268X","31","0","WEDDING","9","5","0","1665","wedding","9","2018-01-26 19:22:28","169749"
"AS1QMPXIT1EGX","cs_wg_v10_real1","3C6FJU71TQUKAGHESP8A0B8OAUMYU4","4","0","COMMUNITY","1","5","0","1280","community","1","2018-01-26 19:22:33","169750"
"ARJJKTGF3RDCO","cs_wg_v10_real1","36ZN444YTRZ37BICSLAYFHMB2P0OIB","62","0","LADDER","1","5","1","1078","ladder","1","2018-01-26 19:22:34","169751"
"AEWGY34WUIA32","cs_wg_v10_real1","3IO1LGZLK9YKTZ0VJ3CDLS66ET268X","32","0","STOMACH","1","5","1","2249","stomach","1","2018-01-26 19:22:41","169752"
"ARJJKTGF3RDCO","cs_wg_v10_real1","36ZN444YTRZ37BICSLAYFHMB2P0OIB","63","0","MACHINE","1","5","1","1255","machine","1","2018-01-26 19:22:41","169753"
"AS1QMPXIT1EGX","cs_wg_v10_real1","3C6FJU71TQUKAGHESP8A0B8OAUMYU4","5","0","FOOTBALL","9","5","0","1567","football","9","2018-01-26 19:22:45","169754"
"ARJJKTGF3RDCO","cs_wg_v10_real1","36ZN444YTRZ37BICSLAYFHMB2P0OIB","64","0","STRUCTURE","0","5","0","2774","structure","0","2018-01-26 19:22:50","169755"
"AEWGY34WUIA32","cs_wg_v10_real1","3IO1LGZLK9YKTZ0VJ3CDLS66ET268X","33","0","TRAFFIC","10","5","0","2321","traffic","10","2018-01-26 19:22:52","169756"
"ARJJKTGF3RDCO","cs_wg_v10_real1","36ZN444YTRZ37BICSLAYFHMB2P0OIB","65","0","COMMUNITY","9","5","0","678","community","9","2018-01-26 19:22:56","169757"
"AS1QMPXIT1EGX","cs_wg_v10_real1","3C6FJU71TQUKAGHESP8A0B8OAUMYU4","6","0","STOMACH","0","5","1","1504","stomach","0","2018-01-26 19:22:56","169758"
"ARJJKTGF3RDCO","cs_wg_v10_real1","36ZN444YTRZ37BICSLAYFHMB2P0OIB","66","0","KEYBOARD","9","5","0","854","keyboard","9","2018-01-26 19:23:03","169759"
"AEWGY34WUIA32","cs_wg_v10_real1","3IO1LGZLK9YKTZ0VJ3CDLS66ET268X","34","0","COMMUNITY","1","5","1","3784","community","1","2018-01-26 19:23:04","169760"
"AS1QMPXIT1EGX","cs_wg_v10_real1","3C6FJU71TQUKAGHESP8A0B8OAUMYU4","7","0","UMBRELLA","10","5","0","1261","umbrella","10","2018-01-26 19:23:08","169761"
"ARJJKTGF3RDCO","cs_wg_v10_real1","36ZN444YTRZ37BICSLAYFHMB2P0OIB","67","0","TRAFFIC","0","5","1","630","traffic","0","2018-01-26 19:23:09","169762"
"AEWGY34WUIA32","cs_wg_v10_real1","3IO1LGZLK9YKTZ0VJ3CDLS66ET268X","35","0","BOOKSHELF","9","5","0","2883","bookshelf","9","2018-01-26 19:23:15","169763"
"ARJJKTGF3RDCO","cs_wg_v10_real1","36ZN444YTRZ37BICSLAYFHMB2P0OIB","68","0","FOOTBALL","1","5","1","1382","football","1","2018-01-26 19:23:16","169764"
"AK1GE19RT3PK6","cs_wg_v10_real1","3KIBXJ1WD5VUD680SOVASX1OUTPOKM","0","0","MACHINE","9","5","1","3020","Machine","9","2018-01-26 19:23:19","169765"
"AS1QMPXIT1EGX","cs_wg_v10_real1","3C6FJU71TQUKAGHESP8A0B8OAUMYU4","8","0","HELICOPTER","10","5","0","1834","helicopter","10","2018-01-26 19:23:20","169766"
"ARJJKTGF3RDCO","cs_wg_v10_real1","36ZN444YTRZ37BICSLAYFHMB2P0OIB","69","0","MACHINE","1","5","1","822","machine","1","2018-01-26 19:23:22","169767"
"AEWGY34WUIA32","cs_wg_v10_real1","3IO1LGZLK9YKTZ0VJ3CDLS66ET268X","36","0","BASKET","10","5","0","5450","basket","10","2018-01-26 19:23:28","169768"
"ARJJKTGF3RDCO","cs_wg_v10_real1","36ZN444YTRZ37BICSLAYFHMB2P0OIB","70","0","COMMUNITY","9","5","0","806","community","9","2018-01-26 19:23:29","169769"
"AS1QMPXIT1EGX","cs_wg_v10_real1","3C6FJU71TQUKAGHESP8A0B8OAUMYU4","9","0","TRAFFIC","1","5","0","1243","traffic","1","2018-01-26 19:23:30","169770"
"ARJJKTGF3RDCO","cs_wg_v10_real1","36ZN444YTRZ37BICSLAYFHMB2P0OIB","71","0","HELICOPTER","10","5","0","791","helicopter","10","2018-01-26 19:23:35","169771"
"AEWGY34WUIA32","cs_wg_v10_real1","3IO1LGZLK9YKTZ0VJ3CDLS66ET268X","37","0","BOOKSHELF","9","5","0","2417","bookshelf","9","2018-01-26 19:23:39","169772"
"ARJJKTGF3RDCO","cs_wg_v10_real1","36ZN444YTRZ37BICSLAYFHMB2P0OIB","72","0","STRUCTURE","0","5","1","693","structure","0","2018-01-26 19:23:42","169773"
"AK1GE19RT3PK6","cs_wg_v10_real1","3KIBXJ1WD5VUD680SOVASX1OUTPOKM","1","0","BOOKSHELF","10","5","0","4315","Bookshelf","10","2018-01-26 19:23:43","169774"
"AS1QMPXIT1EGX","cs_wg_v10_real1","3C6FJU71TQUKAGHESP8A0B8OAUMYU4","10","0","DOORWAY","0","5","0","1140","doorway","0","2018-01-26 19:23:43","169775"
"AEWGY34WUIA32","cs_wg_v10_real1","3IO1LGZLK9YKTZ0VJ3CDLS66ET268X","38","0","WEDDING","9","5","0","1378","wedding","9","2018-01-26 19:23:47","169776"
"ARJJKTGF3RDCO","cs_wg_v10_real1","36ZN444YTRZ37BICSLAYFHMB2P0OIB","73","0","STRUCTURE","0","5","1","710","structure","0","2018-01-26 19:23:48","169777"
"AS1QMPXIT1EGX","cs_wg_v10_real1","3C6FJU71TQUKAGHESP8A0B8OAUMYU4","11","0","BASKET","0","5","0","1109","basket","0","2018-01-26 19:23:52","169778"
"ARJJKTGF3RDCO","cs_wg_v10_real1","36ZN444YTRZ37BICSLAYFHMB2P0OIB","74","0","MACHINE","1","5","1","1078","machine","1","2018-01-26 19:23:55","169779"
"AK1GE19RT3PK6","cs_wg_v10_real1","3KIBXJ1WD5VUD680SOVASX1OUTPOKM","2","0","MACHINE","9","5","0","2607","Machine","9","2018-01-26 19:23:55","169780"
"AEWGY34WUIA32","cs_wg_v10_real1","3IO1LGZLK9YKTZ0VJ3CDLS66ET268X","39","0","FOOTBALL","0","5","1","2234","football","0","2018-01-26 19:23:57","169781"
"ARJJKTGF3RDCO","cs_wg_v10_real1","36ZN444YTRZ37BICSLAYFHMB2P0OIB","75","0","FOOTBALL","1","5","1","1431","football","1","2018-01-26 19:24:02","169782"
"AS1QMPXIT1EGX","cs_wg_v10_real1","3C6FJU71TQUKAGHESP8A0B8OAUMYU4","12","0","WEDDING","9","5","0","985","wedding","9","2018-01-26 19:24:04","169783"
"AEWGY34WUIA32","cs_wg_v10_real1","3IO1LGZLK9YKTZ0VJ3CDLS66ET268X","40","0","BASKET","10","5","0","1521","basket","10","2018-01-26 19:24:06","169784"
"AK1GE19RT3PK6","cs_wg_v10_real1","3KIBXJ1WD5VUD680SOVASX1OUTPOKM","3","0","WEDDING","1","5","0","3272","Wedding","1","2018-01-26 19:24:08","169785"
"ARJJKTGF3RDCO","cs_wg_v10_real1","36ZN444YTRZ37BICSLAYFHMB2P0OIB","76","0","LADDER","1","5","0","2422","ladder","1","2018-01-26 19:24:10","169786"
"ARJJKTGF3RDCO","cs_wg_v10_real1","36ZN444YTRZ37BICSLAYFHMB2P0OIB","77","0","BASKET","9","5","0","902","basket","9","2018-01-26 19:24:16","169787"
"AS1QMPXIT1EGX","cs_wg_v10_real1","3C6FJU71TQUKAGHESP8A0B8OAUMYU4","13","0","COMMUNITY","1","5","0","2128","community","1","2018-01-26 19:24:16","169788"
"AEWGY34WUIA32","cs_wg_v10_real1","3IO1LGZLK9YKTZ0VJ3CDLS66ET268X","41","0","MACHINE","0","5","0","1722","machine","0","2018-01-26 19:24:20","169789"
"AK1GE19RT3PK6","cs_wg_v10_real1","3KIBXJ1WD5VUD680SOVASX1OUTPOKM","4","0","HELICOPTER","0","5","0","1293","Helicopter","0","2018-01-26 19:24:21","169790"
"ARJJKTGF3RDCO","cs_wg_v10_real1","36ZN444YTRZ37BICSLAYFHMB2P0OIB","78","0","DOORWAY","0","5","0","983","doorway","0","2018-01-26 19:24:23","169791"
"AS1QMPXIT1EGX","cs_wg_v10_real1","3C6FJU71TQUKAGHESP8A0B8OAUMYU4","14","0","DOORWAY","0","5","1","1836","doorway","0","2018-01-26 19:24:27","169792"
"AEWGY34WUIA32","cs_wg_v10_real1","3IO1LGZLK9YKTZ0VJ3CDLS66ET268X","42","0","BOOKSHELF","9","5","0","2282","bookshelf","9","2018-01-26 19:24:30","169793"
"ARJJKTGF3RDCO","cs_wg_v10_real1","36ZN444YTRZ37BICSLAYFHMB2P0OIB","79","0","KEYBOARD","9","5","0","5621","keyboard","9","2018-01-26 19:24:34","169794"
"AK1GE19RT3PK6","cs_wg_v10_real1","3KIBXJ1WD5VUD680SOVASX1OUTPOKM","5","0","LADDER","9","5","0","5315","Ladder","9","2018-01-26 19:24:35","169795"
"AS1QMPXIT1EGX","cs_wg_v10_real1","3C6FJU71TQUKAGHESP8A0B8OAUMYU4","15","0","TRAFFIC","1","5","0","3234","traffic","1","2018-01-26 19:24:38","169796"
"AEWGY34WUIA32","cs_wg_v10_real1","3IO1LGZLK9YKTZ0VJ3CDLS66ET268X","43","0","UMBRELLA","10","5","0","1257","umbrella","10","2018-01-26 19:24:40","169797"
"ARJJKTGF3RDCO","cs_wg_v10_real1","36ZN444YTRZ37BICSLAYFHMB2P0OIB","80","0","TRAFFIC","0","5","1","1094","traffic","0","2018-01-26 19:24:41","169798"
"AS1QMPXIT1EGX","cs_wg_v10_real1","3C6FJU71TQUKAGHESP8A0B8OAUMYU4","16","0","DOORWAY","0","5","1","1421","doorway","0","2018-01-26 19:24:47","169799"
"ARJJKTGF3RDCO","cs_wg_v10_real1","36ZN444YTRZ37BICSLAYFHMB2P0OIB","81","0","BASKET","9","5","0","2182","basket","9","2018-01-26 19:24:48","169800"
"AK1GE19RT3PK6","cs_wg_v10_real1","3KIBXJ1WD5VUD680SOVASX1OUTPOKM","6","0","BASKET","9","5","0","2118","Basket","9","2018-01-26 19:24:51","169801"
"ARJJKTGF3RDCO","cs_wg_v10_real1","36ZN444YTRZ37BICSLAYFHMB2P0OIB","82","0","LADDER","1","5","1","902","ladder","1 ","2018-01-26 19:24:55","169802"
"AS1QMPXIT1EGX","cs_wg_v10_real1","3C6FJU71TQUKAGHESP8A0B8OAUMYU4","17","0","STRUCTURE","0","5","0","1360","structure","0","2018-01-26 19:24:56","169803"
"ARJJKTGF3RDCO","cs_wg_v10_real1","36ZN444YTRZ37BICSLAYFHMB2P0OIB","83","0","LADDER","1","5","1","1030","ladder","1","2018-01-26 19:25:01","169804"
"AK1GE19RT3PK6","cs_wg_v10_real1","3KIBXJ1WD5VUD680SOVASX1OUTPOKM","7","0","STOMACH","0","5","0","1447","Stomach","0","2018-01-26 19:25:02","169805"
"AS1QMPXIT1EGX","cs_wg_v10_real1","3C6FJU71TQUKAGHESP8A0B8OAUMYU4","18","0","BASKET","0","5","0","2064","basket","0","2018-01-26 19:25:05","169806"
"ARJJKTGF3RDCO","cs_wg_v10_real1","36ZN444YTRZ37BICSLAYFHMB2P0OIB","84","0","FOOTBALL","1","5","1","822","football","1","2018-01-26 19:25:08","169807"
"ARJJKTGF3RDCO","cs_wg_v10_real1","36ZN444YTRZ37BICSLAYFHMB2P0OIB","85","0","UMBRELLA","10","5","0","535","umbrella","10","2018-01-26 19:25:14","169808"
"AS1QMPXIT1EGX","cs_wg_v10_real1","3C6FJU71TQUKAGHESP8A0B8OAUMYU4","19","0","MACHINE","10","5","1","1793","machine","10","2018-01-26 19:25:15","169809"
"AK1GE19RT3PK6","cs_wg_v10_real1","3KIBXJ1WD5VUD680SOVASX1OUTPOKM","8","0","UMBRELLA","1","5","0","1773","Umbrella","1","2018-01-26 19:25:17","169810"
"ARJJKTGF3RDCO","cs_wg_v10_real1","36ZN444YTRZ37BICSLAYFHMB2P0OIB","86","0","DOORWAY","0","5","0","582","doorway","0","2018-01-26 19:25:20","169811"
"AEWGY34WUIA32","cs_wg_v10_real1","3IO1LGZLK9YKTZ0VJ3CDLS66ET268X","44","0","LADDER","10","5","0","25743","ladder","10","2018-01-26 19:25:24","169812"
"AS1QMPXIT1EGX","cs_wg_v10_real1","3C6FJU71TQUKAGHESP8A0B8OAUMYU4","20","0","BOOKSHELF","10","5","0","1348","bookshelf","10","2018-01-26 19:25:24","169813"
"ARJJKTGF3RDCO","cs_wg_v10_real1","36ZN444YTRZ37BICSLAYFHMB2P0OIB","87","0","HELICOPTER","10","5","0","517","helicopter","10","2018-01-26 19:25:26","169814"
"AK1GE19RT3PK6","cs_wg_v10_real1","3KIBXJ1WD5VUD680SOVASX1OUTPOKM","9","0","KEYBOARD","10","5","0","1450","Keyboard","10","2018-01-26 19:25:30","169815"
"AS1QMPXIT1EGX","cs_wg_v10_real1","3C6FJU71TQUKAGHESP8A0B8OAUMYU4","21","0","HELICOPTER","10","5","0","1581","helicopter","10","2018-01-26 19:25:34","169816"
"ARJJKTGF3RDCO","cs_wg_v10_real1","36ZN444YTRZ37BICSLAYFHMB2P0OIB","88","0","DOORWAY","0","5","1","711","doorway","0","2018-01-26 19:25:34","169817"
"ARJJKTGF3RDCO","cs_wg_v10_real1","36ZN444YTRZ37BICSLAYFHMB2P0OIB","89","0","UMBRELLA","10","5","0","1022","umbrella","10","2018-01-26 19:25:41","169818"
"AS1QMPXIT1EGX","cs_wg_v10_real1","3C6FJU71TQUKAGHESP8A0B8OAUMYU4","22","0","BASKET","0","5","1","1192","basket","0","2018-01-26 19:25:42","169819"
"AEWGY34WUIA32","cs_wg_v10_real1","3IO1LGZLK9YKTZ0VJ3CDLS66ET268X","45","0","HELICOPTER","1","5","1","6408","helicoptor","1","2018-01-26 19:25:44","169820"
"ARJJKTGF3RDCO","cs_wg_v10_real1","36ZN444YTRZ37BICSLAYFHMB2P0OIB","90","0","COMMUNITY","9","5","0","1111","community","9","2018-01-26 19:25:49","169821"
"AS1QMPXIT1EGX","cs_wg_v10_real1","3C6FJU71TQUKAGHESP8A0B8OAUMYU4","23","0","HELICOPTER","10","5","0","1056","helicopter","10","2018-01-26 19:25:53","169822"
"ARJJKTGF3RDCO","cs_wg_v10_real1","36ZN444YTRZ37BICSLAYFHMB2P0OIB","91","0","HELICOPTER","10","5","0","1014","helicopter","10","2018-01-26 19:25:56","169823"
"AK1GE19RT3PK6","cs_wg_v10_real1","3KIBXJ1WD5VUD680SOVASX1OUTPOKM","10","0","FOOTBALL","1","5","0","17075","Football","1","2018-01-26 19:25:56","169824"
"AS1QMPXIT1EGX","cs_wg_v10_real1","3C6FJU71TQUKAGHESP8A0B8OAUMYU4","24","0","STOMACH","0","5","1","3037","stomach","0","2018-01-26 19:26:02","169825"
"AEWGY34WUIA32","cs_wg_v10_real1","3IO1LGZLK9YKTZ0VJ3CDLS66ET268X","46","0","DOORWAY","0","5","1","5473","doorway","0","2018-01-26 19:26:03","169826"
"ARJJKTGF3RDCO","cs_wg_v10_real1","36ZN444YTRZ37BICSLAYFHMB2P0OIB","92","0","COMMUNITY","9","5","0","726","community","9","2018-01-26 19:26:03","169827"
"AK1GE19RT3PK6","cs_wg_v10_real1","3KIBXJ1WD5VUD680SOVASX1OUTPOKM","11","0","MACHINE","9","5","0","1253","Machine","9","2018-01-26 19:26:06","169828"
"ARJJKTGF3RDCO","cs_wg_v10_real1","36ZN444YTRZ37BICSLAYFHMB2P0OIB","93","0","BASKET","9","5","0","1863","basket","9","2018-01-26 19:26:10","169829"
"AS1QMPXIT1EGX","cs_wg_v10_real1","3C6FJU71TQUKAGHESP8A0B8OAUMYU4","25","0","WEDDING","9","5","0","1418","wedding","9","2018-01-26 19:26:11","169830"
"AEWGY34WUIA32","cs_wg_v10_real1","3IO1LGZLK9YKTZ0VJ3CDLS66ET268X","47","0","COMMUNITY","1","5","1","2369","community","1","2018-01-26 19:26:13","169831"
"ARJJKTGF3RDCO","cs_wg_v10_real1","36ZN444YTRZ37BICSLAYFHMB2P0OIB","94","0","FOOTBALL","1","5","1","662","football","1
1","2018-01-26 19:26:19","169832"
"AK1GE19RT3PK6","cs_wg_v10_real1","3KIBXJ1WD5VUD680SOVASX1OUTPOKM","12","0","UMBRELLA","1","5","1","2891","Umbrella","1","2018-01-26 19:26:22","169833"
"AS1QMPXIT1EGX","cs_wg_v10_real1","3C6FJU71TQUKAGHESP8A0B8OAUMYU4","26","0","BOOKSHELF","10","5","0","1231","bookshelf","10","2018-01-26 19:26:22","169834"
"AEWGY34WUIA32","cs_wg_v10_real1","3IO1LGZLK9YKTZ0VJ3CDLS66ET268X","48","0","STRUCTURE","0","5","1","4593","structure","0","2018-01-26 19:26:26","169835"
"ARJJKTGF3RDCO","cs_wg_v10_real1","36ZN444YTRZ37BICSLAYFHMB2P0OIB","95","0","BOOKSHELF","10","5","0","1287","bookshelf","10","2018-01-26 19:26:26","169836"
"AS1QMPXIT1EGX","cs_wg_v10_real1","3C6FJU71TQUKAGHESP8A0B8OAUMYU4","27","0","STRUCTURE","0","5","1","1587","structure","0","2018-01-26 19:26:30","169837"
"AK1GE19RT3PK6","cs_wg_v10_real1","3KIBXJ1WD5VUD680SOVASX1OUTPOKM","13","0","BOOKSHELF","10","5","0","1390","Bookshelf","10","2018-01-26 19:26:32","169838"
"ARJJKTGF3RDCO","cs_wg_v10_real1","36ZN444YTRZ37BICSLAYFHMB2P0OIB","96","0","UMBRELLA","10","5","0","502","umbrella","10","2018-01-26 19:26:33","169839"
"AEWGY34WUIA32","cs_wg_v10_real1","3IO1LGZLK9YKTZ0VJ3CDLS66ET268X","49","0","STRUCTURE","0","5","1","1626","structure","0","2018-01-26 19:26:36","169840"
"ARJJKTGF3RDCO","cs_wg_v10_real1","36ZN444YTRZ37BICSLAYFHMB2P0OIB","97","0","STRUCTURE","0","5","1","711","structure","0","2018-01-26 19:26:39","169841"
"AS1QMPXIT1EGX","cs_wg_v10_real1","3C6FJU71TQUKAGHESP8A0B8OAUMYU4","28","0","WEDDING","9","5","0","1313","wedding","9","2018-01-26 19:26:39","169842"
"AK1GE19RT3PK6","cs_wg_v10_real1","3KIBXJ1WD5VUD680SOVASX1OUTPOKM","14","0","WEDDING","1","5","0","836","Wedding","1","2018-01-26 19:26:41","169843"
"ARJJKTGF3RDCO","cs_wg_v10_real1","36ZN444YTRZ37BICSLAYFHMB2P0OIB","98","0","FOOTBALL","1","5","1","692","football","1","2018-01-26 19:26:45","169844"
"AS1QMPXIT1EGX","cs_wg_v10_real1","3C6FJU71TQUKAGHESP8A0B8OAUMYU4","29","0","COMMUNITY","1","5","1","1294","community","1","2018-01-26 19:26:48","169845"
"ARJJKTGF3RDCO","cs_wg_v10_real1","36ZN444YTRZ37BICSLAYFHMB2P0OIB","99","0","STOMACH","0","5","1","646","stomach","0","2018-01-26 19:26:51","169846"
"AEWGY34WUIA32","cs_wg_v10_real1","3IO1LGZLK9YKTZ0VJ3CDLS66ET268X","50","0","KEYBOARD","9","5","1","3017","keyboard","9","2018-01-26 19:26:53","169847"
"AK1GE19RT3PK6","cs_wg_v10_real1","3KIBXJ1WD5VUD680SOVASX1OUTPOKM","15","0","BOOKSHELF","10","5","0","1003","Bookshelf","10","2018-01-26 19:26:55","169848"
"ARJJKTGF3RDCO","cs_wg_v10_real1","36ZN444YTRZ37BICSLAYFHMB2P0OIB","100","0","WEDDING","10","5","0","726","wedding","10","2018-01-26 19:26:59","169849"
"AS1QMPXIT1EGX","cs_wg_v10_real1","3C6FJU71TQUKAGHESP8A0B8OAUMYU4","30","0","BOOKSHELF","10","5","0","1217","BOOKSHELF","9","2018-01-26 19:27:01","169850"
"AEWGY34WUIA32","cs_wg_v10_real1","3IO1LGZLK9YKTZ0VJ3CDLS66ET268X","51","0","MACHINE","0","5","1","2353","machine","0","2018-01-26 19:27:03","169851"
"AK1GE19RT3PK6","cs_wg_v10_real1","3KIBXJ1WD5VUD680SOVASX1OUTPOKM","16","0","COMMUNITY","10","5","0","1207","Community","10","2018-01-26 19:27:05","169852"
"ARJJKTGF3RDCO","cs_wg_v10_real1","36ZN444YTRZ37BICSLAYFHMB2P0OIB","101","0","DOORWAY","0","5","0","758","doorway","0","2018-01-26 19:27:05","169853"
"AS1QMPXIT1EGX","cs_wg_v10_real1","3C6FJU71TQUKAGHESP8A0B8OAUMYU4","31","0","DOORWAY","0","5","0","2050","doorway","0","2018-01-26 19:27:11","169854"
"AK1GE19RT3PK6","cs_wg_v10_real1","3KIBXJ1WD5VUD680SOVASX1OUTPOKM","17","0","FOOTBALL","1","5","0","809","Football","1","2018-01-26 19:27:13","169855"
"ARJJKTGF3RDCO","cs_wg_v10_real1","36ZN444YTRZ37BICSLAYFHMB2P0OIB","102","0","HELICOPTER","10","5","0","1110","helicopter","10","2018-01-26 19:27:13","169856"
"AEWGY34WUIA32","cs_wg_v10_real1","3IO1LGZLK9YKTZ0VJ3CDLS66ET268X","52","0","STRUCTURE","0","5","1","2041","structure","0","2018-01-26 19:27:18","169857"
"AS1QMPXIT1EGX","cs_wg_v10_real1","3C6FJU71TQUKAGHESP8A0B8OAUMYU4","32","0","FOOTBALL","9","5","0","1275","football","9","2018-01-26 19:27:19","169858"
"ARJJKTGF3RDCO","cs_wg_v10_real1","36ZN444YTRZ37BICSLAYFHMB2P0OIB","103","0","UMBRELLA","10","5","0","615","umbrella","10","2018-01-26 19:27:20","169859"
"AK1GE19RT3PK6","cs_wg_v10_real1","3KIBXJ1WD5VUD680SOVASX1OUTPOKM","18","0","HELICOPTER","0","5","0","1068","Helicopter","0","2018-01-26 19:27:24","169860"
"ARJJKTGF3RDCO","cs_wg_v10_real1","36ZN444YTRZ37BICSLAYFHMB2P0OIB","104","0","MACHINE","1","5","1","1366","machine","1","2018-01-26 19:27:26","169861"
"AS1QMPXIT1EGX","cs_wg_v10_real1","3C6FJU71TQUKAGHESP8A0B8OAUMYU4","33","0","FOOTBALL","9","5","0","903","football","9","2018-01-26 19:27:27","169862"
"AEWGY34WUIA32","cs_wg_v10_real1","3IO1LGZLK9YKTZ0VJ3CDLS66ET268X","53","0","BOOKSHELF","9","5","0","3322","bookshelf","9","2018-01-26 19:27:29","169863"
"ARJJKTGF3RDCO","cs_wg_v10_real1","36ZN444YTRZ37BICSLAYFHMB2P0OIB","105","0","STOMACH","0","5","1","1047","stomach","10","2018-01-26 19:27:34","169864"
"AK1GE19RT3PK6","cs_wg_v10_real1","3KIBXJ1WD5VUD680SOVASX1OUTPOKM","19","0","COMMUNITY","10","5","0","920","Community","10","2018-01-26 19:27:34","169865"
"AS1QMPXIT1EGX","cs_wg_v10_real1","3C6FJU71TQUKAGHESP8A0B8OAUMYU4","34","0","STOMACH","0","5","1","3146","stomach","0","2018-01-26 19:27:37","169866"
"AEWGY34WUIA32","cs_wg_v10_real1","3IO1LGZLK9YKTZ0VJ3CDLS66ET268X","54","0","STOMACH","1","5","1","3714","stomach","1","2018-01-26 19:27:39","169867"
"AK1GE19RT3PK6","cs_wg_v10_real1","3KIBXJ1WD5VUD680SOVASX1OUTPOKM","20","0","MACHINE","9","5","0","833","Machine","9","2018-01-26 19:27:43","169868"
"ARJJKTGF3RDCO","cs_wg_v10_real1","36ZN444YTRZ37BICSLAYFHMB2P0OIB","106","0","KEYBOARD","9","5","0","2774","keyboard","9","2018-01-26 19:27:44","169869"
"AS1QMPXIT1EGX","cs_wg_v10_real1","3C6FJU71TQUKAGHESP8A0B8OAUMYU4","35","0","FOOTBALL","9","5","0","994","football","9","2018-01-26 19:27:46","169870"
"AEWGY34WUIA32","cs_wg_v10_real1","3IO1LGZLK9YKTZ0VJ3CDLS66ET268X","55","0","WEDDING","9","5","0","1457","wedding","9","2018-01-26 19:27:47","169871"
"ARJJKTGF3RDCO","cs_wg_v10_real1","36ZN444YTRZ37BICSLAYFHMB2P0OIB","107","0","WEDDING","10","5","0","566","wedding","10","2018-01-26 19:27:50","169872"
"ARJJKTGF3RDCO","cs_wg_v10_real1","36ZN444YTRZ37BICSLAYFHMB2P0OIB","108","0","TRAFFIC","0","5","1","822","traffic","0","2018-01-26 19:27:56","169873"
"AS1QMPXIT1EGX","cs_wg_v10_real1","3C6FJU71TQUKAGHESP8A0B8OAUMYU4","36","0","KEYBOARD","9","5","0","1115","keyboard","9","2018-01-26 19:27:57","169874"
"AK1GE19RT3PK6","cs_wg_v10_real1","3KIBXJ1WD5VUD680SOVASX1OUTPOKM","21","0","STOMACH","0","5","0","6911","Stomach","0","2018-01-26 19:27:58","169875"
"AEWGY34WUIA32","cs_wg_v10_real1","3IO1LGZLK9YKTZ0VJ3CDLS66ET268X","56","0","MACHINE","0","5","1","1801","machine","0","2018-01-26 19:27:59","169876"
"ARJJKTGF3RDCO","cs_wg_v10_real1","36ZN444YTRZ37BICSLAYFHMB2P0OIB","109","0","LADDER","1","5","1","982","ladder","1","2018-01-26 19:28:03","169877"
"AS1QMPXIT1EGX","cs_wg_v10_real1","3C6FJU71TQUKAGHESP8A0B8OAUMYU4","37","0","TRAFFIC","1","5","1","987","traffic","1","2018-01-26 19:28:07","169878"
"AEWGY34WUIA32","cs_wg_v10_real1","3IO1LGZLK9YKTZ0VJ3CDLS66ET268X","57","0","BOOKSHELF","9","5","0","1354","bookshelf","9","2018-01-26 19:28:09","169879"
"ARJJKTGF3RDCO","cs_wg_v10_real1","36ZN444YTRZ37BICSLAYFHMB2P0OIB","110","0","BOOKSHELF","10","5","0","662","bookshelf","10","2018-01-26 19:28:09","169880"
"AK1GE19RT3PK6","cs_wg_v10_real1","3KIBXJ1WD5VUD680SOVASX1OUTPOKM","22","0","HELICOPTER","0","5","1","3667","Helicopter","0","2018-01-26 19:28:11","169881"
"A2GV9WSNSPX53","cs_wg_v10_real1","3F6HPJW4JD171ZDCU4GG9VSGGV2W2K","0","0","UMBRELLA","10","5","0","5477","umbrella","10","2018-01-26 19:28:15","169882"
"AS1QMPXIT1EGX","cs_wg_v10_real1","3C6FJU71TQUKAGHESP8A0B8OAUMYU4","38","0","WEDDING","9","5","0","860","wedding","9","2018-01-26 19:28:15","169883"
"AEWGY34WUIA32","cs_wg_v10_real1","3IO1LGZLK9YKTZ0VJ3CDLS66ET268X","58","0","BASKET","10","5","0","1288","basket","10","2018-01-26 19:28:17","169884"
"ARJJKTGF3RDCO","cs_wg_v10_real1","36ZN444YTRZ37BICSLAYFHMB2P0OIB","111","0","HELICOPTER","10","5","0","2279","helicopter","10","2018-01-26 19:28:18","169885"
"AK1GE19RT3PK6","cs_wg_v10_real1","3KIBXJ1WD5VUD680SOVASX1OUTPOKM","23","0","COMMUNITY","10","5","0","902","Community","10","2018-01-26 19:28:22","169886"
"AS1QMPXIT1EGX","cs_wg_v10_real1","3C6FJU71TQUKAGHESP8A0B8OAUMYU4","39","0","BASKET","0","5","1","1417","basket","0","2018-01-26 19:28:24","169887"
"AEWGY34WUIA32","cs_wg_v10_real1","3IO1LGZLK9YKTZ0VJ3CDLS66ET268X","59","0","WEDDING","9","5","0","1066","wedding","9","2018-01-26 19:28:25","169888"
"A2GV9WSNSPX53","cs_wg_v10_real1","3F6HPJW4JD171ZDCU4GG9VSGGV2W2K","1","0","TRAFFIC","1","5","0","3271","traffic","1","2018-01-26 19:28:28","169889"
"A3LVDUYETYTVO0","cs_wg_v10_real1","37UEWGM5HT9V4IEUC66WHDAUWA9R1V","0","0","DOORWAY","10","5","0","6613","Doorway","10","2018-01-26 19:28:28","169890"
"AK1GE19RT3PK6","cs_wg_v10_real1","3KIBXJ1WD5VUD680SOVASX1OUTPOKM","24","0","LADDER","9","5","0","881","Ladder","9","2018-01-26 19:28:31","169891"
"A2GV9WSNSPX53","cs_wg_v10_real1","3F6HPJW4JD171ZDCU4GG9VSGGV2W2K","2","0","FOOTBALL","9","5","0","2497","football","9","2018-01-26 19:28:39","169892"
"AS1QMPXIT1EGX","cs_wg_v10_real1","3C6FJU71TQUKAGHESP8A0B8OAUMYU4","40","0","HELICOPTER","10","5","0","6375","helicopter","10","2018-01-26 19:28:40","169893"
"AK1GE19RT3PK6","cs_wg_v10_real1","3KIBXJ1WD5VUD680SOVASX1OUTPOKM","25","0","TRAFFIC","0","5","0","644","Traffic","0","2018-01-26 19:28:40","169894"
"AEWGY34WUIA32","cs_wg_v10_real1","3IO1LGZLK9YKTZ0VJ3CDLS66ET268X","60","0","DOORWAY","0","5","1","9898","doorway","0","2018-01-26 19:28:42","169895"
"AS1QMPXIT1EGX","cs_wg_v10_real1","3C6FJU71TQUKAGHESP8A0B8OAUMYU4","41","0","FOOTBALL","9","5","0","1144","football","9","2018-01-26 19:28:49","169896"
"AK1GE19RT3PK6","cs_wg_v10_real1","3KIBXJ1WD5VUD680SOVASX1OUTPOKM","26","0","BASKET","9","5","0","854","Basket","9","2018-01-26 19:28:50","169897"
"AEWGY34WUIA32","cs_wg_v10_real1","3IO1LGZLK9YKTZ0VJ3CDLS66ET268X","61","0","DOORWAY","0","5","1","1658","doorway","0","2018-01-26 19:28:50","169898"
"A2GV9WSNSPX53","cs_wg_v10_real1","3F6HPJW4JD171ZDCU4GG9VSGGV2W2K","3","0","LADDER","10","5","1","2320","ladder ","10","2018-01-26 19:28:51","169899"
"A3LVDUYETYTVO0","cs_wg_v10_real1","37UEWGM5HT9V4IEUC66WHDAUWA9R1V","1","0","HELICOPTER","10","5","0","3612","Helicopter","10","2018-01-26 19:28:54","169900"
"AS1QMPXIT1EGX","cs_wg_v10_real1","3C6FJU71TQUKAGHESP8A0B8OAUMYU4","42","0","DOORWAY","0","5","1","1679","doorway","0","2018-01-26 19:28:58","169901"
"AEWGY34WUIA32","cs_wg_v10_real1","3IO1LGZLK9YKTZ0VJ3CDLS66ET268X","62","0","UMBRELLA","10","5","0","1306","umbrella","10","2018-01-26 19:29:00","169902"
"A2GV9WSNSPX53","cs_wg_v10_real1","3F6HPJW4JD171ZDCU4GG9VSGGV2W2K","4","0","BOOKSHELF","10","5","0","967","bookshelf","10","2018-01-26 19:29:02","169903"
"AK1GE19RT3PK6","cs_wg_v10_real1","3KIBXJ1WD5VUD680SOVASX1OUTPOKM","27","0","UMBRELLA","1","5","1","2514","Umbrella","1","2018-01-26 19:29:04","169904"
"AS1QMPXIT1EGX","cs_wg_v10_real1","3C6FJU71TQUKAGHESP8A0B8OAUMYU4","43","0","HELICOPTER","10","5","0","1064","helicopter","10","2018-01-26 19:29:10","169905"
"AEWGY34WUIA32","cs_wg_v10_real1","3IO1LGZLK9YKTZ0VJ3CDLS66ET268X","63","0","STRUCTURE","0","5","1","3673","structure","0","2018-01-26 19:29:11","169906"
"A2GV9WSNSPX53","cs_wg_v10_real1","3F6HPJW4JD171ZDCU4GG9VSGGV2W2K","5","0","STRUCTURE","0","5","0","1513","structure","0","2018-01-26 19:29:11","169907"
"A3LVDUYETYTVO0","cs_wg_v10_real1","37UEWGM5HT9V4IEUC66WHDAUWA9R1V","2","0","HELICOPTER","10","5","0","2859","Helicopter","10","2018-01-26 19:29:13","169908"
"AK1GE19RT3PK6","cs_wg_v10_real1","3KIBXJ1WD5VUD680SOVASX1OUTPOKM","28","0","FOOTBALL","1","5","1","1756","Football","1","2018-01-26 19:29:14","169909"
"AK1GE19RT3PK6","cs_wg_v10_real1","3KIBXJ1WD5VUD680SOVASX1OUTPOKM","29","0","TRAFFIC","0","5","0","1376","Traffic","0","2018-01-26 19:29:23","169910"
"A2GV9WSNSPX53","cs_wg_v10_real1","3F6HPJW4JD171ZDCU4GG9VSGGV2W2K","6","0","TRAFFIC","1","5","1","2841","traffic","1","2018-01-26 19:29:23","169911"
"AS1QMPXIT1EGX","cs_wg_v10_real1","3C6FJU71TQUKAGHESP8A0B8OAUMYU4","44","0","KEYBOARD","9","5","0","1107","keyboard","9","2018-01-26 19:29:27","169912"
"AEWGY34WUIA32","cs_wg_v10_real1","3IO1LGZLK9YKTZ0VJ3CDLS66ET268X","64","0","LADDER","10","5","0","3329","ladder","10","2018-01-26 19:29:28","169913"
"A2GV9WSNSPX53","cs_wg_v10_real1","3F6HPJW4JD171ZDCU4GG9VSGGV2W2K","7","0","COMMUNITY","0","5","0","1192","community","0","2018-01-26 19:29:33","169914"
"A3LVDUYETYTVO0","cs_wg_v10_real1","37UEWGM5HT9V4IEUC66WHDAUWA9R1V","3","0","STOMACH","1","5","0","2559","Stomach","1","2018-01-26 19:29:33","169915"
"AK1GE19RT3PK6","cs_wg_v10_real1","3KIBXJ1WD5VUD680SOVASX1OUTPOKM","30","0","UMBRELLA","1","5","1","1681","Umbrella","1","2018-01-26 19:29:34","169916"
"AS1QMPXIT1EGX","cs_wg_v10_real1","3C6FJU71TQUKAGHESP8A0B8OAUMYU4","45","0","MACHINE","10","5","0","1505","machine","10","2018-01-26 19:29:36","169917"
"A2GV9WSNSPX53","cs_wg_v10_real1","3F6HPJW4JD171ZDCU4GG9VSGGV2W2K","8","0","FOOTBALL","9","5","0","3348","football","9","2018-01-26 19:29:43","169918"
"AK1GE19RT3PK6","cs_wg_v10_real1","3KIBXJ1WD5VUD680SOVASX1OUTPOKM","31","0","STRUCTURE","0","5","0","1427","Structure","0","2018-01-26 19:29:45","169919"
"A2GV9WSNSPX53","cs_wg_v10_real1","3F6HPJW4JD171ZDCU4GG9VSGGV2W2K","9","0","WEDDING","0","5","0","853","wedding","0","2018-01-26 19:29:51","169920"
"AK1GE19RT3PK6","cs_wg_v10_real1","3KIBXJ1WD5VUD680SOVASX1OUTPOKM","32","0","LADDER","9","5","1","1718","Ladder","9","2018-01-26 19:29:55","169921"
"A3LVDUYETYTVO0","cs_wg_v10_real1","37UEWGM5HT9V4IEUC66WHDAUWA9R1V","4","0","STRUCTURE","1","5","0","4215","Structure","1","2018-01-26 19:29:56","169922"
"AS1QMPXIT1EGX","cs_wg_v10_real1","3C6FJU71TQUKAGHESP8A0B8OAUMYU4","46","0","LADDER","1","5","0","13368","ladder","1","2018-01-26 19:29:57","169923"
"AEWGY34WUIA32","cs_wg_v10_real1","3IO1LGZLK9YKTZ0VJ3CDLS66ET268X","65","0","MACHINE","0","5","1","20425","machine","0","2018-01-26 19:30:00","169924"
"AK1GE19RT3PK6","cs_wg_v10_real1","3KIBXJ1WD5VUD680SOVASX1OUTPOKM","33","0","WEDDING","1","5","0","618","Wedding","1","2018-01-26 19:30:03","169925"
"A2GV9WSNSPX53","cs_wg_v10_real1","3F6HPJW4JD171ZDCU4GG9VSGGV2W2K","10","0","LADDER","10","5","0","3350","ladder ","10","2018-01-26 19:30:04","169926"
"AS1QMPXIT1EGX","cs_wg_v10_real1","3C6FJU71TQUKAGHESP8A0B8OAUMYU4","47","0","UMBRELLA","10","5","1","1602","umbrella","10","2018-01-26 19:30:06","169927"
"AEWGY34WUIA32","cs_wg_v10_real1","3IO1LGZLK9YKTZ0VJ3CDLS66ET268X","66","0","LADDER","10","5","0","4074","ladder","10","2018-01-26 19:30:11","169928"
"AK1GE19RT3PK6","cs_wg_v10_real1","3KIBXJ1WD5VUD680SOVASX1OUTPOKM","34","0","BOOKSHELF","10","5","0","769","Bookshelf","10","2018-01-26 19:30:13","169929"
"A2GV9WSNSPX53","cs_wg_v10_real1","3F6HPJW4JD171ZDCU4GG9VSGGV2W2K","11","0","UMBRELLA","10","5","0","943","umbrella","10","2018-01-26 19:30:14","169930"
"AS1QMPXIT1EGX","cs_wg_v10_real1","3C6FJU71TQUKAGHESP8A0B8OAUMYU4","48","0","FOOTBALL","9","5","0","930","football","9","2018-01-26 19:30:15","169931"
"A3LVDUYETYTVO0","cs_wg_v10_real1","37UEWGM5HT9V4IEUC66WHDAUWA9R1V","5","0","BOOKSHELF","10","5","0","3163","Bookshelf","10","2018-01-26 19:30:18","169932"
"AS1QMPXIT1EGX","cs_wg_v10_real1","3C6FJU71TQUKAGHESP8A0B8OAUMYU4","49","0","BASKET","0","5","1","1210","basket","0","2018-01-26 19:30:22","169933"
"AK1GE19RT3PK6","cs_wg_v10_real1","3KIBXJ1WD5VUD680SOVASX1OUTPOKM","35","0","COMMUNITY","10","5","0","645","Community","10","2018-01-26 19:30:24","169934"
"AEWGY34WUIA32","cs_wg_v10_real1","3IO1LGZLK9YKTZ0VJ3CDLS66ET268X","67","0","KEYBOARD","9","5","0","4834","keyboard","9","2018-01-26 19:30:24","169935"
"A2GV9WSNSPX53","cs_wg_v10_real1","3F6HPJW4JD171ZDCU4GG9VSGGV2W2K","12","0","BOOKSHELF","10","5","0","1982","bookshelf","10","2018-01-26 19:30:25","169936"
"AS1QMPXIT1EGX","cs_wg_v10_real1","3C6FJU71TQUKAGHESP8A0B8OAUMYU4","50","0","MACHINE","10","5","0","1018","machine","10","2018-01-26 19:30:30","169937"
"AK1GE19RT3PK6","cs_wg_v10_real1","3KIBXJ1WD5VUD680SOVASX1OUTPOKM","36","0","WEDDING","1","5","1","1708","Wedding","1","2018-01-26 19:30:34","169938"
"A2GV9WSNSPX53","cs_wg_v10_real1","3F6HPJW4JD171ZDCU4GG9VSGGV2W2K","13","0","STOMACH","1","5","0","1570","stomach","1","2018-01-26 19:30:36","169939"
"AS1QMPXIT1EGX","cs_wg_v10_real1","3C6FJU71TQUKAGHESP8A0B8OAUMYU4","51","0","DOORWAY","0","5","1","1237","doorway","0","2018-01-26 19:30:38","169940"
"AK1GE19RT3PK6","cs_wg_v10_real1","3KIBXJ1WD5VUD680SOVASX1OUTPOKM","37","0","COMMUNITY","10","5","0","852","Community","10","2018-01-26 19:30:44","169941"
"A2GV9WSNSPX53","cs_wg_v10_real1","3F6HPJW4JD171ZDCU4GG9VSGGV2W2K","14","0","UMBRELLA","10","5","0","1789","umbrella","10","2018-01-26 19:30:45","169942"
"A3LVDUYETYTVO0","cs_wg_v10_real1","37UEWGM5HT9V4IEUC66WHDAUWA9R1V","6","0","COMMUNITY","0","5","0","10819","Community","0","2018-01-26 19:30:47","169943"
"AS1QMPXIT1EGX","cs_wg_v10_real1","3C6FJU71TQUKAGHESP8A0B8OAUMYU4","52","0","KEYBOARD","9","5","0","1355","keyboard","9","2018-01-26 19:30:47","169944"
"A2GV9WSNSPX53","cs_wg_v10_real1","3F6HPJW4JD171ZDCU4GG9VSGGV2W2K","15","0","STOMACH","1","5","1","1157","stomach","1","2018-01-26 19:30:53","169945"
"AK1GE19RT3PK6","cs_wg_v10_real1","3KIBXJ1WD5VUD680SOVASX1OUTPOKM","38","0","UMBRELLA","1","5","1","1351","Umbrella","1","2018-01-26 19:30:54","169946"
"AS1QMPXIT1EGX","cs_wg_v10_real1","3C6FJU71TQUKAGHESP8A0B8OAUMYU4","53","0","STOMACH","0","5","1","1206","stomach","0","2018-01-26 19:30:55","169947"
"AEWGY34WUIA32","cs_wg_v10_real1","3IO1LGZLK9YKTZ0VJ3CDLS66ET268X","68","0","FOOTBALL","0","5","1","1401","football","0","2018-01-26 19:30:59","169948"
"A2GV9WSNSPX53","cs_wg_v10_real1","3F6HPJW4JD171ZDCU4GG9VSGGV2W2K","16","0","MACHINE","9","5","0","988","machine","9","2018-01-26 19:31:03","169949"
"AK1GE19RT3PK6","cs_wg_v10_real1","3KIBXJ1WD5VUD680SOVASX1OUTPOKM","39","0","DOORWAY","10","5","0","768","Doorway","10","2018-01-26 19:31:04","169950"
"AS1QMPXIT1EGX","cs_wg_v10_real1","3C6FJU71TQUKAGHESP8A0B8OAUMYU4","54","0","BASKET","0","5","1","1001","basket","0","2018-01-26 19:31:05","169951"
"A3LVDUYETYTVO0","cs_wg_v10_real1","37UEWGM5HT9V4IEUC66WHDAUWA9R1V","7","0","TRAFFIC","9","5","0","2317","Traffic","9","2018-01-26 19:31:06","169952"
"AEWGY34WUIA32","cs_wg_v10_real1","3IO1LGZLK9YKTZ0VJ3CDLS66ET268X","69","0","MACHINE","0","5","1","1489","machine","0","2018-01-26 19:31:08","169953"
"A2GV9WSNSPX53","cs_wg_v10_real1","3F6HPJW4JD171ZDCU4GG9VSGGV2W2K","17","0","HELICOPTER","0","5","0","784","helicopter","0","2018-01-26 19:31:11","169954"
"AS1QMPXIT1EGX","cs_wg_v10_real1","3C6FJU71TQUKAGHESP8A0B8OAUMYU4","55","0","UMBRELLA","10","5","0","1209","umbrella","9","2018-01-26 19:31:14","169955"
"AK1GE19RT3PK6","cs_wg_v10_real1","3KIBXJ1WD5VUD680SOVASX1OUTPOKM","40","0","STRUCTURE","0","5","1","1628","Structure","0","2018-01-26 19:31:14","169956"
"AEWGY34WUIA32","cs_wg_v10_real1","3IO1LGZLK9YKTZ0VJ3CDLS66ET268X","70","0","STRUCTURE","0","5","1","2291","structure","0","2018-01-26 19:31:18","169957"
"A2GV9WSNSPX53","cs_wg_v10_real1","3F6HPJW4JD171ZDCU4GG9VSGGV2W2K","18","0","MACHINE","9","5","1","3760","machine","9","2018-01-26 19:31:22","169958"
"AS1QMPXIT1EGX","cs_wg_v10_real1","3C6FJU71TQUKAGHESP8A0B8OAUMYU4","56","0","STRUCTURE","0","5","1","1071","structure","0","2018-01-26 19:31:22","169959"
"AK1GE19RT3PK6","cs_wg_v10_real1","3KIBXJ1WD5VUD680SOVASX1OUTPOKM","41","0","STOMACH","0","5","0","877","Stomach","0","2018-01-26 19:31:23","169960"
"AEWGY34WUIA32","cs_wg_v10_real1","3IO1LGZLK9YKTZ0VJ3CDLS66ET268X","71","0","DOORWAY","0","5","1","1427","doorway","0","2018-01-26 19:31:29","169961"
"AS1QMPXIT1EGX","cs_wg_v10_real1","3C6FJU71TQUKAGHESP8A0B8OAUMYU4","57","0","TRAFFIC","1","5","1","1047","traffic","1","2018-01-26 19:31:31","169962"
"A2GV9WSNSPX53","cs_wg_v10_real1","3F6HPJW4JD171ZDCU4GG9VSGGV2W2K","19","0","MACHINE","9","5","0","1085","machine","9","2018-01-26 19:31:31","169963"
"A3LVDUYETYTVO0","cs_wg_v10_real1","37UEWGM5HT9V4IEUC66WHDAUWA9R1V","8","0","KEYBOARD","1","5","0","3467","Keyboard","1","2018-01-26 19:31:31","169964"
"AK1GE19RT3PK6","cs_wg_v10_real1","3KIBXJ1WD5VUD680SOVASX1OUTPOKM","42","0","LADDER","9","5","1","6187","Ladder","9","2018-01-26 19:31:37","169965"
"AS1QMPXIT1EGX","cs_wg_v10_real1","3C6FJU71TQUKAGHESP8A0B8OAUMYU4","58","0","STOMACH","0","5","1","826","stomach","0","2018-01-26 19:31:38","169966"
"A2GV9WSNSPX53","cs_wg_v10_real1","3F6HPJW4JD171ZDCU4GG9VSGGV2W2K","20","0","COMMUNITY","0","5","1","3303","community","0","2018-01-26 19:31:42","169967"
"AS1QMPXIT1EGX","cs_wg_v10_real1","3C6FJU71TQUKAGHESP8A0B8OAUMYU4","59","0","STRUCTURE","0","5","1","1017","stucture","0","2018-01-26 19:31:46","169968"
"AK1GE19RT3PK6","cs_wg_v10_real1","3KIBXJ1WD5VUD680SOVASX1OUTPOKM","43","0","DOORWAY","10","5","0","705","Doorway","10","2018-01-26 19:31:46","169969"
"A2GV9WSNSPX53","cs_wg_v10_real1","3F6HPJW4JD171ZDCU4GG9VSGGV2W2K","21","0","BOOKSHELF","10","5","0","1255","bookshelf","10","2018-01-26 19:31:51","169970"
"AS1QMPXIT1EGX","cs_wg_v10_real1","3C6FJU71TQUKAGHESP8A0B8OAUMYU4","60","0","TRAFFIC","1","5","1","1159","trafic","0","2018-01-26 19:31:55","169971"
"AK1GE19RT3PK6","cs_wg_v10_real1","3KIBXJ1WD5VUD680SOVASX1OUTPOKM","44","0","FOOTBALL","1","5","0","2389","Football","1","2018-01-26 19:31:56","169972"
"A3LVDUYETYTVO0","cs_wg_v10_real1","37UEWGM5HT9V4IEUC66WHDAUWA9R1V","9","0","KEYBOARD","1","5","1","4704","Keyboard","1","2018-01-26 19:31:59","169973"
"AS1QMPXIT1EGX","cs_wg_v10_real1","3C6FJU71TQUKAGHESP8A0B8OAUMYU4","61","0","MACHINE","10","5","0","1214","machine","10","2018-01-26 19:32:05","169974"
"AK1GE19RT3PK6","cs_wg_v10_real1","3KIBXJ1WD5VUD680SOVASX1OUTPOKM","45","0","LADDER","9","5","0","763","Ladder","9","2018-01-26 19:32:05","169975"
"A2GV9WSNSPX53","cs_wg_v10_real1","3F6HPJW4JD171ZDCU4GG9VSGGV2W2K","22","0","DOORWAY","9","5","0","11163","doorway","9","2018-01-26 19:32:10","169976"
"AK1GE19RT3PK6","cs_wg_v10_real1","3KIBXJ1WD5VUD680SOVASX1OUTPOKM","46","0","STOMACH","0","5","0","858","Stomach","0","2018-01-26 19:32:14","169977"
"AS1QMPXIT1EGX","cs_wg_v10_real1","3C6FJU71TQUKAGHESP8A0B8OAUMYU4","62","0","LADDER","1","5","1","959","ladder","1","2018-01-26 19:32:14","169978"
"AK1GE19RT3PK6","cs_wg_v10_real1","3KIBXJ1WD5VUD680SOVASX1OUTPOKM","47","0","LADDER","9","5","0","638","Ladder","9","2018-01-26 19:32:22","169979"
"AS1QMPXIT1EGX","cs_wg_v10_real1","3C6FJU71TQUKAGHESP8A0B8OAUMYU4","63","0","KEYBOARD","9","5","0","930","keyboard","9","2018-01-26 19:32:25","169980"
"A3LVDUYETYTVO0","cs_wg_v10_real1","37UEWGM5HT9V4IEUC66WHDAUWA9R1V","10","0","FOOTBALL","10","5","0","3955","Football","10","2018-01-26 19:32:26","169981"
"AK1GE19RT3PK6","cs_wg_v10_real1","3KIBXJ1WD5VUD680SOVASX1OUTPOKM","48","0","MACHINE","9","5","0","771","Machine","9","2018-01-26 19:32:31","169982"
"AS1QMPXIT1EGX","cs_wg_v10_real1","3C6FJU71TQUKAGHESP8A0B8OAUMYU4","64","0","FOOTBALL","9","5","0","1193","football","9","2018-01-26 19:32:35","169983"
"A2GV9WSNSPX53","cs_wg_v10_real1","3F6HPJW4JD171ZDCU4GG9VSGGV2W2K","23","0","BOOKSHELF","10","5","0","14760","bookshelf","10","2018-01-26 19:32:38","169984"
"AK1GE19RT3PK6","cs_wg_v10_real1","3KIBXJ1WD5VUD680SOVASX1OUTPOKM","49","0","UMBRELLA","1","5","0","779","Umbrella","1","2018-01-26 19:32:41","169985"
"AS1QMPXIT1EGX","cs_wg_v10_real1","3C6FJU71TQUKAGHESP8A0B8OAUMYU4","65","0","MACHINE","10","5","0","839","machine","9","2018-01-26 19:32:43","169986"
"A2GV9WSNSPX53","cs_wg_v10_real1","3F6HPJW4JD171ZDCU4GG9VSGGV2W2K","24","0","TRAFFIC","1","5","1","2751","traffic","1","2018-01-26 19:32:48","169987"
"A3LVDUYETYTVO0","cs_wg_v10_real1","37UEWGM5HT9V4IEUC66WHDAUWA9R1V","11","0","BASKET","0","5","0","4456","Basket","0","2018-01-26 19:32:48","169988"
"AK1GE19RT3PK6","cs_wg_v10_real1","3KIBXJ1WD5VUD680SOVASX1OUTPOKM","50","0","TRAFFIC","0","5","0","731","Traffic","0","2018-01-26 19:32:50","169989"
"AS1QMPXIT1EGX","cs_wg_v10_real1","3C6FJU71TQUKAGHESP8A0B8OAUMYU4","66","0","HELICOPTER","10","5","0","953","helicopter","10","2018-01-26 19:32:52","169990"
"A2GV9WSNSPX53","cs_wg_v10_real1","3F6HPJW4JD171ZDCU4GG9VSGGV2W2K","25","0","FOOTBALL","9","5","0","970","football","9","2018-01-26 19:32:58","169991"
"AK1GE19RT3PK6","cs_wg_v10_real1","3KIBXJ1WD5VUD680SOVASX1OUTPOKM","51","0","BASKET","9","5","0","706","Basket","9","2018-01-26 19:33:00","169992"
"AS1QMPXIT1EGX","cs_wg_v10_real1","3C6FJU71TQUKAGHESP8A0B8OAUMYU4","67","0","BASKET","0","5","1","951","basket","0","2018-01-26 19:33:00","169993"
"A2GV9WSNSPX53","cs_wg_v10_real1","3F6HPJW4JD171ZDCU4GG9VSGGV2W2K","26","0","KEYBOARD","10","5","0","983","keyboard","10","2018-01-26 19:33:07","169994"
"AS1QMPXIT1EGX","cs_wg_v10_real1","3C6FJU71TQUKAGHESP8A0B8OAUMYU4","68","0","WEDDING","9","5","0","733","wedding","9","2018-01-26 19:33:08","169995"
"AK1GE19RT3PK6","cs_wg_v10_real1","3KIBXJ1WD5VUD680SOVASX1OUTPOKM","52","0","STRUCTURE","0","5","0","1153","Structure","0","2018-01-26 19:33:09","169996"
"A3LVDUYETYTVO0","cs_wg_v10_real1","37UEWGM5HT9V4IEUC66WHDAUWA9R1V","12","0","STRUCTURE","1","5","1","6972","Structure","1","2018-01-26 19:33:15","169997"
"A2GV9WSNSPX53","cs_wg_v10_real1","3F6HPJW4JD171ZDCU4GG9VSGGV2W2K","27","0","FOOTBALL","9","5","0","823","football","9","2018-01-26 19:33:16","169998"
"AS1QMPXIT1EGX","cs_wg_v10_real1","3C6FJU71TQUKAGHESP8A0B8OAUMYU4","69","0","STRUCTURE","0","5","1","790","structure","0","2018-01-26 19:33:17","169999"
"AK1GE19RT3PK6","cs_wg_v10_real1","3KIBXJ1WD5VUD680SOVASX1OUTPOKM","53","0","WEDDING","1","5","1","1463","Wedding","1","2018-01-26 19:33:18","170000"
"A2GV9WSNSPX53","cs_wg_v10_real1","3F6HPJW4JD171ZDCU4GG9VSGGV2W2K","28","0","BOOKSHELF","10","5","0","951","bookshelf","10","2018-01-26 19:33:25","170001"
"AK1GE19RT3PK6","cs_wg_v10_real1","3KIBXJ1WD5VUD680SOVASX1OUTPOKM","54","0","BASKET","9","5","0","834","Basket","9","2018-01-26 19:33:27","170002"
"AS1QMPXIT1EGX","cs_wg_v10_real1","3C6FJU71TQUKAGHESP8A0B8OAUMYU4","70","0","COMMUNITY","1","5","1","1297","community","1","2018-01-26 19:33:29","170003"
"A2GV9WSNSPX53","cs_wg_v10_real1","3F6HPJW4JD171ZDCU4GG9VSGGV2W2K","29","0","COMMUNITY","0","5","1","1266","community","0","2018-01-26 19:33:35","170004"
"AK1GE19RT3PK6","cs_wg_v10_real1","3KIBXJ1WD5VUD680SOVASX1OUTPOKM","55","0","KEYBOARD","10","5","0","711","Keyboard","10","2018-01-26 19:33:37","170005"
"AS1QMPXIT1EGX","cs_wg_v10_real1","3C6FJU71TQUKAGHESP8A0B8OAUMYU4","71","0","KEYBOARD","9","5","0","1127","keyboard","9","2018-01-26 19:33:38","170006"
"A3LVDUYETYTVO0","cs_wg_v10_real1","37UEWGM5HT9V4IEUC66WHDAUWA9R1V","13","0","MACHINE","0","5","0","3740","Machine","0","2018-01-26 19:33:42","170007"
"A2GV9WSNSPX53","cs_wg_v10_real1","3F6HPJW4JD171ZDCU4GG9VSGGV2W2K","30","0","BOOKSHELF","10","5","0","802","bookshelf","10","2018-01-26 19:33:43","170008"
"AK1GE19RT3PK6","cs_wg_v10_real1","3KIBXJ1WD5VUD680SOVASX1OUTPOKM","56","0","FOOTBALL","1","5","0","705","Football","1","2018-01-26 19:33:45","170009"
"AS1QMPXIT1EGX","cs_wg_v10_real1","3C6FJU71TQUKAGHESP8A0B8OAUMYU4","72","0","KEYBOARD","9","5","0","1608","keyboard","9","2018-01-26 19:33:49","170010"
"AK1GE19RT3PK6","cs_wg_v10_real1","3KIBXJ1WD5VUD680SOVASX1OUTPOKM","57","0","DOORWAY","10","5","0","661","Doorway","10","2018-01-26 19:33:54","170011"
"A2GV9WSNSPX53","cs_wg_v10_real1","3F6HPJW4JD171ZDCU4GG9VSGGV2W2K","31","0","MACHINE","9","5","0","3633","machine","9","2018-01-26 19:33:54","170012"
"AS1QMPXIT1EGX","cs_wg_v10_real1","3C6FJU71TQUKAGHESP8A0B8OAUMYU4","73","0","UMBRELLA","10","5","0","3294","umbrella","9","2018-01-26 19:34:00","170013"
"A2GV9WSNSPX53","cs_wg_v10_real1","3F6HPJW4JD171ZDCU4GG9VSGGV2W2K","32","0","BASKET","1","5","0","944","basket","1","2018-01-26 19:34:02","170014"
"AK1GE19RT3PK6","cs_wg_v10_real1","3KIBXJ1WD5VUD680SOVASX1OUTPOKM","58","0","HELICOPTER","0","5","0","747","Helicopter","0","2018-01-26 19:34:05","170015"
"A3LVDUYETYTVO0","cs_wg_v10_real1","37UEWGM5HT9V4IEUC66WHDAUWA9R1V","14","0","TRAFFIC","9","5","0","5385","Traffic","9","2018-01-26 19:34:06","170016"
"AS1QMPXIT1EGX","cs_wg_v10_real1","3C6FJU71TQUKAGHESP8A0B8OAUMYU4","74","0","BOOKSHELF","10","5","0","2686","bookshelf","9","2018-01-26 19:34:11","170017"
"A2GV9WSNSPX53","cs_wg_v10_real1","3F6HPJW4JD171ZDCU4GG9VSGGV2W2K","33","0","STOMACH","1","5","1","1905","stomach","1","2018-01-26 19:34:11","170018"
"AK1GE19RT3PK6","cs_wg_v10_real1","3KIBXJ1WD5VUD680SOVASX1OUTPOKM","59","0","BOOKSHELF","10","5","0","3410","Bookshelf","10","2018-01-26 19:34:18","170019"
"A2GV9WSNSPX53","cs_wg_v10_real1","3F6HPJW4JD171ZDCU4GG9VSGGV2W2K","34","0","STOMACH","1","5","1","1118","stomach","1","2018-01-26 19:34:19","170020"
"AS1QMPXIT1EGX","cs_wg_v10_real1","3C6FJU71TQUKAGHESP8A0B8OAUMYU4","75","0","STRUCTURE","0","5","1","1219","structure","0","2018-01-26 19:34:20","170021"
"AK1GE19RT3PK6","cs_wg_v10_real1","3KIBXJ1WD5VUD680SOVASX1OUTPOKM","60","0","KEYBOARD","10","5","0","646","Keyboard","10","2018-01-26 19:34:27","170022"
"A2GV9WSNSPX53","cs_wg_v10_real1","3F6HPJW4JD171ZDCU4GG9VSGGV2W2K","35","0","FOOTBALL","9","5","0","683","football","9","2018-01-26 19:34:28","170023"
"AS1QMPXIT1EGX","cs_wg_v10_real1","3C6FJU71TQUKAGHESP8A0B8OAUMYU4","76","0","MACHINE","10","5","0","825","umbrella","9","2018-01-26 19:34:30","170024"
"A3LVDUYETYTVO0","cs_wg_v10_real1","37UEWGM5HT9V4IEUC66WHDAUWA9R1V","15","0","COMMUNITY","0","5","1","7330","Community","0","2018-01-26 19:34:35","170025"
"AK1GE19RT3PK6","cs_wg_v10_real1","3KIBXJ1WD5VUD680SOVASX1OUTPOKM","61","0","LADDER","9","5","0","773","Ladder","9","2018-01-26 19:34:36","170026"
"A2GV9WSNSPX53","cs_wg_v10_real1","3F6HPJW4JD171ZDCU4GG9VSGGV2W2K","36","0","STRUCTURE","0","5","0","1839","structure","0","2018-01-26 19:34:37","170027"
"AS1QMPXIT1EGX","cs_wg_v10_real1","3C6FJU71TQUKAGHESP8A0B8OAUMYU4","77","0","COMMUNITY","1","5","1","1193","community","1","2018-01-26 19:34:38","170028"
"AK1GE19RT3PK6","cs_wg_v10_real1","3KIBXJ1WD5VUD680SOVASX1OUTPOKM","62","0","BASKET","9","5","0","794","Basket","9","2018-01-26 19:34:44","170029"
"AEWGY34WUIA32","cs_wg_v10_real1","3IO1LGZLK9YKTZ0VJ3CDLS66ET268X","72","0","WEDDING","9","5","0","189004","wedding","9","2018-01-26 19:34:46","170030"
"AS1QMPXIT1EGX","cs_wg_v10_real1","3C6FJU71TQUKAGHESP8A0B8OAUMYU4","78","0","KEYBOARD","9","5","0","897","keyboard","9","2018-01-26 19:34:48","170031"
"A2GV9WSNSPX53","cs_wg_v10_real1","3F6HPJW4JD171ZDCU4GG9VSGGV2W2K","37","0","DOORWAY","9","5","0","3302","doorway","9","2018-01-26 19:34:48","170032"
"AEWGY34WUIA32","cs_wg_v10_real1","3IO1LGZLK9YKTZ0VJ3CDLS66ET268X","73","0","STOMACH","1","5","1","1699","stomach","1","2018-01-26 19:34:55","170033"
"AS1QMPXIT1EGX","cs_wg_v10_real1","3C6FJU71TQUKAGHESP8A0B8OAUMYU4","79","0","MACHINE","10","5","0","849","machine","10","2018-01-26 19:34:56","170034"
"A2GV9WSNSPX53","cs_wg_v10_real1","3F6HPJW4JD171ZDCU4GG9VSGGV2W2K","38","0","MACHINE","9","5","0","1623","machine","9","2018-01-26 19:34:58","170035"
"A3LVDUYETYTVO0","cs_wg_v10_real1","37UEWGM5HT9V4IEUC66WHDAUWA9R1V","16","0","UMBRELLA","0","5","1","6643","Umbrella","0","2018-01-26 19:34:59","170036"
"AEWGY34WUIA32","cs_wg_v10_real1","3IO1LGZLK9YKTZ0VJ3CDLS66ET268X","74","0","TRAFFIC","10","5","0","1330","traffic","10","2018-01-26 19:35:04","170037"
"AK1GE19RT3PK6","cs_wg_v10_real1","3KIBXJ1WD5VUD680SOVASX1OUTPOKM","63","0","BOOKSHELF","10","5","0","11163","Bookshelf","10","2018-01-26 19:35:05","170038"
"AS1QMPXIT1EGX","cs_wg_v10_real1","3C6FJU71TQUKAGHESP8A0B8OAUMYU4","80","0","HELICOPTER","10","5","0","896","helicopter","10","2018-01-26 19:35:06","170039"
"A2GV9WSNSPX53","cs_wg_v10_real1","3F6HPJW4JD171ZDCU4GG9VSGGV2W2K","39","0","BASKET","1","5","1","1649","basket","1","2018-01-26 19:35:07","170040"
"AEWGY34WUIA32","cs_wg_v10_real1","3IO1LGZLK9YKTZ0VJ3CDLS66ET268X","75","0","TRAFFIC","10","5","0","841","traffic","10","2018-01-26 19:35:12","170041"
"AK1GE19RT3PK6","cs_wg_v10_real1","3KIBXJ1WD5VUD680SOVASX1OUTPOKM","64","0","KEYBOARD","10","5","0","542","Keyboard","10","2018-01-26 19:35:14","170042"
"AS1QMPXIT1EGX","cs_wg_v10_real1","3C6FJU71TQUKAGHESP8A0B8OAUMYU4","81","0","BOOKSHELF","10","5","0","793","bookshelf","9","2018-01-26 19:35:15","170043"
"A2GV9WSNSPX53","cs_wg_v10_real1","3F6HPJW4JD171ZDCU4GG9VSGGV2W2K","40","0","TRAFFIC","1","5","1","2606","traffic","1","2018-01-26 19:35:18","170044"
"AS1QMPXIT1EGX","cs_wg_v10_real1","3C6FJU71TQUKAGHESP8A0B8OAUMYU4","82","0","STOMACH","0","5","1","874","stomach","0","2018-01-26 19:35:23","170045"
"AK1GE19RT3PK6","cs_wg_v10_real1","3KIBXJ1WD5VUD680SOVASX1OUTPOKM","65","0","BOOKSHELF","10","5","0","751","Bookshelf","10","2018-01-26 19:35:23","170046"
"A3LVDUYETYTVO0","cs_wg_v10_real1","37UEWGM5HT9V4IEUC66WHDAUWA9R1V","17","0","BOOKSHELF","10","5","0","5483","Bookshelf","10","2018-01-26 19:35:25","170047"
"AEWGY34WUIA32","cs_wg_v10_real1","3IO1LGZLK9YKTZ0VJ3CDLS66ET268X","76","0","KEYBOARD","9","5","0","3633","keyboard","9","2018-01-26 19:35:26","170048"
"AS1QMPXIT1EGX","cs_wg_v10_real1","3C6FJU71TQUKAGHESP8A0B8OAUMYU4","83","0","LADDER","1","5","1","1068","ladder","1","2018-01-26 19:35:31","170049"
"AK1GE19RT3PK6","cs_wg_v10_real1","3KIBXJ1WD5VUD680SOVASX1OUTPOKM","66","0","UMBRELLA","1","5","1","1353","Umbrella","1","2018-01-26 19:35:33","170050"
"AEWGY34WUIA32","cs_wg_v10_real1","3IO1LGZLK9YKTZ0VJ3CDLS66ET268X","77","0","DOORWAY","0","5","0","2385","doorway","0","2018-01-26 19:35:35","170051"
"A2GV9WSNSPX53","cs_wg_v10_real1","3F6HPJW4JD171ZDCU4GG9VSGGV2W2K","41","0","KEYBOARD","10","5","0","1102","keyboard","10","2018-01-26 19:35:38","170052"
"AS1QMPXIT1EGX","cs_wg_v10_real1","3C6FJU71TQUKAGHESP8A0B8OAUMYU4","84","0","UMBRELLA","10","5","0","784","umbrella","10","2018-01-26 19:35:39","170053"
"AK1GE19RT3PK6","cs_wg_v10_real1","3KIBXJ1WD5VUD680SOVASX1OUTPOKM","67","0","HELICOPTER","0","5","1","1382","Helicopter","0","2018-01-26 19:35:42","170054"
"A2GV9WSNSPX53","cs_wg_v10_real1","3F6HPJW4JD171ZDCU4GG9VSGGV2W2K","42","0","WEDDING","0","5","1","1696","wedding","0","2018-01-26 19:35:46","170055"
"AS1QMPXIT1EGX","cs_wg_v10_real1","3C6FJU71TQUKAGHESP8A0B8OAUMYU4","85","0","STRUCTURE","0","5","1","1057","structure","0","2018-01-26 19:35:47","170056"
"A3LVDUYETYTVO0","cs_wg_v10_real1","37UEWGM5HT9V4IEUC66WHDAUWA9R1V","18","0","WEDDING","9","5","0","6398","Wedding","9","2018-01-26 19:35:49","170057"
"AK1GE19RT3PK6","cs_wg_v10_real1","3KIBXJ1WD5VUD680SOVASX1OUTPOKM","68","0","COMMUNITY","10","5","0","707","Community","10","2018-01-26 19:35:51","170058"
"A2GV9WSNSPX53","cs_wg_v10_real1","3F6HPJW4JD171ZDCU4GG9VSGGV2W2K","43","0","STOMACH","1","5","1","1542","stomach","1","2018-01-26 19:35:55","170059"
"AS1QMPXIT1EGX","cs_wg_v10_real1","3C6FJU71TQUKAGHESP8A0B8OAUMYU4","86","0","BOOKSHELF","10","5","0","1285","bookshelf","9","2018-01-26 19:35:56","170060"
"AK1GE19RT3PK6","cs_wg_v10_real1","3KIBXJ1WD5VUD680SOVASX1OUTPOKM","69","0","STOMACH","0","5","1","1337","Stomach","0","2018-01-26 19:36:00","170061"
"A2GV9WSNSPX53","cs_wg_v10_real1","3F6HPJW4JD171ZDCU4GG9VSGGV2W2K","44","0","WEDDING","0","5","1","1440","wedding","0","2018-01-26 19:36:03","170062"
"AS1QMPXIT1EGX","cs_wg_v10_real1","3C6FJU71TQUKAGHESP8A0B8OAUMYU4","87","0","LADDER","1","5","1","803","ladder","1","2018-01-26 19:36:04","170063"
"AK1GE19RT3PK6","cs_wg_v10_real1","3KIBXJ1WD5VUD680SOVASX1OUTPOKM","70","0","TRAFFIC","0","5","0","2778","Traffic","0","2018-01-26 19:36:11","170064"
"A2GV9WSNSPX53","cs_wg_v10_real1","3F6HPJW4JD171ZDCU4GG9VSGGV2W2K","45","0","HELICOPTER","0","5","0","1487","helicopter","0","2018-01-26 19:36:13","170065"
"AS1QMPXIT1EGX","cs_wg_v10_real1","3C6FJU71TQUKAGHESP8A0B8OAUMYU4","88","0","COMMUNITY","1","5","1","2191","community","1","2018-01-26 19:36:14","170066"
"A3LVDUYETYTVO0","cs_wg_v10_real1","37UEWGM5HT9V4IEUC66WHDAUWA9R1V","19","0","FOOTBALL","10","5","1","7159","Football","10","2018-01-26 19:36:16","170067"
"AK1GE19RT3PK6","cs_wg_v10_real1","3KIBXJ1WD5VUD680SOVASX1OUTPOKM","71","0","WEDDING","1","5","1","1437","Wedding ","1","2018-01-26 19:36:22","170068"
"AS1QMPXIT1EGX","cs_wg_v10_real1","3C6FJU71TQUKAGHESP8A0B8OAUMYU4","89","0","WEDDING","9","5","0","981","wedding","10","2018-01-26 19:36:22","170069"
"A2GV9WSNSPX53","cs_wg_v10_real1","3F6HPJW4JD171ZDCU4GG9VSGGV2W2K","46","0","MACHINE","9","5","0","992","machine","9","2018-01-26 19:36:24","170070"
"AK1GE19RT3PK6","cs_wg_v10_real1","3KIBXJ1WD5VUD680SOVASX1OUTPOKM","72","0","BASKET","9","5","0","696","Basket","9","2018-01-26 19:36:30","170071"
"AS1QMPXIT1EGX","cs_wg_v10_real1","3C6FJU71TQUKAGHESP8A0B8OAUMYU4","90","0","UMBRELLA","10","5","0","741","umbrella","10","2018-01-26 19:36:33","170072"
"A2GV9WSNSPX53","cs_wg_v10_real1","3F6HPJW4JD171ZDCU4GG9VSGGV2W2K","47","0","BASKET","1","5","1","1590","basket","1","2018-01-26 19:36:33","170073"
"A3LVDUYETYTVO0","cs_wg_v10_real1","37UEWGM5HT9V4IEUC66WHDAUWA9R1V","20","0","BASKET","0","5","0","7511","Basket","0","2018-01-26 19:36:38","170074"
"AK1GE19RT3PK6","cs_wg_v10_real1","3KIBXJ1WD5VUD680SOVASX1OUTPOKM","73","0","TRAFFIC","0","5","0","670","Traffic","0","2018-01-26 19:36:38","170075"
"AS1QMPXIT1EGX","cs_wg_v10_real1","3C6FJU71TQUKAGHESP8A0B8OAUMYU4","91","0","DOORWAY","0","5","1","974","doorway","0","2018-01-26 19:36:41","170076"
"A2GV9WSNSPX53","cs_wg_v10_real1","3F6HPJW4JD171ZDCU4GG9VSGGV2W2K","48","0","DOORWAY","9","5","0","914","doorway","9","2018-01-26 19:36:41","170077"
"AS1QMPXIT1EGX","cs_wg_v10_real1","3C6FJU71TQUKAGHESP8A0B8OAUMYU4","92","0","KEYBOARD","9","5","0","1061","keyboard","9","2018-01-26 19:36:50","170078"
"A2GV9WSNSPX53","cs_wg_v10_real1","3F6HPJW4JD171ZDCU4GG9VSGGV2W2K","49","0","HELICOPTER","0","5","1","1384","helicopter","0","2018-01-26 19:36:51","170079"
"AS1QMPXIT1EGX","cs_wg_v10_real1","3C6FJU71TQUKAGHESP8A0B8OAUMYU4","93","0","LADDER","1","5","1","811","ladder","0","2018-01-26 19:36:57","170080"
"A3LVDUYETYTVO0","cs_wg_v10_real1","37UEWGM5HT9V4IEUC66WHDAUWA9R1V","21","0","UMBRELLA","0","5","1","4647","Umbrella","0","2018-01-26 19:36:59","170081"
"A2GV9WSNSPX53","cs_wg_v10_real1","3F6HPJW4JD171ZDCU4GG9VSGGV2W2K","50","0","HELICOPTER","0","5","1","1264","helicopter","0","2018-01-26 19:37:01","170082"
"AS1QMPXIT1EGX","cs_wg_v10_real1","3C6FJU71TQUKAGHESP8A0B8OAUMYU4","94","0","STOMACH","0","5","1","887","stomach","0","2018-01-26 19:37:04","170083"
"A2GV9WSNSPX53","cs_wg_v10_real1","3F6HPJW4JD171ZDCU4GG9VSGGV2W2K","51","0","KEYBOARD","10","5","0","1574","keyboard","10","2018-01-26 19:37:10","170084"
"AS1QMPXIT1EGX","cs_wg_v10_real1","3C6FJU71TQUKAGHESP8A0B8OAUMYU4","95","0","BOOKSHELF","10","5","0","720","bookshelf","10","2018-01-26 19:37:14","170085"
"A2GV9WSNSPX53","cs_wg_v10_real1","3F6HPJW4JD171ZDCU4GG9VSGGV2W2K","52","0","TRAFFIC","1","5","0","1803","traffic","1","2018-01-26 19:37:18","170086"
"AS1QMPXIT1EGX","cs_wg_v10_real1","3C6FJU71TQUKAGHESP8A0B8OAUMYU4","96","0","COMMUNITY","1","5","1","944","community","1","2018-01-26 19:37:24","170087"
"A2GV9WSNSPX53","cs_wg_v10_real1","3F6HPJW4JD171ZDCU4GG9VSGGV2W2K","53","0","HELICOPTER","0","5","1","1315","helicopter","0","2018-01-26 19:37:27","170088"
"A3LVDUYETYTVO0","cs_wg_v10_real1","37UEWGM5HT9V4IEUC66WHDAUWA9R1V","22","0","MACHINE","0","5","1","12481","Machine","0","2018-01-26 19:37:29","170089"
"AK1GE19RT3PK6","cs_wg_v10_real1","3KIBXJ1WD5VUD680SOVASX1OUTPOKM","74","0","TRAFFIC","0","5","1","41064","Traffic","0","2018-01-26 19:37:31","170090"
"AS1QMPXIT1EGX","cs_wg_v10_real1","3C6FJU71TQUKAGHESP8A0B8OAUMYU4","97","0","COMMUNITY","1","5","1","895","community","1","2018-01-26 19:37:32","170091"
"A2GV9WSNSPX53","cs_wg_v10_real1","3F6HPJW4JD171ZDCU4GG9VSGGV2W2K","54","0","STOMACH","1","5","1","1399","stomach","1","2018-01-26 19:37:35","170092"
"AS1QMPXIT1EGX","cs_wg_v10_real1","3C6FJU71TQUKAGHESP8A0B8OAUMYU4","98","0","UMBRELLA","10","5","0","832","umbrella","10","2018-01-26 19:37:40","170093"
"A2GV9WSNSPX53","cs_wg_v10_real1","3F6HPJW4JD171ZDCU4GG9VSGGV2W2K","55","0","UMBRELLA","10","5","0","713","umbrella","10","2018-01-26 19:37:43","170094"
"AK1GE19RT3PK6","cs_wg_v10_real1","3KIBXJ1WD5VUD680SOVASX1OUTPOKM","75","0","STRUCTURE","0","5","1","1313","Structure","0","2018-01-26 19:37:45","170095"
"AS1QMPXIT1EGX","cs_wg_v10_real1","3C6FJU71TQUKAGHESP8A0B8OAUMYU4","99","0","TRAFFIC","1","5","1","899","traffic","1","2018-01-26 19:37:48","170096"
"A2GV9WSNSPX53","cs_wg_v10_real1","3F6HPJW4JD171ZDCU4GG9VSGGV2W2K","56","0","STRUCTURE","0","5","0","1735","structure","0","2018-01-26 19:37:52","170097"
"A3LVDUYETYTVO0","cs_wg_v10_real1","37UEWGM5HT9V4IEUC66WHDAUWA9R1V","23","0","WEDDING","9","5","0","8223","Wedding","9","2018-01-26 19:37:52","170098"
"AK1GE19RT3PK6","cs_wg_v10_real1","3KIBXJ1WD5VUD680SOVASX1OUTPOKM","76","0","FOOTBALL","1","5","1","1566","Football","1","2018-01-26 19:37:54","170099"
"AS1QMPXIT1EGX","cs_wg_v10_real1","3C6FJU71TQUKAGHESP8A0B8OAUMYU4","100","0","LADDER","1","5","1","678","ladder","1
1","2018-01-26 19:37:59","170100"
"A2GV9WSNSPX53","cs_wg_v10_real1","3F6HPJW4JD171ZDCU4GG9VSGGV2W2K","57","0","WEDDING","0","5","1","1240","wedding","0","2018-01-26 19:37:59","170101"
"AK1GE19RT3PK6","cs_wg_v10_real1","3KIBXJ1WD5VUD680SOVASX1OUTPOKM","77","0","HELICOPTER","0","5","1","1187","Helicopter","0","2018-01-26 19:38:04","170102"
"AS1QMPXIT1EGX","cs_wg_v10_real1","3C6FJU71TQUKAGHESP8A0B8OAUMYU4","101","0","BASKET","0","5","1","977","basket","0","2018-01-26 19:38:07","170103"
"A2GV9WSNSPX53","cs_wg_v10_real1","3F6HPJW4JD171ZDCU4GG9VSGGV2W2K","58","0","STRUCTURE","0","5","1","1408","structure","0","2018-01-26 19:38:07","170104"
"A3LVDUYETYTVO0","cs_wg_v10_real1","37UEWGM5HT9V4IEUC66WHDAUWA9R1V","24","0","TRAFFIC","9","5","1","5436","Traffic","9","2018-01-26 19:38:12","170105"
"A2GV9WSNSPX53","cs_wg_v10_real1","3F6HPJW4JD171ZDCU4GG9VSGGV2W2K","59","0","FOOTBALL","9","5","0","759","football","9","2018-01-26 19:38:14","170106"
"AK1GE19RT3PK6","cs_wg_v10_real1","3KIBXJ1WD5VUD680SOVASX1OUTPOKM","78","0","HELICOPTER","0","5","1","1495","Helicopter","0","2018-01-26 19:38:16","170107"
"AS1QMPXIT1EGX","cs_wg_v10_real1","3C6FJU71TQUKAGHESP8A0B8OAUMYU4","102","0","BOOKSHELF","10","5","0","953","bookshelf","10","2018-01-26 19:38:16","170108"
"AEWGY34WUIA32","cs_wg_v10_real1","3IO1LGZLK9YKTZ0VJ3CDLS66ET268X","78","0","STOMACH","1","5","1","1593","stomach","1","2018-01-26 19:38:21","170109"
"A2GV9WSNSPX53","cs_wg_v10_real1","3F6HPJW4JD171ZDCU4GG9VSGGV2W2K","60","0","KEYBOARD","10","5","0","743","keyboard","10","2018-01-26 19:38:22","170110"
"AK1GE19RT3PK6","cs_wg_v10_real1","3KIBXJ1WD5VUD680SOVASX1OUTPOKM","79","0","HELICOPTER","0","5","1","1145","Helicopter","0","2018-01-26 19:38:26","170111"
"AS1QMPXIT1EGX","cs_wg_v10_real1","3C6FJU71TQUKAGHESP8A0B8OAUMYU4","103","0","DOORWAY","0","5","1","1299","doorway","0","2018-01-26 19:38:26","170112"
"A2GV9WSNSPX53","cs_wg_v10_real1","3F6HPJW4JD171ZDCU4GG9VSGGV2W2K","61","0","BASKET","1","5","1","1400","basket","1","2018-01-26 19:38:30","170113"
"AEWGY34WUIA32","cs_wg_v10_real1","3IO1LGZLK9YKTZ0VJ3CDLS66ET268X","79","0","BASKET","10","5","0","1897","basket","10","2018-01-26 19:38:30","170114"
"A3LVDUYETYTVO0","cs_wg_v10_real1","37UEWGM5HT9V4IEUC66WHDAUWA9R1V","25","0","TRAFFIC","9","5","0","5991","Traffic","9","2018-01-26 19:38:32","170115"
"AS1QMPXIT1EGX","cs_wg_v10_real1","3C6FJU71TQUKAGHESP8A0B8OAUMYU4","104","0","UMBRELLA","10","5","0","889","umbrella","10","2018-01-26 19:38:35","170116"
"AK1GE19RT3PK6","cs_wg_v10_real1","3KIBXJ1WD5VUD680SOVASX1OUTPOKM","80","0","KEYBOARD","10","5","0","890","Keyboard","10","2018-01-26 19:38:36","170117"
"A2GV9WSNSPX53","cs_wg_v10_real1","3F6HPJW4JD171ZDCU4GG9VSGGV2W2K","62","0","KEYBOARD","10","5","0","624","keyboard","10","2018-01-26 19:38:38","170118"
"AEWGY34WUIA32","cs_wg_v10_real1","3IO1LGZLK9YKTZ0VJ3CDLS66ET268X","80","0","DOORWAY","0","5","1","1514","doorway","0","2018-01-26 19:38:39","170119"
"AK1GE19RT3PK6","cs_wg_v10_real1","3KIBXJ1WD5VUD680SOVASX1OUTPOKM","81","0","STOMACH","0","5","1","1242","Stomach","0","2018-01-26 19:38:44","170120"
"AS1QMPXIT1EGX","cs_wg_v10_real1","3C6FJU71TQUKAGHESP8A0B8OAUMYU4","105","0","TRAFFIC","1","5","1","899","traffic","0","2018-01-26 19:38:44","170121"
"A2GV9WSNSPX53","cs_wg_v10_real1","3F6HPJW4JD171ZDCU4GG9VSGGV2W2K","63","0","COMMUNITY","0","5","1","1240","community","0","2018-01-26 19:38:50","170122"
"A3LVDUYETYTVO0","cs_wg_v10_real1","37UEWGM5HT9V4IEUC66WHDAUWA9R1V","26","0","STOMACH","1","5","1","5045","Stomach","1","2018-01-26 19:38:52","170123"
"AS1QMPXIT1EGX","cs_wg_v10_real1","3C6FJU71TQUKAGHESP8A0B8OAUMYU4","106","0","LADDER","1","5","1","1017","ladder","1","2018-01-26 19:38:52","170124"
"AK1GE19RT3PK6","cs_wg_v10_real1","3KIBXJ1WD5VUD680SOVASX1OUTPOKM","82","0","BOOKSHELF","10","5","0","734","Bookshelf","10","2018-01-26 19:38:54","170125"
"AS1QMPXIT1EGX","cs_wg_v10_real1","3C6FJU71TQUKAGHESP8A0B8OAUMYU4","107","0","LADDER","1","5","1","765","ladder","1","2018-01-26 19:39:00","170126"
"A2GV9WSNSPX53","cs_wg_v10_real1","3F6HPJW4JD171ZDCU4GG9VSGGV2W2K","64","0","LADDER","10","5","0","2959","ladder","10","2018-01-26 19:39:01","170127"
"AK1GE19RT3PK6","cs_wg_v10_real1","3KIBXJ1WD5VUD680SOVASX1OUTPOKM","83","0","FOOTBALL","1","5","1","1227","Football","1","2018-01-26 19:39:03","170128"
"A2GV9WSNSPX53","cs_wg_v10_real1","3F6HPJW4JD171ZDCU4GG9VSGGV2W2K","65","0","WEDDING","0","5","1","1273","wedding","0","2018-01-26 19:39:09","170129"
"AS1QMPXIT1EGX","cs_wg_v10_real1","3C6FJU71TQUKAGHESP8A0B8OAUMYU4","108","0","TRAFFIC","1","5","1","1054","traffic","1","2018-01-26 19:39:09","170130"
"AK1GE19RT3PK6","cs_wg_v10_real1","3KIBXJ1WD5VUD680SOVASX1OUTPOKM","84","0","MACHINE","9","5","0","707","Machine","9","2018-01-26 19:39:12","170131"
"AEWGY34WUIA32","cs_wg_v10_real1","3IO1LGZLK9YKTZ0VJ3CDLS66ET268X","81","0","WEDDING","9","5","0","11058","wedding","9","2018-01-26 19:39:16","170132"
"A2GV9WSNSPX53","cs_wg_v10_real1","3F6HPJW4JD171ZDCU4GG9VSGGV2W2K","66","0","LADDER","10","5","0","664","ladder","10","2018-01-26 19:39:16","170133"
"AS1QMPXIT1EGX","cs_wg_v10_real1","3C6FJU71TQUKAGHESP8A0B8OAUMYU4","109","0","STRUCTURE","0","5","1","735","structure","0","2018-01-26 19:39:16","170134"
"A3LVDUYETYTVO0","cs_wg_v10_real1","37UEWGM5HT9V4IEUC66WHDAUWA9R1V","27","0","LADDER","9","5","0","9502","Ladder","9","2018-01-26 19:39:17","170135"
"AK1GE19RT3PK6","cs_wg_v10_real1","3KIBXJ1WD5VUD680SOVASX1OUTPOKM","85","0","DOORWAY","10","5","0","655","Doorway","10","2018-01-26 19:39:20","170136"
"A2GV9WSNSPX53","cs_wg_v10_real1","3F6HPJW4JD171ZDCU4GG9VSGGV2W2K","67","0","KEYBOARD","10","5","0","587","keyboard","10","2018-01-26 19:39:23","170137"
"AS1QMPXIT1EGX","cs_wg_v10_real1","3C6FJU71TQUKAGHESP8A0B8OAUMYU4","110","0","WEDDING","9","5","0","870","wedding","10","2018-01-26 19:39:26","170138"
"AK1GE19RT3PK6","cs_wg_v10_real1","3KIBXJ1WD5VUD680SOVASX1OUTPOKM","86","0","MACHINE","9","5","0","555","Machine","9","2018-01-26 19:39:28","170139"
"A2GV9WSNSPX53","cs_wg_v10_real1","3F6HPJW4JD171ZDCU4GG9VSGGV2W2K","68","0","LADDER","10","5","0","599","ladder","10","2018-01-26 19:39:30","170140"
"A3LVDUYETYTVO0","cs_wg_v10_real1","37UEWGM5HT9V4IEUC66WHDAUWA9R1V","28","0","LADDER","9","5","0","3268","Ladder","9","2018-01-26 19:39:30","170141"
"AEWGY34WUIA32","cs_wg_v10_real1","3IO1LGZLK9YKTZ0VJ3CDLS66ET268X","82","0","BOOKSHELF","9","5","0","4584","bookshelf","9","2018-01-26 19:39:32","170142"
"AS1QMPXIT1EGX","cs_wg_v10_real1","3C6FJU71TQUKAGHESP8A0B8OAUMYU4","111","0","WEDDING","9","5","0","1285","wedding","10","2018-01-26 19:39:35","170143"
"AK1GE19RT3PK6","cs_wg_v10_real1","3KIBXJ1WD5VUD680SOVASX1OUTPOKM","87","0","DOORWAY","10","5","0","575","Doorway","10","2018-01-26 19:39:37","170144"
"A2GV9WSNSPX53","cs_wg_v10_real1","3F6HPJW4JD171ZDCU4GG9VSGGV2W2K","69","0","COMMUNITY","0","5","1","1095","community","0","2018-01-26 19:39:45","170145"
"AK1GE19RT3PK6","cs_wg_v10_real1","3KIBXJ1WD5VUD680SOVASX1OUTPOKM","88","0","LADDER","9","5","0","547","Ladder","9","2018-01-26 19:39:46","170146"
"A3LVDUYETYTVO0","cs_wg_v10_real1","37UEWGM5HT9V4IEUC66WHDAUWA9R1V","29","0","BASKET","0","5","0","7500","Basket","0","2018-01-26 19:39:51","170147"
"A2GV9WSNSPX53","cs_wg_v10_real1","3F6HPJW4JD171ZDCU4GG9VSGGV2W2K","70","0","BASKET","1","5","1","1384","basket","1","2018-01-26 19:39:54","170148"
"AEWGY34WUIA32","cs_wg_v10_real1","3IO1LGZLK9YKTZ0VJ3CDLS66ET268X","83","0","LADDER","10","5","0","11569","ladder","10","2018-01-26 19:39:54","170149"
"AK1GE19RT3PK6","cs_wg_v10_real1","3KIBXJ1WD5VUD680SOVASX1OUTPOKM","89","0","BASKET","9","5","0","601","Basket","9","2018-01-26 19:39:55","170150"
"AEWGY34WUIA32","cs_wg_v10_real1","3IO1LGZLK9YKTZ0VJ3CDLS66ET268X","84","0","STOMACH","1","5","1","1730","stomach","1","2018-01-26 19:40:03","170151"
"A2GV9WSNSPX53","cs_wg_v10_real1","3F6HPJW4JD171ZDCU4GG9VSGGV2W2K","71","0","BOOKSHELF","10","5","0","2510","bookshelf","10","2018-01-26 19:40:04","170152"
"AK1GE19RT3PK6","cs_wg_v10_real1","3KIBXJ1WD5VUD680SOVASX1OUTPOKM","90","0","COMMUNITY","10","5","0","624","Community","10","2018-01-26 19:40:05","170153"
"A3LVDUYETYTVO0","cs_wg_v10_real1","37UEWGM5HT9V4IEUC66WHDAUWA9R1V","30","0","UMBRELLA","0","5","1","4197","Umbrella","0","2018-01-26 19:40:09","170154"
"A2GV9WSNSPX53","cs_wg_v10_real1","3F6HPJW4JD171ZDCU4GG9VSGGV2W2K","72","0","DOORWAY","9","5","0","858","doorway","9","2018-01-26 19:40:12","170155"
"AK1GE19RT3PK6","cs_wg_v10_real1","3KIBXJ1WD5VUD680SOVASX1OUTPOKM","91","0","STOMACH","0","5","1","1240","Stomach","0","2018-01-26 19:40:14","170156"
"AEWGY34WUIA32","cs_wg_v10_real1","3IO1LGZLK9YKTZ0VJ3CDLS66ET268X","85","0","KEYBOARD","9","5","0","3234","keyboard","9","2018-01-26 19:40:14","170157"
"A2GV9WSNSPX53","cs_wg_v10_real1","3F6HPJW4JD171ZDCU4GG9VSGGV2W2K","73","0","HELICOPTER","0","5","1","1518","helicopter","0","2018-01-26 19:40:21","170158"
"AK1GE19RT3PK6","cs_wg_v10_real1","3KIBXJ1WD5VUD680SOVASX1OUTPOKM","92","0","DOORWAY","10","5","0","631","Doorway","10","2018-01-26 19:40:23","170159"
"AEWGY34WUIA32","cs_wg_v10_real1","3IO1LGZLK9YKTZ0VJ3CDLS66ET268X","86","0","UMBRELLA","10","5","0","1234","umbrella","10","2018-01-26 19:40:24","170160"
"AK1GE19RT3PK6","cs_wg_v10_real1","3KIBXJ1WD5VUD680SOVASX1OUTPOKM","93","0","TRAFFIC","0","5","1","1664","Traffic","0","2018-01-26 19:40:32","170161"
"A3LVDUYETYTVO0","cs_wg_v10_real1","37UEWGM5HT9V4IEUC66WHDAUWA9R1V","31","0","COMMUNITY","0","5","1","7435","Community","0","2018-01-26 19:40:32","170162"
"A2GV9WSNSPX53","cs_wg_v10_real1","3F6HPJW4JD171ZDCU4GG9VSGGV2W2K","74","0","WEDDING","0","5","1","1237","wedding","0","2018-01-26 19:40:32","170163"
"AEWGY34WUIA32","cs_wg_v10_real1","3IO1LGZLK9YKTZ0VJ3CDLS66ET268X","87","0","BOOKSHELF","9","5","0","3706","bookshelf","9","2018-01-26 19:40:36","170164"
"A2GV9WSNSPX53","cs_wg_v10_real1","3F6HPJW4JD171ZDCU4GG9VSGGV2W2K","75","0","UMBRELLA","10","5","0","735","umbrella","10","2018-01-26 19:40:39","170165"
"AK1GE19RT3PK6","cs_wg_v10_real1","3KIBXJ1WD5VUD680SOVASX1OUTPOKM","94","0","BASKET","9","5","0","650","Basket","9","2018-01-26 19:40:40","170166"
"A2GV9WSNSPX53","cs_wg_v10_real1","3F6HPJW4JD171ZDCU4GG9VSGGV2W2K","76","0","LADDER","10","5","0","1144","ladder","10","2018-01-26 19:40:46","170167"
"AEWGY34WUIA32","cs_wg_v10_real1","3IO1LGZLK9YKTZ0VJ3CDLS66ET268X","88","0","STRUCTURE","0","5","1","3162","structure","0","2018-01-26 19:40:47","170168"
"AK1GE19RT3PK6","cs_wg_v10_real1","3KIBXJ1WD5VUD680SOVASX1OUTPOKM","95","0","STRUCTURE","0","5","0","536","Structure","0","2018-01-26 19:40:49","170169"
"A3LVDUYETYTVO0","cs_wg_v10_real1","37UEWGM5HT9V4IEUC66WHDAUWA9R1V","32","0","DOORWAY","10","5","1","5195","Doorway","10","2018-01-26 19:40:51","170170"
"A2GV9WSNSPX53","cs_wg_v10_real1","3F6HPJW4JD171ZDCU4GG9VSGGV2W2K","77","0","DOORWAY","9","5","0","942","doorway","9","2018-01-26 19:40:53","170171"
"AEWGY34WUIA32","cs_wg_v10_real1","3IO1LGZLK9YKTZ0VJ3CDLS66ET268X","89","0","WEDDING","9","5","0","721","wedding","9","2018-01-26 19:40:55","170172"
"AK1GE19RT3PK6","cs_wg_v10_real1","3KIBXJ1WD5VUD680SOVASX1OUTPOKM","96","0","TRAFFIC","0","5","0","652","Traffic","0","2018-01-26 19:40:57","170173"
"A2GV9WSNSPX53","cs_wg_v10_real1","3F6HPJW4JD171ZDCU4GG9VSGGV2W2K","78","0","STRUCTURE","0","5","1","1449","structure","0","2018-01-26 19:41:01","170174"
"AK1GE19RT3PK6","cs_wg_v10_real1","3KIBXJ1WD5VUD680SOVASX1OUTPOKM","97","0","STRUCTURE","0","5","1","1269","Structure","0","2018-01-26 19:41:07","170175"
"AEWGY34WUIA32","cs_wg_v10_real1","3IO1LGZLK9YKTZ0VJ3CDLS66ET268X","90","0","COMMUNITY","1","5","1","4697","community","1","2018-01-26 19:41:08","170176"
"A2GV9WSNSPX53","cs_wg_v10_real1","3F6HPJW4JD171ZDCU4GG9VSGGV2W2K","79","0","COMMUNITY","0","5","1","1208","community","0","2018-01-26 19:41:12","170177"
"AK1GE19RT3PK6","cs_wg_v10_real1","3KIBXJ1WD5VUD680SOVASX1OUTPOKM","98","0","UMBRELLA","1","5","0","717","Umbrella","1","2018-01-26 19:41:16","170178"
"A3LVDUYETYTVO0","cs_wg_v10_real1","37UEWGM5HT9V4IEUC66WHDAUWA9R1V","33","0","STOMACH","1","5","1","4691","Stomach","1","2018-01-26 19:41:17","170179"
"AEWGY34WUIA32","cs_wg_v10_real1","3IO1LGZLK9YKTZ0VJ3CDLS66ET268X","91","0","TRAFFIC","10","5","1","2321","traffic","10","2018-01-26 19:41:21","170180"
"AK1GE19RT3PK6","cs_wg_v10_real1","3KIBXJ1WD5VUD680SOVASX1OUTPOKM","99","0","STOMACH","0","5","1","1231","Stomach","0","2018-01-26 19:41:24","170181"
"A2GV9WSNSPX53","cs_wg_v10_real1","3F6HPJW4JD171ZDCU4GG9VSGGV2W2K","80","0","BASKET","1","5","1","1199","basket","1","2018-01-26 19:41:26","170182"
"AK1GE19RT3PK6","cs_wg_v10_real1","3KIBXJ1WD5VUD680SOVASX1OUTPOKM","100","0","WEDDING","1","5","1","1355","Wedding","1","2018-01-26 19:41:32","170183"
"A2GV9WSNSPX53","cs_wg_v10_real1","3F6HPJW4JD171ZDCU4GG9VSGGV2W2K","81","0","DOORWAY","9","5","0","672","doorway","9","2018-01-26 19:41:34","170184"
"A3LVDUYETYTVO0","cs_wg_v10_real1","37UEWGM5HT9V4IEUC66WHDAUWA9R1V","34","0","KEYBOARD","1","5","1","4371","Keyboard","1","2018-01-26 19:41:35","170185"
"AEWGY34WUIA32","cs_wg_v10_real1","3IO1LGZLK9YKTZ0VJ3CDLS66ET268X","92","0","TRAFFIC","10","5","0","671","traffic","10","2018-01-26 19:41:36","170186"
"AK1GE19RT3PK6","cs_wg_v10_real1","3KIBXJ1WD5VUD680SOVASX1OUTPOKM","101","0","KEYBOARD","10","5","0","705","Keyboard","10","2018-01-26 19:41:42","170187"
"A2GV9WSNSPX53","cs_wg_v10_real1","3F6HPJW4JD171ZDCU4GG9VSGGV2W2K","82","0","TRAFFIC","1","5","1","2079","traffic","1","2018-01-26 19:41:43","170188"
"A2GV9WSNSPX53","cs_wg_v10_real1","3F6HPJW4JD171ZDCU4GG9VSGGV2W2K","83","0","KEYBOARD","10","5","0","695","keyboard","10","2018-01-26 19:41:50","170189"
"AK1GE19RT3PK6","cs_wg_v10_real1","3KIBXJ1WD5VUD680SOVASX1OUTPOKM","102","0","WEDDING","1","5","1","1340","Wedding","1","2018-01-26 19:41:50","170190"
"A3LVDUYETYTVO0","cs_wg_v10_real1","37UEWGM5HT9V4IEUC66WHDAUWA9R1V","35","0","WEDDING","9","5","1","4211","Wedding","9","2018-01-26 19:41:52","170191"
"A2GV9WSNSPX53","cs_wg_v10_real1","3F6HPJW4JD171ZDCU4GG9VSGGV2W2K","84","0","TRAFFIC","1","5","1","1093","traffic","1","2018-01-26 19:41:57","170192"
"AK1GE19RT3PK6","cs_wg_v10_real1","3KIBXJ1WD5VUD680SOVASX1OUTPOKM","103","0","DOORWAY","10","5","0","653","Doorway","10","2018-01-26 19:41:59","170193"
"A2GV9WSNSPX53","cs_wg_v10_real1","3F6HPJW4JD171ZDCU4GG9VSGGV2W2K","85","0","LADDER","10","5","0","667","ladder","10","2018-01-26 19:42:05","170194"
"A3LVDUYETYTVO0","cs_wg_v10_real1","37UEWGM5HT9V4IEUC66WHDAUWA9R1V","36","0","KEYBOARD","1","5","1","3551","Keyboard","1","2018-01-26 19:42:07","170195"
"AK1GE19RT3PK6","cs_wg_v10_real1","3KIBXJ1WD5VUD680SOVASX1OUTPOKM","104","0","STRUCTURE","0","5","1","1412","Structure","0","2018-01-26 19:42:08","170196"
"AEWGY34WUIA32","cs_wg_v10_real1","3IO1LGZLK9YKTZ0VJ3CDLS66ET268X","93","0","HELICOPTER","1","5","1","18689","helicopter","1","2018-01-26 19:42:09","170197"
"A2GV9WSNSPX53","cs_wg_v10_real1","3F6HPJW4JD171ZDCU4GG9VSGGV2W2K","86","0","FOOTBALL","9","5","0","832","football","9","2018-01-26 19:42:12","170198"
"AK1GE19RT3PK6","cs_wg_v10_real1","3KIBXJ1WD5VUD680SOVASX1OUTPOKM","105","0","KEYBOARD","10","5","0","634","Keyboard","10","2018-01-26 19:42:16","170199"
"A2GV9WSNSPX53","cs_wg_v10_real1","3F6HPJW4JD171ZDCU4GG9VSGGV2W2K","87","0","STRUCTURE","0","5","1","1205","structure","0","2018-01-26 19:42:20","170200"
"AK1GE19RT3PK6","cs_wg_v10_real1","3KIBXJ1WD5VUD680SOVASX1OUTPOKM","106","0","COMMUNITY","10","5","0","820","Community","10","2018-01-26 19:42:25","170201"
"A3LVDUYETYTVO0","cs_wg_v10_real1","37UEWGM5HT9V4IEUC66WHDAUWA9R1V","37","0","FOOTBALL","10","5","1","4706","Football","10","2018-01-26 19:42:26","170202"
"A2GV9WSNSPX53","cs_wg_v10_real1","3F6HPJW4JD171ZDCU4GG9VSGGV2W2K","88","0","LADDER","10","5","0","625","ladder","10","2018-01-26 19:42:27","170203"
"AK1GE19RT3PK6","cs_wg_v10_real1","3KIBXJ1WD5VUD680SOVASX1OUTPOKM","107","0","MACHINE","9","5","0","596","Machine","9","2018-01-26 19:42:33","170204"
"A2GV9WSNSPX53","cs_wg_v10_real1","3F6HPJW4JD171ZDCU4GG9VSGGV2W2K","89","0","UMBRELLA","10","5","0","572","umbrella","10","2018-01-26 19:42:35","170205"
"AEWGY34WUIA32","cs_wg_v10_real1","3IO1LGZLK9YKTZ0VJ3CDLS66ET268X","94","0","FOOTBALL","0","5","1","2553","football","0","2018-01-26 19:42:40","170206"
"A3LVDUYETYTVO0","cs_wg_v10_real1","37UEWGM5HT9V4IEUC66WHDAUWA9R1V","38","0","BASKET","0","5","1","3929","Basket","0","2018-01-26 19:42:41","170207"
"AK1GE19RT3PK6","cs_wg_v10_real1","3KIBXJ1WD5VUD680SOVASX1OUTPOKM","108","0","STRUCTURE","0","5","1","1207","Structure","0","2018-01-26 19:42:44","170208"
"A2GV9WSNSPX53","cs_wg_v10_real1","3F6HPJW4JD171ZDCU4GG9VSGGV2W2K","90","0","MACHINE","9","5","0","3041","machine","9","2018-01-26 19:42:46","170209"
"AK1GE19RT3PK6","cs_wg_v10_real1","3KIBXJ1WD5VUD680SOVASX1OUTPOKM","109","0","FOOTBALL","1","5","1","1327","Football","1","2018-01-26 19:42:53","170210"
"AEWGY34WUIA32","cs_wg_v10_real1","3IO1LGZLK9YKTZ0VJ3CDLS66ET268X","95","0","UMBRELLA","10","5","0","1722","umbrella","10","2018-01-26 19:42:53","170211"
"A2GV9WSNSPX53","cs_wg_v10_real1","3F6HPJW4JD171ZDCU4GG9VSGGV2W2K","91","0","FOOTBALL","9","5","0","583","football","9","2018-01-26 19:42:53","170212"
"A3LVDUYETYTVO0","cs_wg_v10_real1","37UEWGM5HT9V4IEUC66WHDAUWA9R1V","39","0","HELICOPTER","10","5","0","4901","Helicopter","10","2018-01-26 19:42:58","170213"
"A2GV9WSNSPX53","cs_wg_v10_real1","3F6HPJW4JD171ZDCU4GG9VSGGV2W2K","92","0","DOORWAY","9","5","0","576","doorway","9","2018-01-26 19:43:01","170214"
"AEWGY34WUIA32","cs_wg_v10_real1","3IO1LGZLK9YKTZ0VJ3CDLS66ET268X","96","0","FOOTBALL","0","5","1","1985","football","0","2018-01-26 19:43:02","170215"
"AK1GE19RT3PK6","cs_wg_v10_real1","3KIBXJ1WD5VUD680SOVASX1OUTPOKM","110","0","DOORWAY","10","5","0","818","Doorway","10","2018-01-26 19:43:03","170216"
"A2GV9WSNSPX53","cs_wg_v10_real1","3F6HPJW4JD171ZDCU4GG9VSGGV2W2K","93","0","MACHINE","9","5","0","791","machine","9","2018-01-26 19:43:09","170217"
"AK1GE19RT3PK6","cs_wg_v10_real1","3KIBXJ1WD5VUD680SOVASX1OUTPOKM","111","0","KEYBOARD","10","5","0","750","Keyboard","10","2018-01-26 19:43:13","170218"
"AEWGY34WUIA32","cs_wg_v10_real1","3IO1LGZLK9YKTZ0VJ3CDLS66ET268X","97","0","DOORWAY","0","5","1","4993","doorway","0","2018-01-26 19:43:14","170219"
"A2GV9WSNSPX53","cs_wg_v10_real1","3F6HPJW4JD171ZDCU4GG9VSGGV2W2K","94","0","STOMACH","1","5","1","1405","stomach","1","2018-01-26 19:43:17","170220"
"A3LVDUYETYTVO0","cs_wg_v10_real1","37UEWGM5HT9V4IEUC66WHDAUWA9R1V","40","0","DOORWAY","10","5","0","7823","Doorway","10","2018-01-26 19:43:18","170221"
"AEWGY34WUIA32","cs_wg_v10_real1","3IO1LGZLK9YKTZ0VJ3CDLS66ET268X","98","0","HELICOPTER","1","5","1","1986","helicopter","1","2018-01-26 19:43:24","170222"
"A2GV9WSNSPX53","cs_wg_v10_real1","3F6HPJW4JD171ZDCU4GG9VSGGV2W2K","95","0","UMBRELLA","10","5","0","608","umbrella","10","2018-01-26 19:43:26","170223"
"A3LVDUYETYTVO0","cs_wg_v10_real1","37UEWGM5HT9V4IEUC66WHDAUWA9R1V","41","0","STRUCTURE","1","5","0","4453","Structure","1","2018-01-26 19:43:33","170224"
"AEWGY34WUIA32","cs_wg_v10_real1","3IO1LGZLK9YKTZ0VJ3CDLS66ET268X","99","0","COMMUNITY","1","5","1","2537","community","1","2018-01-26 19:43:34","170225"
"A2GV9WSNSPX53","cs_wg_v10_real1","3F6HPJW4JD171ZDCU4GG9VSGGV2W2K","96","0","STRUCTURE","0","5","1","1385","structure","0","2018-01-26 19:43:35","170226"
"A2GV9WSNSPX53","cs_wg_v10_real1","3F6HPJW4JD171ZDCU4GG9VSGGV2W2K","97","0","WEDDING","0","5","1","1200","wedding","0","2018-01-26 19:43:42","170227"
"AEWGY34WUIA32","cs_wg_v10_real1","3IO1LGZLK9YKTZ0VJ3CDLS66ET268X","100","0","COMMUNITY","1","5","1","1234","community","1","2018-01-26 19:43:44","170228"
"A3LVDUYETYTVO0","cs_wg_v10_real1","37UEWGM5HT9V4IEUC66WHDAUWA9R1V","42","0","TRAFFIC","9","5","0","5410","Traffic","9","2018-01-26 19:43:50","170229"
"A2GV9WSNSPX53","cs_wg_v10_real1","3F6HPJW4JD171ZDCU4GG9VSGGV2W2K","98","0","KEYBOARD","10","5","0","761","keyboard","10","2018-01-26 19:43:50","170230"
"A2GV9WSNSPX53","cs_wg_v10_real1","3F6HPJW4JD171ZDCU4GG9VSGGV2W2K","99","0","STRUCTURE","0","5","1","1276","structure","0","2018-01-26 19:43:58","170231"
"A3LVDUYETYTVO0","cs_wg_v10_real1","37UEWGM5HT9V4IEUC66WHDAUWA9R1V","43","0","STRUCTURE","1","5","1","4304","Structure","1","2018-01-26 19:44:06","170232"
"A2GV9WSNSPX53","cs_wg_v10_real1","3F6HPJW4JD171ZDCU4GG9VSGGV2W2K","100","0","WEDDING","0","5","1","1272","wedding","0","2018-01-26 19:44:06","170233"
"A2GV9WSNSPX53","cs_wg_v10_real1","3F6HPJW4JD171ZDCU4GG9VSGGV2W2K","101","0","DOORWAY","9","5","0","823","doorway","9","2018-01-26 19:44:14","170234"
"A2GV9WSNSPX53","cs_wg_v10_real1","3F6HPJW4JD171ZDCU4GG9VSGGV2W2K","102","0","HELICOPTER","0","5","1","1337","helicopter","0","2018-01-26 19:44:23","170235"
"A3LVDUYETYTVO0","cs_wg_v10_real1","37UEWGM5HT9V4IEUC66WHDAUWA9R1V","44","0","FOOTBALL","10","5","0","4505","Football","10","2018-01-26 19:44:23","170236"
"A2GV9WSNSPX53","cs_wg_v10_real1","3F6HPJW4JD171ZDCU4GG9VSGGV2W2K","103","0","BASKET","1","5","1","1559","basket","1","2018-01-26 19:44:30","170237"
"A2GV9WSNSPX53","cs_wg_v10_real1","3F6HPJW4JD171ZDCU4GG9VSGGV2W2K","104","0","STOMACH","1","5","1","1208","stomach","1","2018-01-26 19:44:38","170238"
"A3LVDUYETYTVO0","cs_wg_v10_real1","37UEWGM5HT9V4IEUC66WHDAUWA9R1V","45","0","COMMUNITY","0","5","0","8357","Community","0","2018-01-26 19:44:43","170239"
"A2GV9WSNSPX53","cs_wg_v10_real1","3F6HPJW4JD171ZDCU4GG9VSGGV2W2K","105","0","UMBRELLA","10","5","0","596","umbrella","10","2018-01-26 19:44:48","170240"
"A2GV9WSNSPX53","cs_wg_v10_real1","3F6HPJW4JD171ZDCU4GG9VSGGV2W2K","106","0","BASKET","1","5","1","1144","basket","1","2018-01-26 19:44:56","170241"
"A3LVDUYETYTVO0","cs_wg_v10_real1","37UEWGM5HT9V4IEUC66WHDAUWA9R1V","46","0","LADDER","9","5","0","6250","Ladder","9","2018-01-26 19:45:01","170242"
"A2GV9WSNSPX53","cs_wg_v10_real1","3F6HPJW4JD171ZDCU4GG9VSGGV2W2K","107","0","TRAFFIC","1","5","1","1232","traffic","1","2018-01-26 19:45:04","170243"
"A2GV9WSNSPX53","cs_wg_v10_real1","3F6HPJW4JD171ZDCU4GG9VSGGV2W2K","108","0","COMMUNITY","0","5","1","1136","community","0","2018-01-26 19:45:13","170244"
"A3LVDUYETYTVO0","cs_wg_v10_real1","37UEWGM5HT9V4IEUC66WHDAUWA9R1V","47","0","WEDDING","9","5","0","3412","Wedding","9","2018-01-26 19:45:15","170245"
"A2GV9WSNSPX53","cs_wg_v10_real1","3F6HPJW4JD171ZDCU4GG9VSGGV2W2K","109","0","BOOKSHELF","10","5","0","721","bookshelf","10","2018-01-26 19:45:20","170246"
"AEWGY34WUIA32","cs_wg_v10_real1","3IO1LGZLK9YKTZ0VJ3CDLS66ET268X","101","0","WEDDING","9","5","0","1163","wedding","9","2018-01-26 19:45:22","170247"
"A2GV9WSNSPX53","cs_wg_v10_real1","3F6HPJW4JD171ZDCU4GG9VSGGV2W2K","110","0","COMMUNITY","0","5","1","1113","community","0","2018-01-26 19:45:29","170248"
"A3LVDUYETYTVO0","cs_wg_v10_real1","37UEWGM5HT9V4IEUC66WHDAUWA9R1V","48","0","STRUCTURE","1","5","0","3841","Structure","1","2018-01-26 19:45:33","170249"
"AEWGY34WUIA32","cs_wg_v10_real1","3IO1LGZLK9YKTZ0VJ3CDLS66ET268X","102","0","COMMUNITY","1","5","1","1658","community","1","2018-01-26 19:45:36","170250"
"A2GV9WSNSPX53","cs_wg_v10_real1","3F6HPJW4JD171ZDCU4GG9VSGGV2W2K","111","0","HELICOPTER","0","5","1","1204","helicopter","0","2018-01-26 19:45:38","170251"
"AEWGY34WUIA32","cs_wg_v10_real1","3IO1LGZLK9YKTZ0VJ3CDLS66ET268X","103","0","MACHINE","0","5","1","2067","machine","0","2018-01-26 19:45:48","170252"
"A3LVDUYETYTVO0","cs_wg_v10_real1","37UEWGM5HT9V4IEUC66WHDAUWA9R1V","49","0","MACHINE","0","5","1","4511","Machine","0","2018-01-26 19:45:51","170253"
"A3LVDUYETYTVO0","cs_wg_v10_real1","37UEWGM5HT9V4IEUC66WHDAUWA9R1V","50","0","TRAFFIC","9","5","0","3650","Traffic","9","2018-01-26 19:46:05","170254"
"A3LVDUYETYTVO0","cs_wg_v10_real1","37UEWGM5HT9V4IEUC66WHDAUWA9R1V","51","0","LADDER","9","5","0","5630","Ladder","9","2018-01-26 19:46:21","170255"
"A3LVDUYETYTVO0","cs_wg_v10_real1","37UEWGM5HT9V4IEUC66WHDAUWA9R1V","52","0","HELICOPTER","10","5","0","2957","Helicopter","10","2018-01-26 19:46:36","170256"
"A3LVDUYETYTVO0","cs_wg_v10_real1","37UEWGM5HT9V4IEUC66WHDAUWA9R1V","53","0","TRAFFIC","9","5","0","3367","Traffic","9","2018-01-26 19:46:51","170257"
"AEWGY34WUIA32","cs_wg_v10_real1","3IO1LGZLK9YKTZ0VJ3CDLS66ET268X","104","0","HELICOPTER","1","5","1","1723","helicopter","1","2018-01-26 19:46:57","170258"
"AEWGY34WUIA32","cs_wg_v10_real1","3IO1LGZLK9YKTZ0VJ3CDLS66ET268X","105","0","LADDER","10","5","0","3402","ladder","10","2018-01-26 19:47:08","170259"
"A3LVDUYETYTVO0","cs_wg_v10_real1","37UEWGM5HT9V4IEUC66WHDAUWA9R1V","54","0","KEYBOARD","1","5","0","6187","Keyboard","1","2018-01-26 19:47:08","170260"
"AEWGY34WUIA32","cs_wg_v10_real1","3IO1LGZLK9YKTZ0VJ3CDLS66ET268X","106","0","KEYBOARD","9","5","0","1322","keyboard","9","2018-01-26 19:47:18","170261"
"A3LVDUYETYTVO0","cs_wg_v10_real1","37UEWGM5HT9V4IEUC66WHDAUWA9R1V","55","0","FOOTBALL","10","5","0","2956","Football","10","2018-01-26 19:47:21","170262"
"AEWGY34WUIA32","cs_wg_v10_real1","3IO1LGZLK9YKTZ0VJ3CDLS66ET268X","107","0","MACHINE","0","5","1","1449","machine","0","2018-01-26 19:47:29","170263"
"A3VU0CPHQRJY6T","cs_wg_v10_real1","3X3OR7WPZZ12CK3267IFABO34OR8L7","0","0","COMMUNITY","10","5","0","7681","community","10","2018-01-26 19:47:34","170264"
"A3LVDUYETYTVO0","cs_wg_v10_real1","37UEWGM5HT9V4IEUC66WHDAUWA9R1V","56","0","MACHINE","0","5","1","5061","Machine","0","2018-01-26 19:47:38","170265"
"AEWGY34WUIA32","cs_wg_v10_real1","3IO1LGZLK9YKTZ0VJ3CDLS66ET268X","108","0","LADDER","10","5","0","1450","ladder","10","2018-01-26 19:47:38","170266"
"A3VU0CPHQRJY6T","cs_wg_v10_real1","3X3OR7WPZZ12CK3267IFABO34OR8L7","1","0","DOORWAY","1","5","0","3868","doorway","1","2018-01-26 19:47:45","170267"
"AEWGY34WUIA32","cs_wg_v10_real1","3IO1LGZLK9YKTZ0VJ3CDLS66ET268X","109","0","BASKET","10","5","0","1305","basket","10","2018-01-26 19:47:46","170268"
"A3LVDUYETYTVO0","cs_wg_v10_real1","37UEWGM5HT9V4IEUC66WHDAUWA9R1V","57","0","DOORWAY","10","5","1","2695","Doorway","10","2018-01-26 19:47:53","170269"
"AEWGY34WUIA32","cs_wg_v10_real1","3IO1LGZLK9YKTZ0VJ3CDLS66ET268X","110","0","KEYBOARD","9","5","0","1290","keyboard","9","2018-01-26 19:47:54","170270"
"A3VU0CPHQRJY6T","cs_wg_v10_real1","3X3OR7WPZZ12CK3267IFABO34OR8L7","2","0","DOORWAY","1","5","1","3490","doorway","1","2018-01-26 19:47:57","170271"
"AEWGY34WUIA32","cs_wg_v10_real1","3IO1LGZLK9YKTZ0VJ3CDLS66ET268X","111","0","HELICOPTER","1","5","1","1784","helicopter","1","2018-01-26 19:48:07","170272"
"A3LVDUYETYTVO0","cs_wg_v10_real1","37UEWGM5HT9V4IEUC66WHDAUWA9R1V","58","0","FOOTBALL","10","5","0","2349","Football","10","2018-01-26 19:48:07","170273"
"A3VU0CPHQRJY6T","cs_wg_v10_real1","3X3OR7WPZZ12CK3267IFABO34OR8L7","3","0","WEDDING","0","5","0","2026","wedding","0","2018-01-26 19:48:08","170274"
"A3VU0CPHQRJY6T","cs_wg_v10_real1","3X3OR7WPZZ12CK3267IFABO34OR8L7","4","0","BASKET","9","5","0","1436","basket","9","2018-01-26 19:48:21","170275"
"A3LVDUYETYTVO0","cs_wg_v10_real1","37UEWGM5HT9V4IEUC66WHDAUWA9R1V","59","0","BASKET","0","5","0","4972","Basket","0","2018-01-26 19:48:23","170276"
"A3VU0CPHQRJY6T","cs_wg_v10_real1","3X3OR7WPZZ12CK3267IFABO34OR8L7","5","0","WEDDING","0","5","1","4373","wedding","0","2018-01-26 19:48:34","170277"
"A3LVDUYETYTVO0","cs_wg_v10_real1","37UEWGM5HT9V4IEUC66WHDAUWA9R1V","60","0","BOOKSHELF","10","5","1","3711","Bookshelf","10","2018-01-26 19:48:40","170278"
"A3VU0CPHQRJY6T","cs_wg_v10_real1","3X3OR7WPZZ12CK3267IFABO34OR8L7","6","0","HELICOPTER","1","5","0","5532","helicopter","0","2018-01-26 19:48:49","170279"
"A3LVDUYETYTVO0","cs_wg_v10_real1","37UEWGM5HT9V4IEUC66WHDAUWA9R1V","61","0","UMBRELLA","0","5","1","5402","Umbrella","0","2018-01-26 19:48:56","170280"
"A3LVDUYETYTVO0","cs_wg_v10_real1","37UEWGM5HT9V4IEUC66WHDAUWA9R1V","62","0","BASKET","0","5","0","2208","Basket","0","2018-01-26 19:49:09","170281"
"A3VU0CPHQRJY6T","cs_wg_v10_real1","3X3OR7WPZZ12CK3267IFABO34OR8L7","7","0","KEYBOARD","10","5","0","2236","keyboard","9","2018-01-26 19:49:15","170282"
"A3LVDUYETYTVO0","cs_wg_v10_real1","37UEWGM5HT9V4IEUC66WHDAUWA9R1V","63","0","STOMACH","1","5","1","2720","Stomach","1","2018-01-26 19:49:22","170283"
"A3VU0CPHQRJY6T","cs_wg_v10_real1","3X3OR7WPZZ12CK3267IFABO34OR8L7","8","0","LADDER","0","5","0","1172","ladder","0
0","2018-01-26 19:49:25","170284"
"A3VU0CPHQRJY6T","cs_wg_v10_real1","3X3OR7WPZZ12CK3267IFABO34OR8L7","9","0","BOOKSHELF","10","5","0","1446","bookshelf","10","2018-01-26 19:49:35","170285"
"A3LVDUYETYTVO0","cs_wg_v10_real1","37UEWGM5HT9V4IEUC66WHDAUWA9R1V","64","0","KEYBOARD","1","5","0","8691","Keyboard","1","2018-01-26 19:49:41","170286"
"A3VU0CPHQRJY6T","cs_wg_v10_real1","3X3OR7WPZZ12CK3267IFABO34OR8L7","10","0","MACHINE","9","5","0","2940","machine","9","2018-01-26 19:49:51","170287"
"A3LVDUYETYTVO0","cs_wg_v10_real1","37UEWGM5HT9V4IEUC66WHDAUWA9R1V","65","0","BOOKSHELF","10","5","1","3137","Bookshelf","10","2018-01-26 19:49:57","170288"
"A3VU0CPHQRJY6T","cs_wg_v10_real1","3X3OR7WPZZ12CK3267IFABO34OR8L7","11","0","UMBRELLA","1","5","0","3511","umbrella","1","2018-01-26 19:50:03","170289"
"A3LVDUYETYTVO0","cs_wg_v10_real1","37UEWGM5HT9V4IEUC66WHDAUWA9R1V","66","0","DOORWAY","10","5","0","4459","Doorway","10","2018-01-26 19:50:12","170290"
"A3VU0CPHQRJY6T","cs_wg_v10_real1","3X3OR7WPZZ12CK3267IFABO34OR8L7","12","0","FOOTBALL","9","5","0","1557","football","9","2018-01-26 19:50:15","170291"
"A3VU0CPHQRJY6T","cs_wg_v10_real1","3X3OR7WPZZ12CK3267IFABO34OR8L7","13","0","TRAFFIC","10","5","0","1238","traffic","10","2018-01-26 19:50:24","170292"
"A3LVDUYETYTVO0","cs_wg_v10_real1","37UEWGM5HT9V4IEUC66WHDAUWA9R1V","67","0","DOORWAY","10","5","0","1948","Doorway","10","2018-01-26 19:50:25","170293"
"A3VU0CPHQRJY6T","cs_wg_v10_real1","3X3OR7WPZZ12CK3267IFABO34OR8L7","14","0","STOMACH","0","5","0","5677","stomach","0","2018-01-26 19:50:35","170294"
"A3LVDUYETYTVO0","cs_wg_v10_real1","37UEWGM5HT9V4IEUC66WHDAUWA9R1V","68","0","COMMUNITY","0","5","1","3468","Community","0","2018-01-26 19:50:41","170295"
"A3VU0CPHQRJY6T","cs_wg_v10_real1","3X3OR7WPZZ12CK3267IFABO34OR8L7","15","0","STRUCTURE","0","5","0","917","structure","0","2018-01-26 19:50:45","170296"
"A3LVDUYETYTVO0","cs_wg_v10_real1","37UEWGM5HT9V4IEUC66WHDAUWA9R1V","69","0","FOOTBALL","10","5","0","2294","Football","10","2018-01-26 19:50:54","170297"
"A3VU0CPHQRJY6T","cs_wg_v10_real1","3X3OR7WPZZ12CK3267IFABO34OR8L7","16","0","FOOTBALL","9","5","0","5630","football","9","2018-01-26 19:50:57","170298"
"A3LVDUYETYTVO0","cs_wg_v10_real1","37UEWGM5HT9V4IEUC66WHDAUWA9R1V","70","0","STRUCTURE","1","5","0","1700","Structure","1","2018-01-26 19:51:07","170299"
"A3VU0CPHQRJY6T","cs_wg_v10_real1","3X3OR7WPZZ12CK3267IFABO34OR8L7","17","0","BOOKSHELF","10","5","0","3311","bookshelf","10","2018-01-26 19:51:11","170300"
"A3LVDUYETYTVO0","cs_wg_v10_real1","37UEWGM5HT9V4IEUC66WHDAUWA9R1V","71","0","STOMACH","1","5","1","2467","Stomach","1","2018-01-26 19:51:20","170301"
"A3VU0CPHQRJY6T","cs_wg_v10_real1","3X3OR7WPZZ12CK3267IFABO34OR8L7","18","0","MACHINE","9","5","1","3638","machine","9","2018-01-26 19:51:21","170302"
"A3VU0CPHQRJY6T","cs_wg_v10_real1","3X3OR7WPZZ12CK3267IFABO34OR8L7","19","0","HELICOPTER","1","5","0","445","helicopter","1
1","2018-01-26 19:51:30","170303"
"A3LVDUYETYTVO0","cs_wg_v10_real1","37UEWGM5HT9V4IEUC66WHDAUWA9R1V","72","0","TRAFFIC","9","5","1","3144","Traffic","9","2018-01-26 19:51:34","170304"
"A3VU0CPHQRJY6T","cs_wg_v10_real1","3X3OR7WPZZ12CK3267IFABO34OR8L7","20","0","BASKET","9","5","0","2335","basket","9","2018-01-26 19:51:39","170305"
"A3VU0CPHQRJY6T","cs_wg_v10_real1","3X3OR7WPZZ12CK3267IFABO34OR8L7","21","0","DOORWAY","1","5","0","293","doorway","1","2018-01-26 19:51:47","170306"
"A3LVDUYETYTVO0","cs_wg_v10_real1","37UEWGM5HT9V4IEUC66WHDAUWA9R1V","73","0","LADDER","9","5","0","5386","Ladder","9","2018-01-26 19:51:50","170307"
"A3VU0CPHQRJY6T","cs_wg_v10_real1","3X3OR7WPZZ12CK3267IFABO34OR8L7","22","0","STRUCTURE","0","5","1","6375","structure","0","2018-01-26 19:52:02","170308"
