"subject","version","assignmentId","trial","trial_type","word","value","alt","value2","choice","rt","resp","resp2","resp3","resp4","used_hint","stamp","id"
"A1PH1I9F2AA3TZ","cs_wg_mon_conf_time_pilot2","3SBEHTYCWN4F1PMEY8JWH8KFA90YIF","0","0","JULY","6","AUGUST","1","0","5071",,,,,"0","2018-10-31 13:22:51","356214"
"A1PH1I9F2AA3TZ","cs_wg_mon_conf_time_pilot2","3SBEHTYCWN4F1PMEY8JWH8KFA90YIF","1","0","DECEMBER","2","JUNE","5","1","1680",,,,,"0","2018-10-31 13:22:56","356215"
"A1PH1I9F2AA3TZ","cs_wg_mon_conf_time_pilot2","3SBEHTYCWN4F1PMEY8JWH8KFA90YIF","2","0","OCTOBER","3","JUNE","5","1","1579",,,,,"0","2018-10-31 13:23:00","356216"
"A1PH1I9F2AA3TZ","cs_wg_mon_conf_time_pilot2","3SBEHTYCWN4F1PMEY8JWH8KFA90YIF","3","0","MARCH","10","APRIL","9","1","3225",,,,,"0","2018-10-31 13:23:06","356217"
"A1PH1I9F2AA3TZ","cs_wg_mon_conf_time_pilot2","3SBEHTYCWN4F1PMEY8JWH8KFA90YIF","4","0","NOVEMBER","8","DECEMBER","2","0","2334",,,,,"0","2018-10-31 13:23:11","356218"
"A1PH1I9F2AA3TZ","cs_wg_mon_conf_time_pilot2","3SBEHTYCWN4F1PMEY8JWH8KFA90YIF","5","0","JULY","6","APRIL","9","1","2322",,,,,"0","2018-10-31 13:23:16","356219"
"A1PH1I9F2AA3TZ","cs_wg_mon_conf_time_pilot2","3SBEHTYCWN4F1PMEY8JWH8KFA90YIF","6","0","JUNE","5","JANUARY","7","0","1167",,,,,"0","2018-10-31 13:23:19","356220"
"A1PH1I9F2AA3TZ","cs_wg_mon_conf_time_pilot2","3SBEHTYCWN4F1PMEY8JWH8KFA90YIF","7","0","SEPTEMBER","12","MARCH","10","0","322",,,,,"0","2018-10-31 13:23:22","356221"
"A1PH1I9F2AA3TZ","cs_wg_mon_conf_time_pilot2","3SBEHTYCWN4F1PMEY8JWH8KFA90YIF","8","0","AUGUST","1","MARCH","10","0","420",,,,,"0","2018-10-31 13:23:25","356222"
"A1PH1I9F2AA3TZ","cs_wg_mon_conf_time_pilot2","3SBEHTYCWN4F1PMEY8JWH8KFA90YIF","9","0","SEPTEMBER","12","DECEMBER","2","1","322",,,,,"0","2018-10-31 13:23:29","356223"
"A1PH1I9F2AA3TZ","cs_wg_mon_conf_time_pilot2","3SBEHTYCWN4F1PMEY8JWH8KFA90YIF","10","0","DECEMBER","2","FEBRUARY","4","0","2056",,,,,"0","2018-10-31 13:23:33","356224"
"A1PH1I9F2AA3TZ","cs_wg_mon_conf_time_pilot2","3SBEHTYCWN4F1PMEY8JWH8KFA90YIF","11","0","JANUARY","7","FEBRUARY","4","0","1739",,,,,"0","2018-10-31 13:23:37","356225"
"A1PH1I9F2AA3TZ","cs_wg_mon_conf_time_pilot2","3SBEHTYCWN4F1PMEY8JWH8KFA90YIF","12","0","MARCH","10","JANUARY","7","0","3260",,,,,"0","2018-10-31 13:23:43","356226"
"A1PH1I9F2AA3TZ","cs_wg_mon_conf_time_pilot2","3SBEHTYCWN4F1PMEY8JWH8KFA90YIF","13","0","FEBRUARY","4","MAY","11","1","433",,,,,"0","2018-10-31 13:23:45","356227"
"A1PH1I9F2AA3TZ","cs_wg_mon_conf_time_pilot2","3SBEHTYCWN4F1PMEY8JWH8KFA90YIF","14","0","JUNE","5","OCTOBER","3","1","356",,,,,"0","2018-10-31 13:23:48","356228"
"A1PH1I9F2AA3TZ","cs_wg_mon_conf_time_pilot2","3SBEHTYCWN4F1PMEY8JWH8KFA90YIF","15","0","APRIL","9","NOVEMBER","8","0","565",,,,,"0","2018-10-31 13:23:51","356229"
"A1PH1I9F2AA3TZ","cs_wg_mon_conf_time_pilot2","3SBEHTYCWN4F1PMEY8JWH8KFA90YIF","16","0","OCTOBER","3","AUGUST","1","0","1618",,,,,"0","2018-10-31 13:23:54","356230"
"A1PH1I9F2AA3TZ","cs_wg_mon_conf_time_pilot2","3SBEHTYCWN4F1PMEY8JWH8KFA90YIF","17","0","MAY","11","JANUARY","7","1","537",,,,,"0","2018-10-31 13:23:57","356231"
"A2B01MEFSL5R97","cs_wg_mon_conf_time_pilot2","30H4UDGLT2J7OUK4S0L5WAYKNDIMPQ","0","0","JUNE","6","JULY","10","1","6021",,,,,"1","2018-10-31 13:23:59","356232"
"A1PH1I9F2AA3TZ","cs_wg_mon_conf_time_pilot2","3SBEHTYCWN4F1PMEY8JWH8KFA90YIF","18","0","AUGUST","1","NOVEMBER","8","0","432",,,,,"0","2018-10-31 13:24:00","356233"
"A1PH1I9F2AA3TZ","cs_wg_mon_conf_time_pilot2","3SBEHTYCWN4F1PMEY8JWH8KFA90YIF","19","0","FEBRUARY","4","JANUARY","7","1","290",,,,,"0","2018-10-31 13:24:03","356234"
"A2B01MEFSL5R97","cs_wg_mon_conf_time_pilot2","30H4UDGLT2J7OUK4S0L5WAYKNDIMPQ","1","0","JULY","10","APRIL","7","0","3445",,,,,"1","2018-10-31 13:24:06","356235"
"A1PH1I9F2AA3TZ","cs_wg_mon_conf_time_pilot2","3SBEHTYCWN4F1PMEY8JWH8KFA90YIF","20","0","OCTOBER","3","FEBRUARY","4","1","330",,,,,"0","2018-10-31 13:24:06","356236"
"A1PH1I9F2AA3TZ","cs_wg_mon_conf_time_pilot2","3SBEHTYCWN4F1PMEY8JWH8KFA90YIF","21","0","JANUARY","7","AUGUST","1","0","478",,,,,"0","2018-10-31 13:24:09","356237"
"A1PH1I9F2AA3TZ","cs_wg_mon_conf_time_pilot2","3SBEHTYCWN4F1PMEY8JWH8KFA90YIF","22","0","MAY","11","AUGUST","1","0","271",,,,,"0","2018-10-31 13:24:12","356238"
"A2B01MEFSL5R97","cs_wg_mon_conf_time_pilot2","30H4UDGLT2J7OUK4S0L5WAYKNDIMPQ","2","0","MAY","12","AUGUST","2","0","4686",,,,,"1","2018-10-31 13:24:14","356239"
"A1PH1I9F2AA3TZ","cs_wg_mon_conf_time_pilot2","3SBEHTYCWN4F1PMEY8JWH8KFA90YIF","23","0","JULY","6","SEPTEMBER","12","1","408",,,,,"0","2018-10-31 13:24:14","356240"
"A1PH1I9F2AA3TZ","cs_wg_mon_conf_time_pilot2","3SBEHTYCWN4F1PMEY8JWH8KFA90YIF","24","0","MAY","11","FEBRUARY","4","0","254",,,,,"0","2018-10-31 13:24:17","356241"
"A1PH1I9F2AA3TZ","cs_wg_mon_conf_time_pilot2","3SBEHTYCWN4F1PMEY8JWH8KFA90YIF","25","0","FEBRUARY","4","NOVEMBER","8","1","35",,,,,"0","2018-10-31 13:24:20","356242"
"A2B01MEFSL5R97","cs_wg_mon_conf_time_pilot2","30H4UDGLT2J7OUK4S0L5WAYKNDIMPQ","3","0","MAY","12","OCTOBER","5","0","2182",,,,,"1","2018-10-31 13:24:22","356243"
"A1PH1I9F2AA3TZ","cs_wg_mon_conf_time_pilot2","3SBEHTYCWN4F1PMEY8JWH8KFA90YIF","26","0","MAY","11","SEPTEMBER","12","1","369",,,,,"0","2018-10-31 13:24:23","356244"
"A1PH1I9F2AA3TZ","cs_wg_mon_conf_time_pilot2","3SBEHTYCWN4F1PMEY8JWH8KFA90YIF","27","0","MAY","11","OCTOBER","3","0","209",,,,,"0","2018-10-31 13:24:25","356245"
"A2B01MEFSL5R97","cs_wg_mon_conf_time_pilot2","30H4UDGLT2J7OUK4S0L5WAYKNDIMPQ","4","0","FEBRUARY","3","DECEMBER","1","0","3318",,,,,"1","2018-10-31 13:24:28","356246"
"A1PH1I9F2AA3TZ","cs_wg_mon_conf_time_pilot2","3SBEHTYCWN4F1PMEY8JWH8KFA90YIF","28","0","JUNE","5","MARCH","10","0","293",,,,,"0","2018-10-31 13:24:29","356247"
"A1PH1I9F2AA3TZ","cs_wg_mon_conf_time_pilot2","3SBEHTYCWN4F1PMEY8JWH8KFA90YIF","29","0","MARCH","10","MAY","11","1","264",,,,,"0","2018-10-31 13:24:31","356248"
"A2B01MEFSL5R97","cs_wg_mon_conf_time_pilot2","30H4UDGLT2J7OUK4S0L5WAYKNDIMPQ","5","0","SEPTEMBER","8","NOVEMBER","4","0","3067",,,,,"1","2018-10-31 13:24:33","356249"
"A1PH1I9F2AA3TZ","cs_wg_mon_conf_time_pilot2","3SBEHTYCWN4F1PMEY8JWH8KFA90YIF","30","0","NOVEMBER","8","JULY","6","1","597",,,,,"0","2018-10-31 13:24:35","356250"
"A2B01MEFSL5R97","cs_wg_mon_conf_time_pilot2","30H4UDGLT2J7OUK4S0L5WAYKNDIMPQ","6","0","JANUARY","9","MAY","12","1","2584",,,,,"1","2018-10-31 13:24:39","356251"
"A1PH1I9F2AA3TZ","cs_wg_mon_conf_time_pilot2","3SBEHTYCWN4F1PMEY8JWH8KFA90YIF","31","0","AUGUST","1","SEPTEMBER","12","0","318",,,,,"0","2018-10-31 13:24:39","356252"
"A1PH1I9F2AA3TZ","cs_wg_mon_conf_time_pilot2","3SBEHTYCWN4F1PMEY8JWH8KFA90YIF","32","0","JANUARY","7","MAY","11","0","287",,,,,"0","2018-10-31 13:24:41","356253"
"A2B01MEFSL5R97","cs_wg_mon_conf_time_pilot2","30H4UDGLT2J7OUK4S0L5WAYKNDIMPQ","7","0","JUNE","6","AUGUST","2","0","2357",,,,,"1","2018-10-31 13:24:43","356254"
"A1PH1I9F2AA3TZ","cs_wg_mon_conf_time_pilot2","3SBEHTYCWN4F1PMEY8JWH8KFA90YIF","33","0","SEPTEMBER","12","JANUARY","7","0","296",,,,,"0","2018-10-31 13:24:44","356255"
"A1PH1I9F2AA3TZ","cs_wg_mon_conf_time_pilot2","3SBEHTYCWN4F1PMEY8JWH8KFA90YIF","34","0","APRIL","9","SEPTEMBER","12","1","252",,,,,"0","2018-10-31 13:24:46","356256"
"A2B01MEFSL5R97","cs_wg_mon_conf_time_pilot2","30H4UDGLT2J7OUK4S0L5WAYKNDIMPQ","8","0","FEBRUARY","3","APRIL","7","1","2579",,,,,"1","2018-10-31 13:24:48","356257"
"A1PH1I9F2AA3TZ","cs_wg_mon_conf_time_pilot2","3SBEHTYCWN4F1PMEY8JWH8KFA90YIF","35","0","JANUARY","7","APRIL","9","1","413",,,,,"0","2018-10-31 13:24:49","356258"
"A1PH1I9F2AA3TZ","cs_wg_mon_conf_time_pilot2","3SBEHTYCWN4F1PMEY8JWH8KFA90YIF","36","0","DECEMBER","2","MARCH","10","0","332",,,,,"0","2018-10-31 13:24:51","356259"
"A2B01MEFSL5R97","cs_wg_mon_conf_time_pilot2","30H4UDGLT2J7OUK4S0L5WAYKNDIMPQ","9","0","OCTOBER","5","SEPTEMBER","8","1","3440",,,,,"1","2018-10-31 13:24:54","356260"
"A1PH1I9F2AA3TZ","cs_wg_mon_conf_time_pilot2","3SBEHTYCWN4F1PMEY8JWH8KFA90YIF","37","0","DECEMBER","2","JULY","6","1","1261",,,,,"0","2018-10-31 13:24:55","356261"
"A1PH1I9F2AA3TZ","cs_wg_mon_conf_time_pilot2","3SBEHTYCWN4F1PMEY8JWH8KFA90YIF","38","0","FEBRUARY","4","OCTOBER","3","1","1711",,,,,"0","2018-10-31 13:24:59","356262"
"A2B01MEFSL5R97","cs_wg_mon_conf_time_pilot2","30H4UDGLT2J7OUK4S0L5WAYKNDIMPQ","10","0","MARCH","11","JUNE","6","0","3894",,,,,"1","2018-10-31 13:25:02","356263"
"A1PH1I9F2AA3TZ","cs_wg_mon_conf_time_pilot2","3SBEHTYCWN4F1PMEY8JWH8KFA90YIF","39","0","OCTOBER","3","JULY","6","0","1438",,,,,"0","2018-10-31 13:25:02","356264"
"A1PH1I9F2AA3TZ","cs_wg_mon_conf_time_pilot2","3SBEHTYCWN4F1PMEY8JWH8KFA90YIF","40","0","MARCH","10","FEBRUARY","4","1","1672",,,,,"0","2018-10-31 13:25:07","356265"
"A2B01MEFSL5R97","cs_wg_mon_conf_time_pilot2","30H4UDGLT2J7OUK4S0L5WAYKNDIMPQ","11","0","AUGUST","2","JANUARY","9","1","3013",,,,,"1","2018-10-31 13:25:07","356266"
"ALG64VSMILMDT","cs_wg_mon_conf_time_pilot2","3VZLGYJEYLBCWALETGLGYPGW4G8ZX7","0","0","JUNE","3","JULY","8","1","8167",,,,,"1","2018-10-31 13:25:08","356267"
"A1PH1I9F2AA3TZ","cs_wg_mon_conf_time_pilot2","3SBEHTYCWN4F1PMEY8JWH8KFA90YIF","41","0","AUGUST","1","FEBRUARY","4","0","270",,,,,"0","2018-10-31 13:25:09","356268"
"A1PH1I9F2AA3TZ","cs_wg_mon_conf_time_pilot2","3SBEHTYCWN4F1PMEY8JWH8KFA90YIF","42","0","NOVEMBER","8","SEPTEMBER","12","0","565",,,,,"0","2018-10-31 13:25:13","356269"
"A1PH1I9F2AA3TZ","cs_wg_mon_conf_time_pilot2","3SBEHTYCWN4F1PMEY8JWH8KFA90YIF","43","0","DECEMBER","2","JANUARY","7","1","1390",,,,,"0","2018-10-31 13:25:16","356270"
"A2B01MEFSL5R97","cs_wg_mon_conf_time_pilot2","30H4UDGLT2J7OUK4S0L5WAYKNDIMPQ","12","0","MAY","12","MARCH","11","0","6293",,,,,"1","2018-10-31 13:25:19","356271"
"ALG64VSMILMDT","cs_wg_mon_conf_time_pilot2","3VZLGYJEYLBCWALETGLGYPGW4G8ZX7","1","0","MARCH","4","FEBRUARY","2","0","6710",,,,,"1","2018-10-31 13:25:20","356272"
"A1PH1I9F2AA3TZ","cs_wg_mon_conf_time_pilot2","3SBEHTYCWN4F1PMEY8JWH8KFA90YIF","44","0","SEPTEMBER","12","FEBRUARY","4","1","1763",,,,,"0","2018-10-31 13:25:20","356273"
"A1PH1I9F2AA3TZ","cs_wg_mon_conf_time_pilot2","3SBEHTYCWN4F1PMEY8JWH8KFA90YIF","45","0","FEBRUARY","4","SEPTEMBER","12","0","1609",,,,,"0","2018-10-31 13:25:25","356274"
"ALG64VSMILMDT","cs_wg_mon_conf_time_pilot2","3VZLGYJEYLBCWALETGLGYPGW4G8ZX7","2","0","APRIL","9","JANUARY","1","0","5052",,,,,"1","2018-10-31 13:25:27","356275"
"A2B01MEFSL5R97","cs_wg_mon_conf_time_pilot2","30H4UDGLT2J7OUK4S0L5WAYKNDIMPQ","13","0","NOVEMBER","4","OCTOBER","5","1","6930",,,,,"1","2018-10-31 13:25:28","356276"
"A1PH1I9F2AA3TZ","cs_wg_mon_conf_time_pilot2","3SBEHTYCWN4F1PMEY8JWH8KFA90YIF","46","0","SEPTEMBER","12","APRIL","9","0","1286",,,,,"0","2018-10-31 13:25:29","356277"
"A1PH1I9F2AA3TZ","cs_wg_mon_conf_time_pilot2","3SBEHTYCWN4F1PMEY8JWH8KFA90YIF","47","0","DECEMBER","2","NOVEMBER","8","1","1925",,,,,"0","2018-10-31 13:25:33","356278"
"A2B01MEFSL5R97","cs_wg_mon_conf_time_pilot2","30H4UDGLT2J7OUK4S0L5WAYKNDIMPQ","14","0","APRIL","7","DECEMBER","1","0","5854",,,,,"1","2018-10-31 13:25:37","356279"
"ALG64VSMILMDT","cs_wg_mon_conf_time_pilot2","3VZLGYJEYLBCWALETGLGYPGW4G8ZX7","3","0","DECEMBER","7","SEPTEMBER","6","0","4255",,,,,"1","2018-10-31 13:25:37","356280"
"A1PH1I9F2AA3TZ","cs_wg_mon_conf_time_pilot2","3SBEHTYCWN4F1PMEY8JWH8KFA90YIF","48","0","JANUARY","7","MARCH","10","0","3417",,,,,"0","2018-10-31 13:25:38","356281"
"A1PH1I9F2AA3TZ","cs_wg_mon_conf_time_pilot2","3SBEHTYCWN4F1PMEY8JWH8KFA90YIF","49","0","OCTOBER","3","SEPTEMBER","12","1","1248",,,,,"0","2018-10-31 13:25:42","356282"
"A2B01MEFSL5R97","cs_wg_mon_conf_time_pilot2","30H4UDGLT2J7OUK4S0L5WAYKNDIMPQ","15","0","JULY","10","JANUARY","9","0","4053",,,,,"1","2018-10-31 13:25:46","356283"
"A1PH1I9F2AA3TZ","cs_wg_mon_conf_time_pilot2","3SBEHTYCWN4F1PMEY8JWH8KFA90YIF","50","0","FEBRUARY","4","JULY","6","1","1590",,,,,"0","2018-10-31 13:25:46","356284"
"ALG64VSMILMDT","cs_wg_mon_conf_time_pilot2","3VZLGYJEYLBCWALETGLGYPGW4G8ZX7","4","0","JANUARY","1","MAY","11","1","9526",,,,,"1","2018-10-31 13:25:49","356285"
"A1PH1I9F2AA3TZ","cs_wg_mon_conf_time_pilot2","3SBEHTYCWN4F1PMEY8JWH8KFA90YIF","51","0","APRIL","9","OCTOBER","3","1","1677",,,,,"0","2018-10-31 13:25:50","356286"
"A7LGXWVP67WG","cs_wg_mon_conf_time_pilot2","3YMTUJH0DSHPCWO53DUTFQIHQPI4TI","0","0","AUGUST","10","MAY","6","0","16790",,,,,"1","2018-10-31 13:25:50","356287"
"A98P6ZBAHA4C5","cs_wg_mon_conf_time_pilot2","3LEP4MGT3G12G6DHW241I061XVBDBE","0","0","JULY","9","DECEMBER","7","0","8850",,,,,"1","2018-10-31 13:25:50","356288"
"A1PH1I9F2AA3TZ","cs_wg_mon_conf_time_pilot2","3SBEHTYCWN4F1PMEY8JWH8KFA90YIF","52","0","APRIL","9","JULY","6","0","1361",,,,,"0","2018-10-31 13:25:53","356289"
"A2B01MEFSL5R97","cs_wg_mon_conf_time_pilot2","30H4UDGLT2J7OUK4S0L5WAYKNDIMPQ","16","0","FEBRUARY","3","MAY","12","1","4613",,,,,"1","2018-10-31 13:25:55","356290"
"A98P6ZBAHA4C5","cs_wg_mon_conf_time_pilot2","3LEP4MGT3G12G6DHW241I061XVBDBE","1","0","NOVEMBER","2","MAY","1","0","4332",,,,,"1","2018-10-31 13:25:57","356291"
"A1PH1I9F2AA3TZ","cs_wg_mon_conf_time_pilot2","3SBEHTYCWN4F1PMEY8JWH8KFA90YIF","53","0","OCTOBER","3","DECEMBER","2","0","1564",,,,,"0","2018-10-31 13:25:57","356292"
"A1PH1I9F2AA3TZ","cs_wg_mon_conf_time_pilot2","3SBEHTYCWN4F1PMEY8JWH8KFA90YIF","54","0","JANUARY","7","OCTOBER","3","0","2399",,,,,"0","2018-10-31 13:26:02","356293"
"A7LGXWVP67WG","cs_wg_mon_conf_time_pilot2","3YMTUJH0DSHPCWO53DUTFQIHQPI4TI","1","0","SEPTEMBER","5","MARCH","12","1","10323",,,,,"1","2018-10-31 13:26:04","356294"
"A1PH1I9F2AA3TZ","cs_wg_mon_conf_time_pilot2","3SBEHTYCWN4F1PMEY8JWH8KFA90YIF","55","0","SEPTEMBER","12","OCTOBER","3","0","896",,,,,"0","2018-10-31 13:26:04","356295"
"ALG64VSMILMDT","cs_wg_mon_conf_time_pilot2","3VZLGYJEYLBCWALETGLGYPGW4G8ZX7","5","0","FEBRUARY","2","JULY","8","1","16878",,,,,"1","2018-10-31 13:26:08","356296"
"A1PH1I9F2AA3TZ","cs_wg_mon_conf_time_pilot2","3SBEHTYCWN4F1PMEY8JWH8KFA90YIF","56","0","FEBRUARY","4","JUNE","5","1","2605",,,,,"0","2018-10-31 13:26:09","356297"
"A7LGXWVP67WG","cs_wg_mon_conf_time_pilot2","3YMTUJH0DSHPCWO53DUTFQIHQPI4TI","2","0","OCTOBER","1","JULY","3","1","5126",,,,,"1","2018-10-31 13:26:12","356298"
"A1PH1I9F2AA3TZ","cs_wg_mon_conf_time_pilot2","3SBEHTYCWN4F1PMEY8JWH8KFA90YIF","57","0","MARCH","10","SEPTEMBER","12","1","1118",,,,,"0","2018-10-31 13:26:13","356299"
"ALG64VSMILMDT","cs_wg_mon_conf_time_pilot2","3VZLGYJEYLBCWALETGLGYPGW4G8ZX7","6","0","JULY","8","AUGUST","5","0","4525",,,,,"1","2018-10-31 13:26:15","356300"
"A1PH1I9F2AA3TZ","cs_wg_mon_conf_time_pilot2","3SBEHTYCWN4F1PMEY8JWH8KFA90YIF","58","0","AUGUST","1","JANUARY","7","0","3212",,,,,"0","2018-10-31 13:26:18","356301"
"ALG64VSMILMDT","cs_wg_mon_conf_time_pilot2","3VZLGYJEYLBCWALETGLGYPGW4G8ZX7","7","0","SEPTEMBER","6","MAY","11","1","2982",,,,,"0","2018-10-31 13:26:20","356302"
"A1PH1I9F2AA3TZ","cs_wg_mon_conf_time_pilot2","3SBEHTYCWN4F1PMEY8JWH8KFA90YIF","59","0","JANUARY","7","JUNE","5","1","1662",,,,,"0","2018-10-31 13:26:22","356303"
"A98P6ZBAHA4C5","cs_wg_mon_conf_time_pilot2","3LEP4MGT3G12G6DHW241I061XVBDBE","2","0","MARCH","5","APRIL","3","0","22655",,,,,"1","2018-10-31 13:26:22","356304"
"A2B01MEFSL5R97","cs_wg_mon_conf_time_pilot2","30H4UDGLT2J7OUK4S0L5WAYKNDIMPQ","17","0","JULY","10","OCTOBER","5","0","18311",,,,,"1","2018-10-31 13:26:24","356305"
"A1PH1I9F2AA3TZ","cs_wg_mon_conf_time_pilot2","3SBEHTYCWN4F1PMEY8JWH8KFA90YIF","60","0","DECEMBER","2","APRIL","9","1","1426",,,,,"0","2018-10-31 13:26:26","356306"
"A7LGXWVP67WG","cs_wg_mon_conf_time_pilot2","3YMTUJH0DSHPCWO53DUTFQIHQPI4TI","3","0","DECEMBER","4","OCTOBER","1","0","10394",,,,,"1","2018-10-31 13:26:26","356307"
"A1PH1I9F2AA3TZ","cs_wg_mon_conf_time_pilot2","3SBEHTYCWN4F1PMEY8JWH8KFA90YIF","61","0","NOVEMBER","8","OCTOBER","3","1","2022",,,,,"0","2018-10-31 13:26:30","356308"
"ALG64VSMILMDT","cs_wg_mon_conf_time_pilot2","3VZLGYJEYLBCWALETGLGYPGW4G8ZX7","8","0","FEBRUARY","2","OCTOBER","12","1","9447",,,,,"1","2018-10-31 13:26:31","356309"
"A98P6ZBAHA4C5","cs_wg_mon_conf_time_pilot2","3LEP4MGT3G12G6DHW241I061XVBDBE","3","0","OCTOBER","4","SEPTEMBER","10","1","6197",,,,,"1","2018-10-31 13:26:31","356310"
"A1PH1I9F2AA3TZ","cs_wg_mon_conf_time_pilot2","3SBEHTYCWN4F1PMEY8JWH8KFA90YIF","62","0","JUNE","5","DECEMBER","2","0","2109",,,,,"0","2018-10-31 13:26:34","356311"
"ALG64VSMILMDT","cs_wg_mon_conf_time_pilot2","3VZLGYJEYLBCWALETGLGYPGW4G8ZX7","9","0","MAY","11","OCTOBER","12","1","3031",,,,,"0","2018-10-31 13:26:36","356312"
"A1PH1I9F2AA3TZ","cs_wg_mon_conf_time_pilot2","3SBEHTYCWN4F1PMEY8JWH8KFA90YIF","63","0","FEBRUARY","4","MARCH","10","1","1366",,,,,"0","2018-10-31 13:26:38","356313"
"A7LGXWVP67WG","cs_wg_mon_conf_time_pilot2","3YMTUJH0DSHPCWO53DUTFQIHQPI4TI","4","0","MARCH","12","JANUARY","8","0","9650",,,,,"1","2018-10-31 13:26:40","356314"
"A98P6ZBAHA4C5","cs_wg_mon_conf_time_pilot2","3LEP4MGT3G12G6DHW241I061XVBDBE","4","0","JULY","9","SEPTEMBER","10","1","7328",,,,,"1","2018-10-31 13:26:41","356315"
"A1PH1I9F2AA3TZ","cs_wg_mon_conf_time_pilot2","3SBEHTYCWN4F1PMEY8JWH8KFA90YIF","64","0","AUGUST","1","MAY","11","1","2525",,,,,"0","2018-10-31 13:26:43","356316"
"A2B01MEFSL5R97","cs_wg_mon_conf_time_pilot2","30H4UDGLT2J7OUK4S0L5WAYKNDIMPQ","18","0","MARCH","11","NOVEMBER","4","0","6862",,,,,"1","2018-10-31 13:26:43","356317"
"ALG64VSMILMDT","cs_wg_mon_conf_time_pilot2","3VZLGYJEYLBCWALETGLGYPGW4G8ZX7","10","0","DECEMBER","7","AUGUST","5","1","3495",,,,,"0","2018-10-31 13:26:45","356318"
"A1PH1I9F2AA3TZ","cs_wg_mon_conf_time_pilot2","3SBEHTYCWN4F1PMEY8JWH8KFA90YIF","65","0","JULY","6","MAY","11","1","1249",,,,,"0","2018-10-31 13:26:46","356319"
"A7LGXWVP67WG","cs_wg_mon_conf_time_pilot2","3YMTUJH0DSHPCWO53DUTFQIHQPI4TI","5","0","FEBRUARY","11","JANUARY","8","0","6130",,,,,"1","2018-10-31 13:26:50","356320"
"ALG64VSMILMDT","cs_wg_mon_conf_time_pilot2","3VZLGYJEYLBCWALETGLGYPGW4G8ZX7","11","0","AUGUST","5","JUNE","3","0","2439",,,,,"0","2018-10-31 13:26:50","356321"
"A2B01MEFSL5R97","cs_wg_mon_conf_time_pilot2","30H4UDGLT2J7OUK4S0L5WAYKNDIMPQ","19","0","DECEMBER","1","JANUARY","9","1","4847",,,,,"0","2018-10-31 13:26:53","356322"
"A1PH1I9F2AA3TZ","cs_wg_mon_conf_time_pilot2","3SBEHTYCWN4F1PMEY8JWH8KFA90YIF","66","0","NOVEMBER","8","JANUARY","7","0","4757",,,,,"0","2018-10-31 13:26:53","356323"
"A98P6ZBAHA4C5","cs_wg_mon_conf_time_pilot2","3LEP4MGT3G12G6DHW241I061XVBDBE","5","0","JUNE","6","DECEMBER","7","1","14279",,,,,"1","2018-10-31 13:26:58","356324"
"A7LGXWVP67WG","cs_wg_mon_conf_time_pilot2","3YMTUJH0DSHPCWO53DUTFQIHQPI4TI","6","0","MARCH","12","JUNE","7","0","6379",,,,,"1","2018-10-31 13:26:58","356325"
"ALG64VSMILMDT","cs_wg_mon_conf_time_pilot2","3VZLGYJEYLBCWALETGLGYPGW4G8ZX7","12","0","JUNE","3","NOVEMBER","10","1","7190",,,,,"1","2018-10-31 13:26:58","356326"
"A1PH1I9F2AA3TZ","cs_wg_mon_conf_time_pilot2","3SBEHTYCWN4F1PMEY8JWH8KFA90YIF","67","0","AUGUST","1","OCTOBER","3","1","2210",,,,,"0","2018-10-31 13:26:58","356327"
"A2B01MEFSL5R97","cs_wg_mon_conf_time_pilot2","30H4UDGLT2J7OUK4S0L5WAYKNDIMPQ","20","0","OCTOBER","5","NOVEMBER","4","0","2981",,,,,"0","2018-10-31 13:26:59","356328"
"ALG64VSMILMDT","cs_wg_mon_conf_time_pilot2","3VZLGYJEYLBCWALETGLGYPGW4G8ZX7","13","0","FEBRUARY","2","DECEMBER","7","1","3015",,,,,"0","2018-10-31 13:27:03","356329"
"A1PH1I9F2AA3TZ","cs_wg_mon_conf_time_pilot2","3SBEHTYCWN4F1PMEY8JWH8KFA90YIF","68","0","JANUARY","7","DECEMBER","2","0","3090",,,,,"0","2018-10-31 13:27:03","356330"
"A2B01MEFSL5R97","cs_wg_mon_conf_time_pilot2","30H4UDGLT2J7OUK4S0L5WAYKNDIMPQ","21","0","JUNE","6","DECEMBER","1","0","2492",,,,,"0","2018-10-31 13:27:05","356331"
"A2B01MEFSL5R97","cs_wg_mon_conf_time_pilot2","30H4UDGLT2J7OUK4S0L5WAYKNDIMPQ","22","0","MAY","12","NOVEMBER","4","0","1030",,,,,"0","2018-10-31 13:27:09","356332"
"A1PH1I9F2AA3TZ","cs_wg_mon_conf_time_pilot2","3SBEHTYCWN4F1PMEY8JWH8KFA90YIF","69","0","DECEMBER","2","MAY","11","1","2774",,,,,"0","2018-10-31 13:27:09","356333"
"A7LGXWVP67WG","cs_wg_mon_conf_time_pilot2","3YMTUJH0DSHPCWO53DUTFQIHQPI4TI","7","0","APRIL","9","JUNE","7","0","5996",,,,,"1","2018-10-31 13:27:09","356334"
"ALG64VSMILMDT","cs_wg_mon_conf_time_pilot2","3VZLGYJEYLBCWALETGLGYPGW4G8ZX7","14","0","NOVEMBER","10","OCTOBER","12","1","5526",,,,,"1","2018-10-31 13:27:11","356335"
"A1PH1I9F2AA3TZ","cs_wg_mon_conf_time_pilot2","3SBEHTYCWN4F1PMEY8JWH8KFA90YIF","70","0","JUNE","5","MAY","11","1","1342",,,,,"0","2018-10-31 13:27:12","356336"
"A98P6ZBAHA4C5","cs_wg_mon_conf_time_pilot2","3LEP4MGT3G12G6DHW241I061XVBDBE","6","0","JULY","9","JANUARY","11","1","13021",,,,,"1","2018-10-31 13:27:13","356337"
"A2ZX1P3T4KK683","cs_wg_mon_conf_time_pilot2","3HFNH7HEMHFSWWPXHA2ZJA4XWNSQGD","0","0","MARCH","6","JANUARY","5","0","10376",,,,,"1","2018-10-31 13:27:16","356338"
"A1PH1I9F2AA3TZ","cs_wg_mon_conf_time_pilot2","3SBEHTYCWN4F1PMEY8JWH8KFA90YIF","71","0","AUGUST","1","JUNE","5","1","2356",,,,,"0","2018-10-31 13:27:17","356339"
"A2B01MEFSL5R97","cs_wg_mon_conf_time_pilot2","30H4UDGLT2J7OUK4S0L5WAYKNDIMPQ","23","0","SEPTEMBER","8","FEBRUARY","3","0","7494",,,,,"1","2018-10-31 13:27:18","356340"
"A3629S0CJZO6P0","cs_wg_mon_conf_time_pilot2","3QIYRE09Y3IAPKM2JZPF8T5MPON1N4","0","0","SEPTEMBER","7","APRIL","5","0","6157",,,,,"0","2018-10-31 13:27:19","356341"
"ALG64VSMILMDT","cs_wg_mon_conf_time_pilot2","3VZLGYJEYLBCWALETGLGYPGW4G8ZX7","15","0","OCTOBER","12","NOVEMBER","10","0","6429",,,,,"0","2018-10-31 13:27:19","356342"
"A1PH1I9F2AA3TZ","cs_wg_mon_conf_time_pilot2","3SBEHTYCWN4F1PMEY8JWH8KFA90YIF","72","0","MARCH","10","AUGUST","1","0","1722",,,,,"0","2018-10-31 13:27:21","356343"
"A98P6ZBAHA4C5","cs_wg_mon_conf_time_pilot2","3LEP4MGT3G12G6DHW241I061XVBDBE","7","0","NOVEMBER","2","SEPTEMBER","10","1","5308",,,,,"1","2018-10-31 13:27:21","356344"
"A7LGXWVP67WG","cs_wg_mon_conf_time_pilot2","3YMTUJH0DSHPCWO53DUTFQIHQPI4TI","8","0","NOVEMBER","2","FEBRUARY","11","1","10822",,,,,"1","2018-10-31 13:27:23","356345"
"ALG64VSMILMDT","cs_wg_mon_conf_time_pilot2","3VZLGYJEYLBCWALETGLGYPGW4G8ZX7","16","0","MAY","11","SEPTEMBER","6","0","3101",,,,,"0","2018-10-31 13:27:24","356346"
"A2B01MEFSL5R97","cs_wg_mon_conf_time_pilot2","30H4UDGLT2J7OUK4S0L5WAYKNDIMPQ","24","0","APRIL","7","MARCH","11","1","2463",,,,,"0","2018-10-31 13:27:25","356347"
"A1PH1I9F2AA3TZ","cs_wg_mon_conf_time_pilot2","3SBEHTYCWN4F1PMEY8JWH8KFA90YIF","73","0","AUGUST","1","DECEMBER","2","1","1860",,,,,"0","2018-10-31 13:27:25","356348"
"AU7UAH7YK73YS","cs_wg_mon_conf_time_pilot2","3A1COHJ8NJW0QOKCFM3HIJVYHIKH8V","0","0","MARCH","9","OCTOBER","5","0","9167",,,,,"1","2018-10-31 13:27:26","356349"
"A3629S0CJZO6P0","cs_wg_mon_conf_time_pilot2","3QIYRE09Y3IAPKM2JZPF8T5MPON1N4","1","0","JULY","10","FEBRUARY","3","1","4994",,,,,"0","2018-10-31 13:27:27","356350"
"A2ZX1P3T4KK683","cs_wg_mon_conf_time_pilot2","3HFNH7HEMHFSWWPXHA2ZJA4XWNSQGD","1","0","AUGUST","2","JUNE","12","1","8877",,,,,"1","2018-10-31 13:27:28","356351"
"A1PH1I9F2AA3TZ","cs_wg_mon_conf_time_pilot2","3SBEHTYCWN4F1PMEY8JWH8KFA90YIF","74","0","JULY","6","JANUARY","7","1","1602",,,,,"0","2018-10-31 13:27:29","356352"
"A2B01MEFSL5R97","cs_wg_mon_conf_time_pilot2","30H4UDGLT2J7OUK4S0L5WAYKNDIMPQ","25","0","AUGUST","2","OCTOBER","5","1","4821",,,,,"1","2018-10-31 13:27:32","356353"
"A7LGXWVP67WG","cs_wg_mon_conf_time_pilot2","3YMTUJH0DSHPCWO53DUTFQIHQPI4TI","9","0","DECEMBER","4","APRIL","9","1","5978",,,,,"1","2018-10-31 13:27:32","356354"
"A98P6ZBAHA4C5","cs_wg_mon_conf_time_pilot2","3LEP4MGT3G12G6DHW241I061XVBDBE","8","0","JANUARY","11","MARCH","5","0","5888",,,,,"1","2018-10-31 13:27:32","356355"
"A1PH1I9F2AA3TZ","cs_wg_mon_conf_time_pilot2","3SBEHTYCWN4F1PMEY8JWH8KFA90YIF","75","0","MARCH","10","JULY","6","0","1730",,,,,"0","2018-10-31 13:27:33","356356"
"A3629S0CJZO6P0","cs_wg_mon_conf_time_pilot2","3QIYRE09Y3IAPKM2JZPF8T5MPON1N4","2","0","SEPTEMBER","7","MARCH","6","0","6110",,,,,"1","2018-10-31 13:27:36","356357"
"ALG64VSMILMDT","cs_wg_mon_conf_time_pilot2","3VZLGYJEYLBCWALETGLGYPGW4G8ZX7","17","0","SEPTEMBER","6","FEBRUARY","2","0","9743",,,,,"1","2018-10-31 13:27:37","356358"
"A2B01MEFSL5R97","cs_wg_mon_conf_time_pilot2","30H4UDGLT2J7OUK4S0L5WAYKNDIMPQ","26","0","APRIL","7","JANUARY","9","1","3358",,,,,"0","2018-10-31 13:27:37","356359"
"AU7UAH7YK73YS","cs_wg_mon_conf_time_pilot2","3A1COHJ8NJW0QOKCFM3HIJVYHIKH8V","1","0","OCTOBER","5","MARCH","9","1","7066",,,,,"1","2018-10-31 13:27:37","356360"
"A1PH1I9F2AA3TZ","cs_wg_mon_conf_time_pilot2","3SBEHTYCWN4F1PMEY8JWH8KFA90YIF","76","0","FEBRUARY","4","APRIL","9","1","2331",,,,,"0","2018-10-31 13:27:38","356361"
"A2ZX1P3T4KK683","cs_wg_mon_conf_time_pilot2","3HFNH7HEMHFSWWPXHA2ZJA4XWNSQGD","2","0","JULY","4","FEBRUARY","7","1","6146",,,,,"1","2018-10-31 13:27:39","356362"
"A7LGXWVP67WG","cs_wg_mon_conf_time_pilot2","3YMTUJH0DSHPCWO53DUTFQIHQPI4TI","10","0","NOVEMBER","2","APRIL","9","1","6400",,,,,"1","2018-10-31 13:27:41","356363"
"A1PH1I9F2AA3TZ","cs_wg_mon_conf_time_pilot2","3SBEHTYCWN4F1PMEY8JWH8KFA90YIF","77","0","APRIL","9","AUGUST","1","0","2421",,,,,"0","2018-10-31 13:27:43","356364"
"A98P6ZBAHA4C5","cs_wg_mon_conf_time_pilot2","3LEP4MGT3G12G6DHW241I061XVBDBE","9","0","FEBRUARY","8","MAY","1","0","8882",,,,,"1","2018-10-31 13:27:43","356365"
"ALG64VSMILMDT","cs_wg_mon_conf_time_pilot2","3VZLGYJEYLBCWALETGLGYPGW4G8ZX7","18","0","NOVEMBER","10","APRIL","9","0","4230",,,,,"0","2018-10-31 13:27:43","356366"
"A2B01MEFSL5R97","cs_wg_mon_conf_time_pilot2","30H4UDGLT2J7OUK4S0L5WAYKNDIMPQ","27","0","APRIL","7","SEPTEMBER","8","1","3613",,,,,"0","2018-10-31 13:27:43","356367"
"A3629S0CJZO6P0","cs_wg_mon_conf_time_pilot2","3QIYRE09Y3IAPKM2JZPF8T5MPON1N4","3","0","APRIL","5","DECEMBER","12","1","5042",,,,,"0","2018-10-31 13:27:45","356368"
"A1PH1I9F2AA3TZ","cs_wg_mon_conf_time_pilot2","3SBEHTYCWN4F1PMEY8JWH8KFA90YIF","78","0","DECEMBER","2","AUGUST","1","0","2098",,,,,"0","2018-10-31 13:27:47","356369"
"A98P6ZBAHA4C5","cs_wg_mon_conf_time_pilot2","3LEP4MGT3G12G6DHW241I061XVBDBE","10","0","MARCH","5","MAY","1","0","3853",,,,,"1","2018-10-31 13:27:49","356370"
"AU7UAH7YK73YS","cs_wg_mon_conf_time_pilot2","3A1COHJ8NJW0QOKCFM3HIJVYHIKH8V","2","0","AUGUST","10","DECEMBER","2","0","6833",,,,,"1","2018-10-31 13:27:49","356371"
"A2B01MEFSL5R97","cs_wg_mon_conf_time_pilot2","30H4UDGLT2J7OUK4S0L5WAYKNDIMPQ","28","0","JULY","10","MARCH","11","1","3295",,,,,"0","2018-10-31 13:27:49","356372"
"ALG64VSMILMDT","cs_wg_mon_conf_time_pilot2","3VZLGYJEYLBCWALETGLGYPGW4G8ZX7","19","0","AUGUST","5","JANUARY","1","0","4799",,,,,"0","2018-10-31 13:27:50","356373"
"A3629S0CJZO6P0","cs_wg_mon_conf_time_pilot2","3QIYRE09Y3IAPKM2JZPF8T5MPON1N4","4","0","MAY","4","JUNE","1","0","2997",,,,,"0","2018-10-31 13:27:50","356374"
"A2ZX1P3T4KK683","cs_wg_mon_conf_time_pilot2","3HFNH7HEMHFSWWPXHA2ZJA4XWNSQGD","3","0","FEBRUARY","7","NOVEMBER","10","1","7330",,,,,"1","2018-10-31 13:27:50","356375"
"A1PH1I9F2AA3TZ","cs_wg_mon_conf_time_pilot2","3SBEHTYCWN4F1PMEY8JWH8KFA90YIF","79","0","APRIL","9","JUNE","5","0","2013",,,,,"0","2018-10-31 13:27:51","356376"
"A7LGXWVP67WG","cs_wg_mon_conf_time_pilot2","3YMTUJH0DSHPCWO53DUTFQIHQPI4TI","11","0","NOVEMBER","2","MAY","6","1","7176",,,,,"1","2018-10-31 13:27:52","356377"
"A2B01MEFSL5R97","cs_wg_mon_conf_time_pilot2","30H4UDGLT2J7OUK4S0L5WAYKNDIMPQ","29","0","AUGUST","2","FEBRUARY","3","0","2694",,,,,"0","2018-10-31 13:27:54","356378"
"A98P6ZBAHA4C5","cs_wg_mon_conf_time_pilot2","3LEP4MGT3G12G6DHW241I061XVBDBE","11","0","NOVEMBER","2","JUNE","6","1","3692",,,,,"1","2018-10-31 13:27:54","356379"
"A3BKYYHDOA97H9","cs_wg_mon_conf_time_pilot2","32UTUBMZ7GXOAND3NN4VOMC8X2FVBV","0","0","APRIL","3","JULY","1","0","5268",,,,,"1","2018-10-31 13:27:56","356380"
"A1PH1I9F2AA3TZ","cs_wg_mon_conf_time_pilot2","3SBEHTYCWN4F1PMEY8JWH8KFA90YIF","80","0","JANUARY","7","JULY","6","1","2485",,,,,"0","2018-10-31 13:27:56","356381"
"A3629S0CJZO6P0","cs_wg_mon_conf_time_pilot2","3QIYRE09Y3IAPKM2JZPF8T5MPON1N4","5","0","JULY","10","MAY","4","0","3574",,,,,"0","2018-10-31 13:27:56","356382"
"A2B01MEFSL5R97","cs_wg_mon_conf_time_pilot2","30H4UDGLT2J7OUK4S0L5WAYKNDIMPQ","30","0","DECEMBER","1","AUGUST","2","0","2606",,,,,"0","2018-10-31 13:27:59","356383"
"A2ZX1P3T4KK683","cs_wg_mon_conf_time_pilot2","3HFNH7HEMHFSWWPXHA2ZJA4XWNSQGD","4","0","DECEMBER","11","NOVEMBER","10","0","5594",,,,,"1","2018-10-31 13:27:59","356384"
"A7LGXWVP67WG","cs_wg_mon_conf_time_pilot2","3YMTUJH0DSHPCWO53DUTFQIHQPI4TI","12","0","DECEMBER","4","MAY","6","1","4423",,,,,"1","2018-10-31 13:28:00","356385"
"ALG64VSMILMDT","cs_wg_mon_conf_time_pilot2","3VZLGYJEYLBCWALETGLGYPGW4G8ZX7","20","0","JUNE","3","SEPTEMBER","6","1","8469",,,,,"1","2018-10-31 13:28:00","356386"
"A1PH1I9F2AA3TZ","cs_wg_mon_conf_time_pilot2","3SBEHTYCWN4F1PMEY8JWH8KFA90YIF","81","0","SEPTEMBER","12","NOVEMBER","8","0","2102",,,,,"0","2018-10-31 13:28:00","356387"
"AU7UAH7YK73YS","cs_wg_mon_conf_time_pilot2","3A1COHJ8NJW0QOKCFM3HIJVYHIKH8V","3","0","FEBRUARY","11","MAY","8","0","5812",,,,,"1","2018-10-31 13:28:00","356388"
"A2B01MEFSL5R97","cs_wg_mon_conf_time_pilot2","30H4UDGLT2J7OUK4S0L5WAYKNDIMPQ","31","0","SEPTEMBER","8","AUGUST","2","0","1813",,,,,"0","2018-10-31 13:28:02","356389"
"A3629S0CJZO6P0","cs_wg_mon_conf_time_pilot2","3QIYRE09Y3IAPKM2JZPF8T5MPON1N4","6","0","AUGUST","2","JULY","10","1","4053",,,,,"0","2018-10-31 13:28:03","356390"
"ALG64VSMILMDT","cs_wg_mon_conf_time_pilot2","3VZLGYJEYLBCWALETGLGYPGW4G8ZX7","21","0","DECEMBER","7","JUNE","3","0","1821",,,,,"0","2018-10-31 13:28:04","356391"
"A1PH1I9F2AA3TZ","cs_wg_mon_conf_time_pilot2","3SBEHTYCWN4F1PMEY8JWH8KFA90YIF","82","0","SEPTEMBER","12","JUNE","5","0","1870",,,,,"0","2018-10-31 13:28:07","356392"
"A98P6ZBAHA4C5","cs_wg_mon_conf_time_pilot2","3LEP4MGT3G12G6DHW241I061XVBDBE","12","0","AUGUST","12","MARCH","5","0","6476",,,,,"1","2018-10-31 13:28:08","356393"
"A3BKYYHDOA97H9","cs_wg_mon_conf_time_pilot2","32UTUBMZ7GXOAND3NN4VOMC8X2FVBV","1","0","JULY","1","OCTOBER","8","1","8124",,,,,"1","2018-10-31 13:28:08","356394"
"A2ZX1P3T4KK683","cs_wg_mon_conf_time_pilot2","3HFNH7HEMHFSWWPXHA2ZJA4XWNSQGD","5","0","OCTOBER","9","MARCH","6","0","4871",,,,,"1","2018-10-31 13:28:08","356395"
"A3629S0CJZO6P0","cs_wg_mon_conf_time_pilot2","3QIYRE09Y3IAPKM2JZPF8T5MPON1N4","7","0","FEBRUARY","3","AUGUST","2","0","2949",,,,,"0","2018-10-31 13:28:08","356396"
"A7LGXWVP67WG","cs_wg_mon_conf_time_pilot2","3YMTUJH0DSHPCWO53DUTFQIHQPI4TI","13","0","JANUARY","8","JUNE","7","0","5596",,,,,"1","2018-10-31 13:28:09","356397"
"AU7UAH7YK73YS","cs_wg_mon_conf_time_pilot2","3A1COHJ8NJW0QOKCFM3HIJVYHIKH8V","4","0","APRIL","3","SEPTEMBER","12","1","6130",,,,,"1","2018-10-31 13:28:09","356398"
"ALG64VSMILMDT","cs_wg_mon_conf_time_pilot2","3VZLGYJEYLBCWALETGLGYPGW4G8ZX7","22","0","MARCH","4","SEPTEMBER","6","1","4407",,,,,"0","2018-10-31 13:28:10","356399"
"A1PH1I9F2AA3TZ","cs_wg_mon_conf_time_pilot2","3SBEHTYCWN4F1PMEY8JWH8KFA90YIF","83","0","JUNE","5","JULY","6","0","2558",,,,,"0","2018-10-31 13:28:10","356400"
"A2B01MEFSL5R97","cs_wg_mon_conf_time_pilot2","30H4UDGLT2J7OUK4S0L5WAYKNDIMPQ","32","0","JUNE","6","MARCH","11","1","2860",,,,,"0","2018-10-31 13:28:11","356401"
"A98P6ZBAHA4C5","cs_wg_mon_conf_time_pilot2","3LEP4MGT3G12G6DHW241I061XVBDBE","13","0","NOVEMBER","2","MARCH","5","1","3201",,,,,"1","2018-10-31 13:28:12","356402"
"A3BKYYHDOA97H9","cs_wg_mon_conf_time_pilot2","32UTUBMZ7GXOAND3NN4VOMC8X2FVBV","2","0","MARCH","5","NOVEMBER","2","0","4748",,,,,"1","2018-10-31 13:28:14","356403"
"A3629S0CJZO6P0","cs_wg_mon_conf_time_pilot2","3QIYRE09Y3IAPKM2JZPF8T5MPON1N4","8","0","DECEMBER","12","OCTOBER","9","0","3358",,,,,"0","2018-10-31 13:28:14","356404"
"ALG64VSMILMDT","cs_wg_mon_conf_time_pilot2","3VZLGYJEYLBCWALETGLGYPGW4G8ZX7","23","0","SEPTEMBER","6","NOVEMBER","10","1","2765",,,,,"0","2018-10-31 13:28:15","356405"
"A1PH1I9F2AA3TZ","cs_wg_mon_conf_time_pilot2","3SBEHTYCWN4F1PMEY8JWH8KFA90YIF","84","0","AUGUST","1","APRIL","9","1","2345",,,,,"0","2018-10-31 13:28:15","356406"
"A2ZX1P3T4KK683","cs_wg_mon_conf_time_pilot2","3HFNH7HEMHFSWWPXHA2ZJA4XWNSQGD","6","0","JANUARY","5","SEPTEMBER","1","0","4888",,,,,"1","2018-10-31 13:28:15","356407"
"A2B01MEFSL5R97","cs_wg_mon_conf_time_pilot2","30H4UDGLT2J7OUK4S0L5WAYKNDIMPQ","33","0","OCTOBER","5","AUGUST","2","0","2694",,,,,"0","2018-10-31 13:28:16","356408"
"A98P6ZBAHA4C5","cs_wg_mon_conf_time_pilot2","3LEP4MGT3G12G6DHW241I061XVBDBE","14","0","FEBRUARY","8","MARCH","5","0","4062",,,,,"1","2018-10-31 13:28:17","356409"
"AU7UAH7YK73YS","cs_wg_mon_conf_time_pilot2","3A1COHJ8NJW0QOKCFM3HIJVYHIKH8V","5","0","JUNE","6","DECEMBER","2","0","7275",,,,,"1","2018-10-31 13:28:18","356410"
"A7LGXWVP67WG","cs_wg_mon_conf_time_pilot2","3YMTUJH0DSHPCWO53DUTFQIHQPI4TI","14","0","OCTOBER","1","FEBRUARY","11","1","6598",,,,,"1","2018-10-31 13:28:18","356411"
"ALG64VSMILMDT","cs_wg_mon_conf_time_pilot2","3VZLGYJEYLBCWALETGLGYPGW4G8ZX7","24","0","JUNE","3","MAY","11","1","2206",,,,,"0","2018-10-31 13:28:19","356412"
"A1PH1I9F2AA3TZ","cs_wg_mon_conf_time_pilot2","3SBEHTYCWN4F1PMEY8JWH8KFA90YIF","85","0","FEBRUARY","4","AUGUST","1","0","1936",,,,,"0","2018-10-31 13:28:20","356413"
"A2B01MEFSL5R97","cs_wg_mon_conf_time_pilot2","30H4UDGLT2J7OUK4S0L5WAYKNDIMPQ","34","0","FEBRUARY","3","OCTOBER","5","1","2184",,,,,"0","2018-10-31 13:28:20","356414"
"A3629S0CJZO6P0","cs_wg_mon_conf_time_pilot2","3QIYRE09Y3IAPKM2JZPF8T5MPON1N4","9","0","FEBRUARY","3","APRIL","5","0","3695",,,,,"0","2018-10-31 13:28:21","356415"
"A2B01MEFSL5R97","cs_wg_mon_conf_time_pilot2","30H4UDGLT2J7OUK4S0L5WAYKNDIMPQ","35","0","MAY","12","APRIL","7","0","918",,,,,"0","2018-10-31 13:28:23","356416"
"ALG64VSMILMDT","cs_wg_mon_conf_time_pilot2","3VZLGYJEYLBCWALETGLGYPGW4G8ZX7","25","0","FEBRUARY","2","MAY","11","1","2270",,,,,"0","2018-10-31 13:28:23","356417"
"A98P6ZBAHA4C5","cs_wg_mon_conf_time_pilot2","3LEP4MGT3G12G6DHW241I061XVBDBE","15","0","OCTOBER","4","NOVEMBER","2","0","3668",,,,,"1","2018-10-31 13:28:23","356418"
"A1PH1I9F2AA3TZ","cs_wg_mon_conf_time_pilot2","3SBEHTYCWN4F1PMEY8JWH8KFA90YIF","86","0","APRIL","9","MARCH","10","1","2314",,,,,"0","2018-10-31 13:28:24","356419"
"A3BKYYHDOA97H9","cs_wg_mon_conf_time_pilot2","32UTUBMZ7GXOAND3NN4VOMC8X2FVBV","3","0","JULY","1","DECEMBER","11","1","7995",,,,,"1","2018-10-31 13:28:24","356420"
"A2ZX1P3T4KK683","cs_wg_mon_conf_time_pilot2","3HFNH7HEMHFSWWPXHA2ZJA4XWNSQGD","7","0","MARCH","6","JUNE","12","1","6120",,,,,"1","2018-10-31 13:28:24","356421"
"AU7UAH7YK73YS","cs_wg_mon_conf_time_pilot2","3A1COHJ8NJW0QOKCFM3HIJVYHIKH8V","6","0","JANUARY","1","FEBRUARY","11","1","5092",,,,,"1","2018-10-31 13:28:25","356422"
"A3629S0CJZO6P0","cs_wg_mon_conf_time_pilot2","3QIYRE09Y3IAPKM2JZPF8T5MPON1N4","10","0","NOVEMBER","8","JULY","10","1","3073",,,,,"0","2018-10-31 13:28:26","356423"
"A2B01MEFSL5R97","cs_wg_mon_conf_time_pilot2","30H4UDGLT2J7OUK4S0L5WAYKNDIMPQ","36","0","NOVEMBER","4","JUNE","6","1","1901",,,,,"0","2018-10-31 13:28:27","356424"
"A7LGXWVP67WG","cs_wg_mon_conf_time_pilot2","3YMTUJH0DSHPCWO53DUTFQIHQPI4TI","15","0","OCTOBER","1","MARCH","12","1","6375",,,,,"1","2018-10-31 13:28:27","356425"
"A1PH1I9F2AA3TZ","cs_wg_mon_conf_time_pilot2","3SBEHTYCWN4F1PMEY8JWH8KFA90YIF","87","0","DECEMBER","2","SEPTEMBER","12","1","2616",,,,,"0","2018-10-31 13:28:29","356426"
"A3BKYYHDOA97H9","cs_wg_mon_conf_time_pilot2","32UTUBMZ7GXOAND3NN4VOMC8X2FVBV","4","0","FEBRUARY","9","JULY","1","0","2557",,,,,"1","2018-10-31 13:28:29","356427"
"ALG64VSMILMDT","cs_wg_mon_conf_time_pilot2","3VZLGYJEYLBCWALETGLGYPGW4G8ZX7","26","0","SEPTEMBER","6","AUGUST","5","1","3134",,,,,"0","2018-10-31 13:28:29","356428"
"A2B01MEFSL5R97","cs_wg_mon_conf_time_pilot2","30H4UDGLT2J7OUK4S0L5WAYKNDIMPQ","37","0","DECEMBER","1","JUNE","6","1","823",,,,,"0","2018-10-31 13:28:29","356429"
"A3629S0CJZO6P0","cs_wg_mon_conf_time_pilot2","3QIYRE09Y3IAPKM2JZPF8T5MPON1N4","11","0","SEPTEMBER","7","FEBRUARY","3","0","2035",,,,,"0","2018-10-31 13:28:30","356430"
"A98P6ZBAHA4C5","cs_wg_mon_conf_time_pilot2","3LEP4MGT3G12G6DHW241I061XVBDBE","16","0","SEPTEMBER","10","DECEMBER","7","0","6314",,,,,"1","2018-10-31 13:28:31","356431"
"A2ZX1P3T4KK683","cs_wg_mon_conf_time_pilot2","3HFNH7HEMHFSWWPXHA2ZJA4XWNSQGD","8","0","JUNE","12","SEPTEMBER","1","0","4238",,,,,"1","2018-10-31 13:28:31","356432"
"ALG64VSMILMDT","cs_wg_mon_conf_time_pilot2","3VZLGYJEYLBCWALETGLGYPGW4G8ZX7","27","0","AUGUST","5","DECEMBER","7","1","1806",,,,,"0","2018-10-31 13:28:33","356433"
"A3BKYYHDOA97H9","cs_wg_mon_conf_time_pilot2","32UTUBMZ7GXOAND3NN4VOMC8X2FVBV","5","0","FEBRUARY","9","JANUARY","6","0","1817",,,,,"1","2018-10-31 13:28:33","356434"
"AU7UAH7YK73YS","cs_wg_mon_conf_time_pilot2","3A1COHJ8NJW0QOKCFM3HIJVYHIKH8V","7","0","MAY","8","AUGUST","10","1","6321",,,,,"1","2018-10-31 13:28:34","356435"
"A1PH1I9F2AA3TZ","cs_wg_mon_conf_time_pilot2","3SBEHTYCWN4F1PMEY8JWH8KFA90YIF","88","0","JULY","6","FEBRUARY","4","1","2456",,,,,"0","2018-10-31 13:28:34","356436"
"A2B01MEFSL5R97","cs_wg_mon_conf_time_pilot2","30H4UDGLT2J7OUK4S0L5WAYKNDIMPQ","38","0","SEPTEMBER","8","JANUARY","9","0","2709",,,,,"0","2018-10-31 13:28:34","356437"
"A1PH1I9F2AA3TZ","cs_wg_mon_conf_time_pilot2","3SBEHTYCWN4F1PMEY8JWH8KFA90YIF","89","0","JULY","6","JUNE","5","0","1356",,,,,"0","2018-10-31 13:28:37","356438"
"A98P6ZBAHA4C5","cs_wg_mon_conf_time_pilot2","3LEP4MGT3G12G6DHW241I061XVBDBE","17","0","APRIL","3","FEBRUARY","8","1","4381",,,,,"1","2018-10-31 13:28:38","356439"
"A3629S0CJZO6P0","cs_wg_mon_conf_time_pilot2","3QIYRE09Y3IAPKM2JZPF8T5MPON1N4","12","0","SEPTEMBER","7","DECEMBER","12","0","5070",,,,,"0","2018-10-31 13:28:38","356440"
"A3BKYYHDOA97H9","cs_wg_mon_conf_time_pilot2","32UTUBMZ7GXOAND3NN4VOMC8X2FVBV","6","0","JANUARY","6","JULY","1","0","2059",,,,,"1","2018-10-31 13:28:38","356441"
"A2B01MEFSL5R97","cs_wg_mon_conf_time_pilot2","30H4UDGLT2J7OUK4S0L5WAYKNDIMPQ","39","0","FEBRUARY","3","MARCH","11","1","2262",,,,,"0","2018-10-31 13:28:38","356442"
"A2ZX1P3T4KK683","cs_wg_mon_conf_time_pilot2","3HFNH7HEMHFSWWPXHA2ZJA4XWNSQGD","9","0","JULY","4","APRIL","8","1","4330",,,,,"1","2018-10-31 13:28:40","356443"
"AU7UAH7YK73YS","cs_wg_mon_conf_time_pilot2","3A1COHJ8NJW0QOKCFM3HIJVYHIKH8V","8","0","APRIL","3","MAY","8","1","5013",,,,,"1","2018-10-31 13:28:40","356444"
"A7LGXWVP67WG","cs_wg_mon_conf_time_pilot2","3YMTUJH0DSHPCWO53DUTFQIHQPI4TI","16","0","SEPTEMBER","5","FEBRUARY","11","1","9814",,,,,"1","2018-10-31 13:28:41","356445"
"ALG64VSMILMDT","cs_wg_mon_conf_time_pilot2","3VZLGYJEYLBCWALETGLGYPGW4G8ZX7","28","0","JUNE","3","APRIL","9","1","6078",,,,,"1","2018-10-31 13:28:42","356446"
"A1PH1I9F2AA3TZ","cs_wg_mon_conf_time_pilot2","3SBEHTYCWN4F1PMEY8JWH8KFA90YIF","90","0","OCTOBER","3","JANUARY","7","0","1166",,,,,"0","2018-10-31 13:28:42","356447"
"A3BKYYHDOA97H9","cs_wg_mon_conf_time_pilot2","32UTUBMZ7GXOAND3NN4VOMC8X2FVBV","7","0","DECEMBER","11","FEBRUARY","9","0","2042",,,,,"1","2018-10-31 13:28:42","356448"
"A2B01MEFSL5R97","cs_wg_mon_conf_time_pilot2","30H4UDGLT2J7OUK4S0L5WAYKNDIMPQ","40","0","JULY","10","NOVEMBER","4","0","2638",,,,,"0","2018-10-31 13:28:43","356449"
"A3629S0CJZO6P0","cs_wg_mon_conf_time_pilot2","3QIYRE09Y3IAPKM2JZPF8T5MPON1N4","13","0","JANUARY","11","OCTOBER","9","0","2935",,,,,"0","2018-10-31 13:28:43","356450"
"ALG64VSMILMDT","cs_wg_mon_conf_time_pilot2","3VZLGYJEYLBCWALETGLGYPGW4G8ZX7","29","0","OCTOBER","12","JULY","8","0","1871",,,,,"0","2018-10-31 13:28:44","356451"
"A1PH1I9F2AA3TZ","cs_wg_mon_conf_time_pilot2","3SBEHTYCWN4F1PMEY8JWH8KFA90YIF","91","0","JUNE","5","AUGUST","1","0","1489",,,,,"0","2018-10-31 13:28:45","356452"
"A3BKYYHDOA97H9","cs_wg_mon_conf_time_pilot2","32UTUBMZ7GXOAND3NN4VOMC8X2FVBV","8","0","MAY","7","JULY","1","0","1917",,,,,"1","2018-10-31 13:28:46","356453"
"A2ZX1P3T4KK683","cs_wg_mon_conf_time_pilot2","3HFNH7HEMHFSWWPXHA2ZJA4XWNSQGD","10","0","MAY","3","JUNE","12","1","3969",,,,,"1","2018-10-31 13:28:47","356454"
"A98P6ZBAHA4C5","cs_wg_mon_conf_time_pilot2","3LEP4MGT3G12G6DHW241I061XVBDBE","18","0","JANUARY","11","MAY","1","0","7361",,,,,"1","2018-10-31 13:28:47","356455"
"ALG64VSMILMDT","cs_wg_mon_conf_time_pilot2","3VZLGYJEYLBCWALETGLGYPGW4G8ZX7","30","0","SEPTEMBER","6","DECEMBER","7","1","1533",,,,,"0","2018-10-31 13:28:48","356456"
"AFRBRB9J2ZX1D","cs_wg_mon_conf_time_pilot2","3STRJBFXOWSAQYD8O5H9M77DNB7TKW","0","0","APRIL","8","MARCH","11","1","10150",,,,,"0","2018-10-31 13:28:48","356457"
"A3629S0CJZO6P0","cs_wg_mon_conf_time_pilot2","3QIYRE09Y3IAPKM2JZPF8T5MPON1N4","14","0","JUNE","1","DECEMBER","12","1","3157",,,,,"0","2018-10-31 13:28:48","356458"
"AU7UAH7YK73YS","cs_wg_mon_conf_time_pilot2","3A1COHJ8NJW0QOKCFM3HIJVYHIKH8V","9","0","DECEMBER","2","JUNE","6","1","6872",,,,,"1","2018-10-31 13:28:49","356459"
"A1PH1I9F2AA3TZ","cs_wg_mon_conf_time_pilot2","3SBEHTYCWN4F1PMEY8JWH8KFA90YIF","92","0","MAY","11","JUNE","5","0","2022",,,,,"0","2018-10-31 13:28:49","356460"
"A3BKYYHDOA97H9","cs_wg_mon_conf_time_pilot2","32UTUBMZ7GXOAND3NN4VOMC8X2FVBV","9","0","DECEMBER","11","JANUARY","6","0","2291",,,,,"1","2018-10-31 13:28:51","356461"
"A2B01MEFSL5R97","cs_wg_mon_conf_time_pilot2","30H4UDGLT2J7OUK4S0L5WAYKNDIMPQ","41","0","JANUARY","9","MARCH","11","1","6709",,,,,"0","2018-10-31 13:28:52","356462"
"A7LGXWVP67WG","cs_wg_mon_conf_time_pilot2","3YMTUJH0DSHPCWO53DUTFQIHQPI4TI","17","0","APRIL","9","DECEMBER","4","0","9327",,,,,"1","2018-10-31 13:28:52","356463"
"A2ZX1P3T4KK683","cs_wg_mon_conf_time_pilot2","3HFNH7HEMHFSWWPXHA2ZJA4XWNSQGD","11","0","JULY","4","SEPTEMBER","1","0","2765",,,,,"1","2018-10-31 13:28:54","356464"
"A3629S0CJZO6P0","cs_wg_mon_conf_time_pilot2","3QIYRE09Y3IAPKM2JZPF8T5MPON1N4","15","0","OCTOBER","9","MAY","4","0","3135",,,,,"0","2018-10-31 13:28:54","356465"
"A1PH1I9F2AA3TZ","cs_wg_mon_conf_time_pilot2","3SBEHTYCWN4F1PMEY8JWH8KFA90YIF","93","0","MAY","11","DECEMBER","2","0","3317",,,,,"0","2018-10-31 13:28:55","356466"
"ALG64VSMILMDT","cs_wg_mon_conf_time_pilot2","3VZLGYJEYLBCWALETGLGYPGW4G8ZX7","31","0","MARCH","4","APRIL","9","1","5286",,,,,"1","2018-10-31 13:28:55","356467"
"AU7UAH7YK73YS","cs_wg_mon_conf_time_pilot2","3A1COHJ8NJW0QOKCFM3HIJVYHIKH8V","10","0","MAY","8","APRIL","3","0","4399",,,,,"1","2018-10-31 13:28:56","356468"
"A3BKYYHDOA97H9","cs_wg_mon_conf_time_pilot2","32UTUBMZ7GXOAND3NN4VOMC8X2FVBV","10","0","SEPTEMBER","4","FEBRUARY","9","1","2935",,,,,"1","2018-10-31 13:28:56","356469"
"A98P6ZBAHA4C5","cs_wg_mon_conf_time_pilot2","3LEP4MGT3G12G6DHW241I061XVBDBE","19","0","AUGUST","12","DECEMBER","7","0","7592",,,,,"1","2018-10-31 13:28:56","356470"
"A2B01MEFSL5R97","cs_wg_mon_conf_time_pilot2","30H4UDGLT2J7OUK4S0L5WAYKNDIMPQ","42","0","SEPTEMBER","8","APRIL","7","0","3469",,,,,"0","2018-10-31 13:28:57","356471"
"A3629S0CJZO6P0","cs_wg_mon_conf_time_pilot2","3QIYRE09Y3IAPKM2JZPF8T5MPON1N4","16","0","OCTOBER","9","JUNE","1","0","2270",,,,,"0","2018-10-31 13:28:58","356472"
"A1PH1I9F2AA3TZ","cs_wg_mon_conf_time_pilot2","3SBEHTYCWN4F1PMEY8JWH8KFA90YIF","94","0","NOVEMBER","8","FEBRUARY","4","1","2602",,,,,"0","2018-10-31 13:28:59","356473"
"AFRBRB9J2ZX1D","cs_wg_mon_conf_time_pilot2","3STRJBFXOWSAQYD8O5H9M77DNB7TKW","1","0","MAY","7","JANUARY","10","0","7721",,,,,"0","2018-10-31 13:29:00","356474"
"A2B01MEFSL5R97","cs_wg_mon_conf_time_pilot2","30H4UDGLT2J7OUK4S0L5WAYKNDIMPQ","43","0","MARCH","11","JULY","10","0","2085",,,,,"0","2018-10-31 13:29:01","356475"
"ALG64VSMILMDT","cs_wg_mon_conf_time_pilot2","3VZLGYJEYLBCWALETGLGYPGW4G8ZX7","32","0","APRIL","9","MARCH","4","0","4582",,,,,"0","2018-10-31 13:29:01","356476"
"A7LGXWVP67WG","cs_wg_mon_conf_time_pilot2","3YMTUJH0DSHPCWO53DUTFQIHQPI4TI","18","0","JUNE","7","NOVEMBER","2","0","6502",,,,,"1","2018-10-31 13:29:01","356477"
"AU7UAH7YK73YS","cs_wg_mon_conf_time_pilot2","3A1COHJ8NJW0QOKCFM3HIJVYHIKH8V","11","0","NOVEMBER","7","FEBRUARY","11","1","4222",,,,,"1","2018-10-31 13:29:02","356478"
"A98P6ZBAHA4C5","cs_wg_mon_conf_time_pilot2","3LEP4MGT3G12G6DHW241I061XVBDBE","20","0","JUNE","6","NOVEMBER","2","0","3948",,,,,"1","2018-10-31 13:29:02","356479"
"A2ZX1P3T4KK683","cs_wg_mon_conf_time_pilot2","3HFNH7HEMHFSWWPXHA2ZJA4XWNSQGD","12","0","NOVEMBER","10","FEBRUARY","7","0","5324",,,,,"1","2018-10-31 13:29:03","356480"
"A3629S0CJZO6P0","cs_wg_mon_conf_time_pilot2","3QIYRE09Y3IAPKM2JZPF8T5MPON1N4","17","0","JANUARY","11","APRIL","5","0","2669",,,,,"0","2018-10-31 13:29:03","356481"
"A3BKYYHDOA97H9","cs_wg_mon_conf_time_pilot2","32UTUBMZ7GXOAND3NN4VOMC8X2FVBV","11","0","FEBRUARY","9","DECEMBER","11","1","5689",,,,,"1","2018-10-31 13:29:04","356482"
"A2B01MEFSL5R97","cs_wg_mon_conf_time_pilot2","30H4UDGLT2J7OUK4S0L5WAYKNDIMPQ","44","0","OCTOBER","5","MARCH","11","0","1246",,,,,"0","2018-10-31 13:29:04","356483"
"A1PH1I9F2AA3TZ","cs_wg_mon_conf_time_pilot2","3SBEHTYCWN4F1PMEY8JWH8KFA90YIF","95","0","JULY","6","DECEMBER","2","0","3266",,,,,"0","2018-10-31 13:29:05","356484"
"AFRBRB9J2ZX1D","cs_wg_mon_conf_time_pilot2","3STRJBFXOWSAQYD8O5H9M77DNB7TKW","2","0","FEBRUARY","9","MARCH","11","0","1044",,,,,"0","2018-10-31 13:29:05","356485"
"ALG64VSMILMDT","cs_wg_mon_conf_time_pilot2","3VZLGYJEYLBCWALETGLGYPGW4G8ZX7","33","0","JULY","8","FEBRUARY","2","0","2878",,,,,"0","2018-10-31 13:29:06","356486"
"A98P6ZBAHA4C5","cs_wg_mon_conf_time_pilot2","3LEP4MGT3G12G6DHW241I061XVBDBE","21","0","SEPTEMBER","10","NOVEMBER","2","0","2470",,,,,"1","2018-10-31 13:29:06","356487"
"A2B01MEFSL5R97","cs_wg_mon_conf_time_pilot2","30H4UDGLT2J7OUK4S0L5WAYKNDIMPQ","45","0","JANUARY","9","FEBRUARY","3","0","1886",,,,,"0","2018-10-31 13:29:08","356488"
"AU7UAH7YK73YS","cs_wg_mon_conf_time_pilot2","3A1COHJ8NJW0QOKCFM3HIJVYHIKH8V","12","0","JANUARY","1","SEPTEMBER","12","1","3797",,,,,"1","2018-10-31 13:29:08","356489"
"A3629S0CJZO6P0","cs_wg_mon_conf_time_pilot2","3QIYRE09Y3IAPKM2JZPF8T5MPON1N4","18","0","FEBRUARY","3","NOVEMBER","8","0","2881",,,,,"0","2018-10-31 13:29:08","356490"
"A2ZX1P3T4KK683","cs_wg_mon_conf_time_pilot2","3HFNH7HEMHFSWWPXHA2ZJA4XWNSQGD","13","0","DECEMBER","11","JANUARY","5","0","3326",,,,,"1","2018-10-31 13:29:09","356491"
"A1PH1I9F2AA3TZ","cs_wg_mon_conf_time_pilot2","3SBEHTYCWN4F1PMEY8JWH8KFA90YIF","96","0","NOVEMBER","8","MARCH","10","1","1949",,,,,"0","2018-10-31 13:29:09","356492"
"A3BKYYHDOA97H9","cs_wg_mon_conf_time_pilot2","32UTUBMZ7GXOAND3NN4VOMC8X2FVBV","12","0","OCTOBER","8","FEBRUARY","9","1","2934",,,,,"1","2018-10-31 13:29:10","356493"
"A7LGXWVP67WG","cs_wg_mon_conf_time_pilot2","3YMTUJH0DSHPCWO53DUTFQIHQPI4TI","19","0","FEBRUARY","11","NOVEMBER","2","0","7113",,,,,"1","2018-10-31 13:29:11","356494"
"A98P6ZBAHA4C5","cs_wg_mon_conf_time_pilot2","3LEP4MGT3G12G6DHW241I061XVBDBE","22","0","AUGUST","12","JANUARY","11","0","3167",,,,,"1","2018-10-31 13:29:11","356495"
"A2B01MEFSL5R97","cs_wg_mon_conf_time_pilot2","30H4UDGLT2J7OUK4S0L5WAYKNDIMPQ","46","0","NOVEMBER","4","FEBRUARY","3","1","2231",,,,,"0","2018-10-31 13:29:12","356496"
"AFRBRB9J2ZX1D","cs_wg_mon_conf_time_pilot2","3STRJBFXOWSAQYD8O5H9M77DNB7TKW","3","0","FEBRUARY","9","JUNE","4","0","2053",,,,,"0","2018-10-31 13:29:12","356497"
"A1PH1I9F2AA3TZ","cs_wg_mon_conf_time_pilot2","3SBEHTYCWN4F1PMEY8JWH8KFA90YIF","97","0","OCTOBER","3","MAY","11","1","1472",,,,,"0","2018-10-31 13:29:13","356498"
"A3629S0CJZO6P0","cs_wg_mon_conf_time_pilot2","3QIYRE09Y3IAPKM2JZPF8T5MPON1N4","19","0","MARCH","6","NOVEMBER","8","1","2773",,,,,"0","2018-10-31 13:29:13","356499"
"ALG64VSMILMDT","cs_wg_mon_conf_time_pilot2","3VZLGYJEYLBCWALETGLGYPGW4G8ZX7","34","0","JUNE","3","AUGUST","5","1","5733",,,,,"0","2018-10-31 13:29:14","356500"
"A2B01MEFSL5R97","cs_wg_mon_conf_time_pilot2","30H4UDGLT2J7OUK4S0L5WAYKNDIMPQ","47","0","NOVEMBER","4","MARCH","11","1","1198",,,,,"0","2018-10-31 13:29:15","356501"
"A3BKYYHDOA97H9","cs_wg_mon_conf_time_pilot2","32UTUBMZ7GXOAND3NN4VOMC8X2FVBV","13","0","JANUARY","6","MARCH","5","0","3640",,,,,"1","2018-10-31 13:29:15","356502"
"A98P6ZBAHA4C5","cs_wg_mon_conf_time_pilot2","3LEP4MGT3G12G6DHW241I061XVBDBE","23","0","AUGUST","12","JULY","9","0","3083",,,,,"1","2018-10-31 13:29:16","356503"
"AFRBRB9J2ZX1D","cs_wg_mon_conf_time_pilot2","3STRJBFXOWSAQYD8O5H9M77DNB7TKW","4","0","MAY","7","MARCH","11","0","1307",,,,,"0","2018-10-31 13:29:16","356504"
"A2ZX1P3T4KK683","cs_wg_mon_conf_time_pilot2","3HFNH7HEMHFSWWPXHA2ZJA4XWNSQGD","14","0","SEPTEMBER","1","MARCH","6","1","3478",,,,,"1","2018-10-31 13:29:17","356505"
"AU7UAH7YK73YS","cs_wg_mon_conf_time_pilot2","3A1COHJ8NJW0QOKCFM3HIJVYHIKH8V","13","0","OCTOBER","5","FEBRUARY","11","1","5213",,,,,"1","2018-10-31 13:29:17","356506"
"A1PH1I9F2AA3TZ","cs_wg_mon_conf_time_pilot2","3SBEHTYCWN4F1PMEY8JWH8KFA90YIF","98","0","MAY","11","APRIL","9","0","1333",,,,,"0","2018-10-31 13:29:17","356507"
"ALG64VSMILMDT","cs_wg_mon_conf_time_pilot2","3VZLGYJEYLBCWALETGLGYPGW4G8ZX7","35","0","FEBRUARY","2","SEPTEMBER","6","1","3230",,,,,"0","2018-10-31 13:29:19","356508"
"A2B01MEFSL5R97","cs_wg_mon_conf_time_pilot2","30H4UDGLT2J7OUK4S0L5WAYKNDIMPQ","48","0","JANUARY","9","OCTOBER","5","0","2798",,,,,"0","2018-10-31 13:29:20","356509"
"AFRBRB9J2ZX1D","cs_wg_mon_conf_time_pilot2","3STRJBFXOWSAQYD8O5H9M77DNB7TKW","5","0","NOVEMBER","6","APRIL","8","0","482",,,,,"0","2018-10-31 13:29:20","356510"
"A3629S0CJZO6P0","cs_wg_mon_conf_time_pilot2","3QIYRE09Y3IAPKM2JZPF8T5MPON1N4","20","0","AUGUST","2","OCTOBER","9","1","3971",,,,,"0","2018-10-31 13:29:20","356511"
"A1PH1I9F2AA3TZ","cs_wg_mon_conf_time_pilot2","3SBEHTYCWN4F1PMEY8JWH8KFA90YIF","99","0","MARCH","10","OCTOBER","3","0","2007",,,,,"0","2018-10-31 13:29:21","356512"
"A3BKYYHDOA97H9","cs_wg_mon_conf_time_pilot2","32UTUBMZ7GXOAND3NN4VOMC8X2FVBV","14","0","OCTOBER","8","DECEMBER","11","1","3332",,,,,"1","2018-10-31 13:29:21","356513"
"A98P6ZBAHA4C5","cs_wg_mon_conf_time_pilot2","3LEP4MGT3G12G6DHW241I061XVBDBE","24","0","JUNE","6","JANUARY","11","1","3903",,,,,"1","2018-10-31 13:29:22","356514"
"A2B01MEFSL5R97","cs_wg_mon_conf_time_pilot2","30H4UDGLT2J7OUK4S0L5WAYKNDIMPQ","49","0","MAY","12","JULY","10","0","990",,,,,"0","2018-10-31 13:29:22","356515"
"AU7UAH7YK73YS","cs_wg_mon_conf_time_pilot2","3A1COHJ8NJW0QOKCFM3HIJVYHIKH8V","14","0","MAY","8","MARCH","9","1","4203",,,,,"1","2018-10-31 13:29:23","356516"
"AFRBRB9J2ZX1D","cs_wg_mon_conf_time_pilot2","3STRJBFXOWSAQYD8O5H9M77DNB7TKW","6","0","MARCH","11","FEBRUARY","9","0","928",,,,,"0","2018-10-31 13:29:23","356517"
"A7LGXWVP67WG","cs_wg_mon_conf_time_pilot2","3YMTUJH0DSHPCWO53DUTFQIHQPI4TI","20","0","MARCH","12","FEBRUARY","11","0","8574",,,,,"1","2018-10-31 13:29:23","356518"
"ALG64VSMILMDT","cs_wg_mon_conf_time_pilot2","3VZLGYJEYLBCWALETGLGYPGW4G8ZX7","36","0","JULY","8","DECEMBER","7","0","3639",,,,,"0","2018-10-31 13:29:24","356519"
"A2ZX1P3T4KK683","cs_wg_mon_conf_time_pilot2","3HFNH7HEMHFSWWPXHA2ZJA4XWNSQGD","15","0","OCTOBER","9","AUGUST","2","0","4709",,,,,"1","2018-10-31 13:29:25","356520"
"A1PH1I9F2AA3TZ","cs_wg_mon_conf_time_pilot2","3SBEHTYCWN4F1PMEY8JWH8KFA90YIF","100","0","JUNE","5","NOVEMBER","8","0","2097",,,,,"0","2018-10-31 13:29:25","356521"
"A3629S0CJZO6P0","cs_wg_mon_conf_time_pilot2","3QIYRE09Y3IAPKM2JZPF8T5MPON1N4","21","0","DECEMBER","12","JULY","10","0","3782",,,,,"0","2018-10-31 13:29:26","356522"
"A2B01MEFSL5R97","cs_wg_mon_conf_time_pilot2","30H4UDGLT2J7OUK4S0L5WAYKNDIMPQ","50","0","MARCH","11","JANUARY","9","0","2206",,,,,"0","2018-10-31 13:29:26","356523"
"AFRBRB9J2ZX1D","cs_wg_mon_conf_time_pilot2","3STRJBFXOWSAQYD8O5H9M77DNB7TKW","7","0","NOVEMBER","6","FEBRUARY","9","0","821",,,,,"0","2018-10-31 13:29:26","356524"
"A3BKYYHDOA97H9","cs_wg_mon_conf_time_pilot2","32UTUBMZ7GXOAND3NN4VOMC8X2FVBV","15","0","MARCH","5","FEBRUARY","9","1","2216",,,,,"1","2018-10-31 13:29:26","356525"
"A98P6ZBAHA4C5","cs_wg_mon_conf_time_pilot2","3LEP4MGT3G12G6DHW241I061XVBDBE","25","0","SEPTEMBER","10","AUGUST","12","1","2756",,,,,"1","2018-10-31 13:29:27","356526"
"A1PH1I9F2AA3TZ","cs_wg_mon_conf_time_pilot2","3SBEHTYCWN4F1PMEY8JWH8KFA90YIF","101","0","SEPTEMBER","12","AUGUST","1","0","757",,,,,"0","2018-10-31 13:29:28","356527"
"ALG64VSMILMDT","cs_wg_mon_conf_time_pilot2","3VZLGYJEYLBCWALETGLGYPGW4G8ZX7","37","0","NOVEMBER","10","DECEMBER","7","1","2109",,,,,"0","2018-10-31 13:29:29","356528"
"AFRBRB9J2ZX1D","cs_wg_mon_conf_time_pilot2","3STRJBFXOWSAQYD8O5H9M77DNB7TKW","8","0","OCTOBER","3","DECEMBER","5","0","571",,,,,"0","2018-10-31 13:29:29","356529"
"A2B01MEFSL5R97","cs_wg_mon_conf_time_pilot2","30H4UDGLT2J7OUK4S0L5WAYKNDIMPQ","51","0","JANUARY","9","AUGUST","2","0","2484",,,,,"0","2018-10-31 13:29:30","356530"
"AU7UAH7YK73YS","cs_wg_mon_conf_time_pilot2","3A1COHJ8NJW0QOKCFM3HIJVYHIKH8V","15","0","MAY","8","JULY","4","0","6201",,,,,"1","2018-10-31 13:29:31","356531"
"A7LGXWVP67WG","cs_wg_mon_conf_time_pilot2","3YMTUJH0DSHPCWO53DUTFQIHQPI4TI","21","0","MARCH","12","AUGUST","10","0","4638",,,,,"1","2018-10-31 13:29:31","356532"
"A98P6ZBAHA4C5","cs_wg_mon_conf_time_pilot2","3LEP4MGT3G12G6DHW241I061XVBDBE","26","0","DECEMBER","7","SEPTEMBER","10","1","2603",,,,,"1","2018-10-31 13:29:31","356533"
"A3BKYYHDOA97H9","cs_wg_mon_conf_time_pilot2","32UTUBMZ7GXOAND3NN4VOMC8X2FVBV","16","0","DECEMBER","11","JUNE","12","1","2908",,,,,"1","2018-10-31 13:29:32","356534"
"A1PH1I9F2AA3TZ","cs_wg_mon_conf_time_pilot2","3SBEHTYCWN4F1PMEY8JWH8KFA90YIF","102","0","APRIL","9","MAY","11","1","2317",,,,,"0","2018-10-31 13:29:33","356535"
"A2ZX1P3T4KK683","cs_wg_mon_conf_time_pilot2","3HFNH7HEMHFSWWPXHA2ZJA4XWNSQGD","16","0","JANUARY","5","MAY","3","0","4648",,,,,"1","2018-10-31 13:29:33","356536"
"A3629S0CJZO6P0","cs_wg_mon_conf_time_pilot2","3QIYRE09Y3IAPKM2JZPF8T5MPON1N4","22","0","MAY","4","APRIL","5","1","6112",,,,,"0","2018-10-31 13:29:34","356537"
"ALG64VSMILMDT","cs_wg_mon_conf_time_pilot2","3VZLGYJEYLBCWALETGLGYPGW4G8ZX7","38","0","OCTOBER","12","MAY","11","1","2559",,,,,"0","2018-10-31 13:29:34","356538"
"A2B01MEFSL5R97","cs_wg_mon_conf_time_pilot2","30H4UDGLT2J7OUK4S0L5WAYKNDIMPQ","52","0","JUNE","6","OCTOBER","5","0","2479",,,,,"0","2018-10-31 13:29:34","356539"
"AFRBRB9J2ZX1D","cs_wg_mon_conf_time_pilot2","3STRJBFXOWSAQYD8O5H9M77DNB7TKW","9","0","APRIL","8","JUNE","4","1","605",,,,,"0","2018-10-31 13:29:35","356540"
"A98P6ZBAHA4C5","cs_wg_mon_conf_time_pilot2","3LEP4MGT3G12G6DHW241I061XVBDBE","27","0","MAY","1","DECEMBER","7","1","2581",,,,,"1","2018-10-31 13:29:36","356541"
"AU7UAH7YK73YS","cs_wg_mon_conf_time_pilot2","3A1COHJ8NJW0QOKCFM3HIJVYHIKH8V","16","0","MARCH","9","JULY","4","0","4086",,,,,"1","2018-10-31 13:29:37","356542"
"A2B01MEFSL5R97","cs_wg_mon_conf_time_pilot2","30H4UDGLT2J7OUK4S0L5WAYKNDIMPQ","53","0","JUNE","6","MAY","12","1","853",,,,,"0","2018-10-31 13:29:37","356543"
"A1PH1I9F2AA3TZ","cs_wg_mon_conf_time_pilot2","3SBEHTYCWN4F1PMEY8JWH8KFA90YIF","103","0","JUNE","5","FEBRUARY","4","1","1858",,,,,"0","2018-10-31 13:29:37","356544"
"A3BKYYHDOA97H9","cs_wg_mon_conf_time_pilot2","32UTUBMZ7GXOAND3NN4VOMC8X2FVBV","17","0","MARCH","5","AUGUST","10","1","2870",,,,,"1","2018-10-31 13:29:37","356545"
"AFRBRB9J2ZX1D","cs_wg_mon_conf_time_pilot2","3STRJBFXOWSAQYD8O5H9M77DNB7TKW","10","0","JUNE","4","OCTOBER","3","0","760",,,,,"0","2018-10-31 13:29:39","356546"
"ALG64VSMILMDT","cs_wg_mon_conf_time_pilot2","3VZLGYJEYLBCWALETGLGYPGW4G8ZX7","39","0","AUGUST","5","MARCH","4","0","3069",,,,,"0","2018-10-31 13:29:39","356547"
"A1PH1I9F2AA3TZ","cs_wg_mon_conf_time_pilot2","3SBEHTYCWN4F1PMEY8JWH8KFA90YIF","104","0","MAY","11","JULY","6","0","582",,,,,"0","2018-10-31 13:29:40","356548"
"A98P6ZBAHA4C5","cs_wg_mon_conf_time_pilot2","3LEP4MGT3G12G6DHW241I061XVBDBE","28","0","MARCH","5","JUNE","6","1","2322",,,,,"1","2018-10-31 13:29:40","356549"
"A7LGXWVP67WG","cs_wg_mon_conf_time_pilot2","3YMTUJH0DSHPCWO53DUTFQIHQPI4TI","22","0","MAY","6","SEPTEMBER","5","0","6417",,,,,"1","2018-10-31 13:29:40","356550"
"A2B01MEFSL5R97","cs_wg_mon_conf_time_pilot2","30H4UDGLT2J7OUK4S0L5WAYKNDIMPQ","54","0","APRIL","7","JULY","10","1","2742",,,,,"0","2018-10-31 13:29:41","356551"
"A2ZX1P3T4KK683","cs_wg_mon_conf_time_pilot2","3HFNH7HEMHFSWWPXHA2ZJA4XWNSQGD","17","0","FEBRUARY","7","MAY","3","0","4392",,,,,"1","2018-10-31 13:29:41","356552"
"A3629S0CJZO6P0","cs_wg_mon_conf_time_pilot2","3QIYRE09Y3IAPKM2JZPF8T5MPON1N4","23","0","AUGUST","2","SEPTEMBER","7","1","5709",,,,,"0","2018-10-31 13:29:42","356553"
"AFRBRB9J2ZX1D","cs_wg_mon_conf_time_pilot2","3STRJBFXOWSAQYD8O5H9M77DNB7TKW","11","0","DECEMBER","5","JUNE","4","0","699",,,,,"0","2018-10-31 13:29:42","356554"
"ALG64VSMILMDT","cs_wg_mon_conf_time_pilot2","3VZLGYJEYLBCWALETGLGYPGW4G8ZX7","40","0","JULY","8","OCTOBER","12","0","1739",,,,,"0","2018-10-31 13:29:42","356555"
"A3BKYYHDOA97H9","cs_wg_mon_conf_time_pilot2","32UTUBMZ7GXOAND3NN4VOMC8X2FVBV","18","0","JANUARY","6","JUNE","12","1","3014",,,,,"1","2018-10-31 13:29:43","356556"
"AU7UAH7YK73YS","cs_wg_mon_conf_time_pilot2","3A1COHJ8NJW0QOKCFM3HIJVYHIKH8V","17","0","APRIL","3","OCTOBER","5","1","4861",,,,,"1","2018-10-31 13:29:43","356557"
"A1PH1I9F2AA3TZ","cs_wg_mon_conf_time_pilot2","3SBEHTYCWN4F1PMEY8JWH8KFA90YIF","105","0","APRIL","9","DECEMBER","2","0","740",,,,,"0","2018-10-31 13:29:43","356558"
"AFRBRB9J2ZX1D","cs_wg_mon_conf_time_pilot2","3STRJBFXOWSAQYD8O5H9M77DNB7TKW","12","0","JUNE","4","NOVEMBER","6","0","543",,,,,"0","2018-10-31 13:29:45","356559"
"A98P6ZBAHA4C5","cs_wg_mon_conf_time_pilot2","3LEP4MGT3G12G6DHW241I061XVBDBE","29","0","AUGUST","12","SEPTEMBER","10","0","3068",,,,,"1","2018-10-31 13:29:45","356560"
"A2B01MEFSL5R97","cs_wg_mon_conf_time_pilot2","30H4UDGLT2J7OUK4S0L5WAYKNDIMPQ","55","0","AUGUST","2","SEPTEMBER","8","1","2119",,,,,"0","2018-10-31 13:29:45","356561"
"ALG64VSMILMDT","cs_wg_mon_conf_time_pilot2","3VZLGYJEYLBCWALETGLGYPGW4G8ZX7","41","0","MAY","11","AUGUST","5","0","1510",,,,,"0","2018-10-31 13:29:46","356562"
"A1PH1I9F2AA3TZ","cs_wg_mon_conf_time_pilot2","3SBEHTYCWN4F1PMEY8JWH8KFA90YIF","106","0","NOVEMBER","8","JUNE","5","1","1385",,,,,"0","2018-10-31 13:29:47","356563"
"A2B01MEFSL5R97","cs_wg_mon_conf_time_pilot2","30H4UDGLT2J7OUK4S0L5WAYKNDIMPQ","56","0","FEBRUARY","3","JULY","10","1","948",,,,,"0","2018-10-31 13:29:47","356564"
"A3BKYYHDOA97H9","cs_wg_mon_conf_time_pilot2","32UTUBMZ7GXOAND3NN4VOMC8X2FVBV","19","0","MAY","7","SEPTEMBER","4","0","2920",,,,,"1","2018-10-31 13:29:48","356565"
"A3629S0CJZO6P0","cs_wg_mon_conf_time_pilot2","3QIYRE09Y3IAPKM2JZPF8T5MPON1N4","24","0","NOVEMBER","8","MAY","4","0","4446",,,,,"0","2018-10-31 13:29:48","356566"
"AFRBRB9J2ZX1D","cs_wg_mon_conf_time_pilot2","3STRJBFXOWSAQYD8O5H9M77DNB7TKW","13","0","JANUARY","10","JUNE","4","0","818",,,,,"0","2018-10-31 13:29:48","356567"
"A2ZX1P3T4KK683","cs_wg_mon_conf_time_pilot2","3HFNH7HEMHFSWWPXHA2ZJA4XWNSQGD","18","0","JANUARY","5","OCTOBER","9","1","3337",,,,,"1","2018-10-31 13:29:49","356568"
"A98P6ZBAHA4C5","cs_wg_mon_conf_time_pilot2","3LEP4MGT3G12G6DHW241I061XVBDBE","30","0","OCTOBER","4","JULY","9","1","2010",,,,,"1","2018-10-31 13:29:49","356569"
"A7LGXWVP67WG","cs_wg_mon_conf_time_pilot2","3YMTUJH0DSHPCWO53DUTFQIHQPI4TI","23","0","AUGUST","10","DECEMBER","4","0","6780",,,,,"1","2018-10-31 13:29:49","356570"
"A2B01MEFSL5R97","cs_wg_mon_conf_time_pilot2","30H4UDGLT2J7OUK4S0L5WAYKNDIMPQ","57","0","JULY","10","SEPTEMBER","8","0","718",,,,,"0","2018-10-31 13:29:50","356571"
"A1PH1I9F2AA3TZ","cs_wg_mon_conf_time_pilot2","3SBEHTYCWN4F1PMEY8JWH8KFA90YIF","107","0","AUGUST","1","JULY","6","1","1418",,,,,"0","2018-10-31 13:29:51","356572"
"AU7UAH7YK73YS","cs_wg_mon_conf_time_pilot2","3A1COHJ8NJW0QOKCFM3HIJVYHIKH8V","18","0","JULY","4","MARCH","9","1","5499",,,,,"1","2018-10-31 13:29:51","356573"
"AFRBRB9J2ZX1D","cs_wg_mon_conf_time_pilot2","3STRJBFXOWSAQYD8O5H9M77DNB7TKW","14","0","JULY","1","JANUARY","10","0","1344",,,,,"0","2018-10-31 13:29:52","356574"
"A98P6ZBAHA4C5","cs_wg_mon_conf_time_pilot2","3LEP4MGT3G12G6DHW241I061XVBDBE","31","0","AUGUST","12","APRIL","3","0","2387",,,,,"1","2018-10-31 13:29:53","356575"
"A2B01MEFSL5R97","cs_wg_mon_conf_time_pilot2","30H4UDGLT2J7OUK4S0L5WAYKNDIMPQ","58","0","NOVEMBER","4","JANUARY","9","0","1502",,,,,"0","2018-10-31 13:29:53","356576"
"A3BKYYHDOA97H9","cs_wg_mon_conf_time_pilot2","32UTUBMZ7GXOAND3NN4VOMC8X2FVBV","20","0","OCTOBER","8","AUGUST","10","1","2372",,,,,"1","2018-10-31 13:29:53","356577"
"ALG64VSMILMDT","cs_wg_mon_conf_time_pilot2","3VZLGYJEYLBCWALETGLGYPGW4G8ZX7","42","0","AUGUST","5","MAY","11","1","6383",,,,,"1","2018-10-31 13:29:54","356578"
"A1PH1I9F2AA3TZ","cs_wg_mon_conf_time_pilot2","3SBEHTYCWN4F1PMEY8JWH8KFA90YIF","108","0","FEBRUARY","4","DECEMBER","2","0","1748",,,,,"0","2018-10-31 13:29:55","356579"
"A3629S0CJZO6P0","cs_wg_mon_conf_time_pilot2","3QIYRE09Y3IAPKM2JZPF8T5MPON1N4","25","0","JULY","10","JUNE","1","0","4744",,,,,"0","2018-10-31 13:29:55","356580"
"A2ZX1P3T4KK683","cs_wg_mon_conf_time_pilot2","3HFNH7HEMHFSWWPXHA2ZJA4XWNSQGD","19","0","SEPTEMBER","1","FEBRUARY","7","1","4126",,,,,"1","2018-10-31 13:29:56","356581"
"AFRBRB9J2ZX1D","cs_wg_mon_conf_time_pilot2","3STRJBFXOWSAQYD8O5H9M77DNB7TKW","15","0","MARCH","11","JULY","1","0","454",,,,,"0","2018-10-31 13:29:56","356582"
"A98P6ZBAHA4C5","cs_wg_mon_conf_time_pilot2","3LEP4MGT3G12G6DHW241I061XVBDBE","32","0","JULY","9","APRIL","3","0","1678",,,,,"1","2018-10-31 13:29:56","356583"
"AU7UAH7YK73YS","cs_wg_mon_conf_time_pilot2","3A1COHJ8NJW0QOKCFM3HIJVYHIKH8V","19","0","OCTOBER","5","JULY","4","0","3963",,,,,"1","2018-10-31 13:29:56","356584"
"A2B01MEFSL5R97","cs_wg_mon_conf_time_pilot2","30H4UDGLT2J7OUK4S0L5WAYKNDIMPQ","59","0","SEPTEMBER","8","OCTOBER","5","0","2006",,,,,"0","2018-10-31 13:29:57","356585"
"A2B01MEFSL5R97","cs_wg_mon_conf_time_pilot2","30H4UDGLT2J7OUK4S0L5WAYKNDIMPQ","60","0","AUGUST","2","MAY","12","1","718",,,,,"0","2018-10-31 13:29:59","356586"
"A7LGXWVP67WG","cs_wg_mon_conf_time_pilot2","3YMTUJH0DSHPCWO53DUTFQIHQPI4TI","24","0","NOVEMBER","2","SEPTEMBER","5","1","7032",,,,,"1","2018-10-31 13:29:59","356587"
"AFRBRB9J2ZX1D","cs_wg_mon_conf_time_pilot2","3STRJBFXOWSAQYD8O5H9M77DNB7TKW","16","0","DECEMBER","5","AUGUST","12","0","559",,,,,"0","2018-10-31 13:29:59","356588"
"ALG64VSMILMDT","cs_wg_mon_conf_time_pilot2","3VZLGYJEYLBCWALETGLGYPGW4G8ZX7","43","0","JULY","8","MARCH","4","0","3765",,,,,"1","2018-10-31 13:30:00","356589"
"A3629S0CJZO6P0","cs_wg_mon_conf_time_pilot2","3QIYRE09Y3IAPKM2JZPF8T5MPON1N4","26","0","FEBRUARY","3","OCTOBER","9","1","2450",,,,,"0","2018-10-31 13:30:00","356590"
"A3BKYYHDOA97H9","cs_wg_mon_conf_time_pilot2","32UTUBMZ7GXOAND3NN4VOMC8X2FVBV","21","0","JUNE","12","JULY","1","0","3551",,,,,"1","2018-10-31 13:30:00","356591"
"A98P6ZBAHA4C5","cs_wg_mon_conf_time_pilot2","3LEP4MGT3G12G6DHW241I061XVBDBE","33","0","MAY","1","SEPTEMBER","10","1","1930",,,,,"1","2018-10-31 13:30:00","356592"
"A1PH1I9F2AA3TZ","cs_wg_mon_conf_time_pilot2","3SBEHTYCWN4F1PMEY8JWH8KFA90YIF","109","0","JULY","6","OCTOBER","3","0","4045",,,,,"0","2018-10-31 13:30:01","356593"
"AFRBRB9J2ZX1D","cs_wg_mon_conf_time_pilot2","3STRJBFXOWSAQYD8O5H9M77DNB7TKW","17","0","DECEMBER","5","APRIL","8","0","505",,,,,"0","2018-10-31 13:30:02","356594"
"AU7UAH7YK73YS","cs_wg_mon_conf_time_pilot2","3A1COHJ8NJW0QOKCFM3HIJVYHIKH8V","20","0","OCTOBER","5","NOVEMBER","7","1","3838",,,,,"1","2018-10-31 13:30:02","356595"
"A2B01MEFSL5R97","cs_wg_mon_conf_time_pilot2","30H4UDGLT2J7OUK4S0L5WAYKNDIMPQ","61","0","APRIL","7","NOVEMBER","4","0","1589",,,,,"0","2018-10-31 13:30:02","356596"
"A2ZX1P3T4KK683","cs_wg_mon_conf_time_pilot2","3HFNH7HEMHFSWWPXHA2ZJA4XWNSQGD","20","0","JUNE","12","DECEMBER","11","0","4570",,,,,"1","2018-10-31 13:30:03","356597"
"A1PH1I9F2AA3TZ","cs_wg_mon_conf_time_pilot2","3SBEHTYCWN4F1PMEY8JWH8KFA90YIF","110","0","SEPTEMBER","12","MAY","11","0","1426",,,,,"0","2018-10-31 13:30:04","356598"
"A98P6ZBAHA4C5","cs_wg_mon_conf_time_pilot2","3LEP4MGT3G12G6DHW241I061XVBDBE","34","0","JANUARY","11","FEBRUARY","8","0","2635",,,,,"1","2018-10-31 13:30:05","356599"
"A3629S0CJZO6P0","cs_wg_mon_conf_time_pilot2","3QIYRE09Y3IAPKM2JZPF8T5MPON1N4","27","0","MARCH","6","JULY","10","1","3107",,,,,"0","2018-10-31 13:30:05","356600"
"AFRBRB9J2ZX1D","cs_wg_mon_conf_time_pilot2","3STRJBFXOWSAQYD8O5H9M77DNB7TKW","18","0","OCTOBER","3","JULY","1","0","849",,,,,"0","2018-10-31 13:30:05","356601"
"A2B01MEFSL5R97","cs_wg_mon_conf_time_pilot2","30H4UDGLT2J7OUK4S0L5WAYKNDIMPQ","62","0","JANUARY","9","DECEMBER","1","0","1119",,,,,"0","2018-10-31 13:30:05","356602"
"ALG64VSMILMDT","cs_wg_mon_conf_time_pilot2","3VZLGYJEYLBCWALETGLGYPGW4G8ZX7","44","0","DECEMBER","7","APRIL","9","0","3855",,,,,"0","2018-10-31 13:30:05","356603"
"A3BKYYHDOA97H9","cs_wg_mon_conf_time_pilot2","32UTUBMZ7GXOAND3NN4VOMC8X2FVBV","22","0","JUNE","12","AUGUST","10","0","2695",,,,,"1","2018-10-31 13:30:05","356604"
"A7LGXWVP67WG","cs_wg_mon_conf_time_pilot2","3YMTUJH0DSHPCWO53DUTFQIHQPI4TI","25","0","JUNE","7","FEBRUARY","11","1","3982",,,,,"1","2018-10-31 13:30:07","356605"
"AFRBRB9J2ZX1D","cs_wg_mon_conf_time_pilot2","3STRJBFXOWSAQYD8O5H9M77DNB7TKW","19","0","APRIL","8","SEPTEMBER","2","0","673",,,,,"0","2018-10-31 13:30:07","356606"
"A2B01MEFSL5R97","cs_wg_mon_conf_time_pilot2","30H4UDGLT2J7OUK4S0L5WAYKNDIMPQ","63","0","AUGUST","2","JUNE","6","1","1111",,,,,"0","2018-10-31 13:30:08","356607"
"A98P6ZBAHA4C5","cs_wg_mon_conf_time_pilot2","3LEP4MGT3G12G6DHW241I061XVBDBE","35","0","OCTOBER","4","APRIL","3","0","1928",,,,,"1","2018-10-31 13:30:08","356608"
"ALG64VSMILMDT","cs_wg_mon_conf_time_pilot2","3VZLGYJEYLBCWALETGLGYPGW4G8ZX7","45","0","MAY","11","APRIL","9","0","1446",,,,,"0","2018-10-31 13:30:08","356609"
"AU7UAH7YK73YS","cs_wg_mon_conf_time_pilot2","3A1COHJ8NJW0QOKCFM3HIJVYHIKH8V","21","0","AUGUST","10","MARCH","9","0","4403",,,,,"1","2018-10-31 13:30:08","356610"
"A1PH1I9F2AA3TZ","cs_wg_mon_conf_time_pilot2","3SBEHTYCWN4F1PMEY8JWH8KFA90YIF","111","0","MARCH","10","NOVEMBER","8","1","1689",,,,,"0","2018-10-31 13:30:08","356611"
"AW2XWG1NUYMR5","cs_wg_mon_conf_time_pilot2","3D3VGR7TA0GRELS9ZAKF56PTO5R3RN","0","0","SEPTEMBER","12","JULY","2","0","3858",,,,,"0","2018-10-31 13:30:09","356612"
"A3629S0CJZO6P0","cs_wg_mon_conf_time_pilot2","3QIYRE09Y3IAPKM2JZPF8T5MPON1N4","28","0","DECEMBER","12","FEBRUARY","3","0","1842",,,,,"0","2018-10-31 13:30:09","356613"
"A2ZX1P3T4KK683","cs_wg_mon_conf_time_pilot2","3HFNH7HEMHFSWWPXHA2ZJA4XWNSQGD","21","0","JULY","4","MARCH","6","1","3571",,,,,"1","2018-10-31 13:30:10","356614"
"AFRBRB9J2ZX1D","cs_wg_mon_conf_time_pilot2","3STRJBFXOWSAQYD8O5H9M77DNB7TKW","20","0","SEPTEMBER","2","DECEMBER","5","1","1330",,,,,"0","2018-10-31 13:30:10","356615"
"A2B01MEFSL5R97","cs_wg_mon_conf_time_pilot2","30H4UDGLT2J7OUK4S0L5WAYKNDIMPQ","64","0","DECEMBER","1","JULY","10","1","799",,,,,"0","2018-10-31 13:30:10","356616"
"A98P6ZBAHA4C5","cs_wg_mon_conf_time_pilot2","3LEP4MGT3G12G6DHW241I061XVBDBE","36","0","APRIL","3","JUNE","6","1","2044",,,,,"1","2018-10-31 13:30:12","356617"
"ALG64VSMILMDT","cs_wg_mon_conf_time_pilot2","3VZLGYJEYLBCWALETGLGYPGW4G8ZX7","46","0","JULY","8","MAY","11","1","2045",,,,,"0","2018-10-31 13:30:12","356618"
"A1PH1I9F2AA3TZ","cs_wg_mon_conf_time_pilot2","3SBEHTYCWN4F1PMEY8JWH8KFA90YIF","112","0","MARCH","10","DECEMBER","2","0","1910",,,,,"0","2018-10-31 13:30:12","356619"
"A2B01MEFSL5R97","cs_wg_mon_conf_time_pilot2","30H4UDGLT2J7OUK4S0L5WAYKNDIMPQ","65","0","AUGUST","2","DECEMBER","1","0","790",,,,,"0","2018-10-31 13:30:13","356620"
"A7LGXWVP67WG","cs_wg_mon_conf_time_pilot2","3YMTUJH0DSHPCWO53DUTFQIHQPI4TI","26","0","JUNE","7","MARCH","12","1","3672",,,,,"1","2018-10-31 13:30:13","356621"
"AW2XWG1NUYMR5","cs_wg_mon_conf_time_pilot2","3D3VGR7TA0GRELS9ZAKF56PTO5R3RN","1","0","JUNE","3","SEPTEMBER","12","1","2905",,,,,"0","2018-10-31 13:30:14","356622"
"A3629S0CJZO6P0","cs_wg_mon_conf_time_pilot2","3QIYRE09Y3IAPKM2JZPF8T5MPON1N4","29","0","FEBRUARY","3","SEPTEMBER","7","0","3866",,,,,"0","2018-10-31 13:30:15","356623"
"AFRBRB9J2ZX1D","cs_wg_mon_conf_time_pilot2","3STRJBFXOWSAQYD8O5H9M77DNB7TKW","21","0","SEPTEMBER","2","FEBRUARY","9","1","1683",,,,,"0","2018-10-31 13:30:15","356624"
"ALG64VSMILMDT","cs_wg_mon_conf_time_pilot2","3VZLGYJEYLBCWALETGLGYPGW4G8ZX7","47","0","SEPTEMBER","6","OCTOBER","12","1","1349",,,,,"0","2018-10-31 13:30:15","356625"
"A1PH1I9F2AA3TZ","cs_wg_mon_conf_time_pilot2","3SBEHTYCWN4F1PMEY8JWH8KFA90YIF","113","0","JUNE","5","SEPTEMBER","12","1","1290",,,,,"0","2018-10-31 13:30:16","356626"
"A98P6ZBAHA4C5","cs_wg_mon_conf_time_pilot2","3LEP4MGT3G12G6DHW241I061XVBDBE","37","0","JUNE","6","SEPTEMBER","10","1","1805",,,,,"1","2018-10-31 13:30:16","356627"
"A2B01MEFSL5R97","cs_wg_mon_conf_time_pilot2","30H4UDGLT2J7OUK4S0L5WAYKNDIMPQ","66","0","SEPTEMBER","8","MARCH","11","0","2205",,,,,"0","2018-10-31 13:30:17","356628"
"A2ZX1P3T4KK683","cs_wg_mon_conf_time_pilot2","3HFNH7HEMHFSWWPXHA2ZJA4XWNSQGD","22","0","SEPTEMBER","1","OCTOBER","9","1","4736",,,,,"1","2018-10-31 13:30:17","356629"
"AW2XWG1NUYMR5","cs_wg_mon_conf_time_pilot2","3D3VGR7TA0GRELS9ZAKF56PTO5R3RN","2","0","DECEMBER","9","MAY","1","0","1473",,,,,"0","2018-10-31 13:30:17","356630"
"AU7UAH7YK73YS","cs_wg_mon_conf_time_pilot2","3A1COHJ8NJW0QOKCFM3HIJVYHIKH8V","22","0","MARCH","9","AUGUST","10","1","7284",,,,,"1","2018-10-31 13:30:18","356631"
"A3BKYYHDOA97H9","cs_wg_mon_conf_time_pilot2","32UTUBMZ7GXOAND3NN4VOMC8X2FVBV","23","0","MARCH","5","MAY","7","1","3045",,,,,"1","2018-10-31 13:30:18","356632"
"ALG64VSMILMDT","cs_wg_mon_conf_time_pilot2","3VZLGYJEYLBCWALETGLGYPGW4G8ZX7","48","0","NOVEMBER","10","JANUARY","1","0","1558",,,,,"0","2018-10-31 13:30:18","356633"
"A1PH1I9F2AA3TZ","cs_wg_mon_conf_time_pilot2","3SBEHTYCWN4F1PMEY8JWH8KFA90YIF","114","0","MAY","11","MARCH","10","0","1385",,,,,"0","2018-10-31 13:30:19","356634"
"A98P6ZBAHA4C5","cs_wg_mon_conf_time_pilot2","3LEP4MGT3G12G6DHW241I061XVBDBE","38","0","JULY","9","FEBRUARY","8","0","1779",,,,,"1","2018-10-31 13:30:19","356635"
"A7LGXWVP67WG","cs_wg_mon_conf_time_pilot2","3YMTUJH0DSHPCWO53DUTFQIHQPI4TI","27","0","JULY","3","DECEMBER","4","1","3640",,,,,"1","2018-10-31 13:30:19","356636"
"A2B01MEFSL5R97","cs_wg_mon_conf_time_pilot2","30H4UDGLT2J7OUK4S0L5WAYKNDIMPQ","67","0","JANUARY","9","NOVEMBER","4","0","1919",,,,,"0","2018-10-31 13:30:20","356637"
"ALG64VSMILMDT","cs_wg_mon_conf_time_pilot2","3VZLGYJEYLBCWALETGLGYPGW4G8ZX7","49","0","APRIL","9","SEPTEMBER","6","0","1950",,,,,"0","2018-10-31 13:30:22","356638"
"A98P6ZBAHA4C5","cs_wg_mon_conf_time_pilot2","3LEP4MGT3G12G6DHW241I061XVBDBE","39","0","SEPTEMBER","10","JUNE","6","0","1595",,,,,"1","2018-10-31 13:30:23","356639"
"AW2XWG1NUYMR5","cs_wg_mon_conf_time_pilot2","3D3VGR7TA0GRELS9ZAKF56PTO5R3RN","3","0","SEPTEMBER","12","DECEMBER","9","1","1293",,,,,"0","2018-10-31 13:30:23","356640"
"A3629S0CJZO6P0","cs_wg_mon_conf_time_pilot2","3QIYRE09Y3IAPKM2JZPF8T5MPON1N4","30","0","APRIL","5","JUNE","1","0","6670",,,,,"0","2018-10-31 13:30:24","356641"
"A1PH1I9F2AA3TZ","cs_wg_mon_conf_time_pilot2","3SBEHTYCWN4F1PMEY8JWH8KFA90YIF","115","0","OCTOBER","3","APRIL","9","1","2004",,,,,"0","2018-10-31 13:30:24","356642"
"AU7UAH7YK73YS","cs_wg_mon_conf_time_pilot2","3A1COHJ8NJW0QOKCFM3HIJVYHIKH8V","23","0","NOVEMBER","7","MARCH","9","1","4359",,,,,"1","2018-10-31 13:30:24","356643"
"A3BKYYHDOA97H9","cs_wg_mon_conf_time_pilot2","32UTUBMZ7GXOAND3NN4VOMC8X2FVBV","24","0","NOVEMBER","2","OCTOBER","8","1","4079",,,,,"1","2018-10-31 13:30:24","356644"
"A2ZX1P3T4KK683","cs_wg_mon_conf_time_pilot2","3HFNH7HEMHFSWWPXHA2ZJA4XWNSQGD","23","0","DECEMBER","11","SEPTEMBER","1","0","3549",,,,,"1","2018-10-31 13:30:24","356645"
"A2B01MEFSL5R97","cs_wg_mon_conf_time_pilot2","30H4UDGLT2J7OUK4S0L5WAYKNDIMPQ","68","0","OCTOBER","5","MAY","12","1","1902",,,,,"0","2018-10-31 13:30:25","356646"
"AFRBRB9J2ZX1D","cs_wg_mon_conf_time_pilot2","3STRJBFXOWSAQYD8O5H9M77DNB7TKW","22","0","JUNE","4","SEPTEMBER","2","0","2844",,,,,"0","2018-10-31 13:30:25","356647"
"ALG64VSMILMDT","cs_wg_mon_conf_time_pilot2","3VZLGYJEYLBCWALETGLGYPGW4G8ZX7","50","0","OCTOBER","12","DECEMBER","7","0","2614",,,,,"0","2018-10-31 13:30:26","356648"
"A98P6ZBAHA4C5","cs_wg_mon_conf_time_pilot2","3LEP4MGT3G12G6DHW241I061XVBDBE","40","0","MAY","1","JANUARY","11","1","1803",,,,,"1","2018-10-31 13:30:27","356649"
"A7LGXWVP67WG","cs_wg_mon_conf_time_pilot2","3YMTUJH0DSHPCWO53DUTFQIHQPI4TI","28","0","MAY","6","AUGUST","10","1","4390",,,,,"1","2018-10-31 13:30:27","356650"
"AW2XWG1NUYMR5","cs_wg_mon_conf_time_pilot2","3D3VGR7TA0GRELS9ZAKF56PTO5R3RN","4","0","OCTOBER","7","JANUARY","11","0","2217",,,,,"0","2018-10-31 13:30:28","356651"
"A1PH1I9F2AA3TZ","cs_wg_mon_conf_time_pilot2","3SBEHTYCWN4F1PMEY8JWH8KFA90YIF","116","0","APRIL","9","JANUARY","7","0","1705",,,,,"0","2018-10-31 13:30:28","356652"
"AFRBRB9J2ZX1D","cs_wg_mon_conf_time_pilot2","3STRJBFXOWSAQYD8O5H9M77DNB7TKW","23","0","JANUARY","10","MARCH","11","0","548",,,,,"0","2018-10-31 13:30:28","356653"
"A2B01MEFSL5R97","cs_wg_mon_conf_time_pilot2","30H4UDGLT2J7OUK4S0L5WAYKNDIMPQ","69","0","SEPTEMBER","8","DECEMBER","1","0","1575",,,,,"0","2018-10-31 13:30:28","356654"
"AU7UAH7YK73YS","cs_wg_mon_conf_time_pilot2","3A1COHJ8NJW0QOKCFM3HIJVYHIKH8V","24","0","JUNE","6","MARCH","9","1","2714",,,,,"1","2018-10-31 13:30:29","356655"
"ALG64VSMILMDT","cs_wg_mon_conf_time_pilot2","3VZLGYJEYLBCWALETGLGYPGW4G8ZX7","51","0","OCTOBER","12","APRIL","9","0","2045",,,,,"0","2018-10-31 13:30:30","356656"
"AFRBRB9J2ZX1D","cs_wg_mon_conf_time_pilot2","3STRJBFXOWSAQYD8O5H9M77DNB7TKW","24","0","JUNE","4","JULY","1","0","420",,,,,"0","2018-10-31 13:30:30","356657"
"A2B01MEFSL5R97","cs_wg_mon_conf_time_pilot2","30H4UDGLT2J7OUK4S0L5WAYKNDIMPQ","70","0","DECEMBER","1","FEBRUARY","3","1","1056",,,,,"0","2018-10-31 13:30:31","356658"
"A3BKYYHDOA97H9","cs_wg_mon_conf_time_pilot2","32UTUBMZ7GXOAND3NN4VOMC8X2FVBV","25","0","JULY","1","SEPTEMBER","4","1","3329",,,,,"1","2018-10-31 13:30:31","356659"
"A98P6ZBAHA4C5","cs_wg_mon_conf_time_pilot2","3LEP4MGT3G12G6DHW241I061XVBDBE","41","0","FEBRUARY","8","JULY","9","1","1917",,,,,"1","2018-10-31 13:30:31","356660"
"A1PH1I9F2AA3TZ","cs_wg_mon_conf_time_pilot2","3SBEHTYCWN4F1PMEY8JWH8KFA90YIF","117","0","JULY","6","MARCH","10","1","1753",,,,,"0","2018-10-31 13:30:32","356661"
"AW2XWG1NUYMR5","cs_wg_mon_conf_time_pilot2","3D3VGR7TA0GRELS9ZAKF56PTO5R3RN","5","0","JUNE","3","AUGUST","6","1","2277",,,,,"0","2018-10-31 13:30:32","356662"
"A2ZX1P3T4KK683","cs_wg_mon_conf_time_pilot2","3HFNH7HEMHFSWWPXHA2ZJA4XWNSQGD","24","0","NOVEMBER","10","JUNE","12","1","4528",,,,,"1","2018-10-31 13:30:33","356663"
"A2B01MEFSL5R97","cs_wg_mon_conf_time_pilot2","30H4UDGLT2J7OUK4S0L5WAYKNDIMPQ","71","0","FEBRUARY","3","JUNE","6","1","893",,,,,"0","2018-10-31 13:30:33","356664"
"ALG64VSMILMDT","cs_wg_mon_conf_time_pilot2","3VZLGYJEYLBCWALETGLGYPGW4G8ZX7","52","0","JANUARY","1","AUGUST","5","1","1974",,,,,"0","2018-10-31 13:30:33","356665"
"AFRBRB9J2ZX1D","cs_wg_mon_conf_time_pilot2","3STRJBFXOWSAQYD8O5H9M77DNB7TKW","25","0","FEBRUARY","9","AUGUST","12","1","514",,,,,"0","2018-10-31 13:30:34","356666"
"A98P6ZBAHA4C5","cs_wg_mon_conf_time_pilot2","3LEP4MGT3G12G6DHW241I061XVBDBE","42","0","JUNE","6","AUGUST","12","1","1411",,,,,"1","2018-10-31 13:30:34","356667"
"A1U6TQHL2Y8RCD","cs_wg_mon_conf_time_pilot2","3G5F9DBFOPYY10GPNFERAXF6SFKHVX","0","0","AUGUST","9","JULY","1","0","6671",,,,,"1","2018-10-31 13:30:34","356668"
"A7LGXWVP67WG","cs_wg_mon_conf_time_pilot2","3YMTUJH0DSHPCWO53DUTFQIHQPI4TI","29","0","MARCH","12","DECEMBER","4","0","5197",,,,,"1","2018-10-31 13:30:34","356669"
"A3629S0CJZO6P0","cs_wg_mon_conf_time_pilot2","3QIYRE09Y3IAPKM2JZPF8T5MPON1N4","31","0","JULY","10","OCTOBER","9","0","8526",,,,,"0","2018-10-31 13:30:35","356670"
"AU7UAH7YK73YS","cs_wg_mon_conf_time_pilot2","3A1COHJ8NJW0QOKCFM3HIJVYHIKH8V","25","0","MARCH","9","JUNE","6","0","3517",,,,,"1","2018-10-31 13:30:35","356671"
"A2B01MEFSL5R97","cs_wg_mon_conf_time_pilot2","30H4UDGLT2J7OUK4S0L5WAYKNDIMPQ","72","0","MARCH","11","DECEMBER","1","0","1038",,,,,"0","2018-10-31 13:30:36","356672"
"AW2XWG1NUYMR5","cs_wg_mon_conf_time_pilot2","3D3VGR7TA0GRELS9ZAKF56PTO5R3RN","6","0","FEBRUARY","5","MARCH","4","1","2173",,,,,"0","2018-10-31 13:30:36","356673"
"A1PH1I9F2AA3TZ","cs_wg_mon_conf_time_pilot2","3SBEHTYCWN4F1PMEY8JWH8KFA90YIF","118","0","JANUARY","7","NOVEMBER","8","0","2806",,,,,"0","2018-10-31 13:30:37","356674"
"AFRBRB9J2ZX1D","cs_wg_mon_conf_time_pilot2","3STRJBFXOWSAQYD8O5H9M77DNB7TKW","26","0","FEBRUARY","9","DECEMBER","5","0","417",,,,,"0","2018-10-31 13:30:37","356675"
"A98P6ZBAHA4C5","cs_wg_mon_conf_time_pilot2","3LEP4MGT3G12G6DHW241I061XVBDBE","43","0","OCTOBER","4","MARCH","5","1","1622",,,,,"1","2018-10-31 13:30:38","356676"
"A1WPCMXFU9NH9G","cs_wg_mon_conf_time_pilot2","304SM51WA358IVWZTSZQDZS1YZMSBQ","0","0","SEPTEMBER","2","NOVEMBER","10","1","6813",,,,,"1","2018-10-31 13:30:38","356677"
"ALG64VSMILMDT","cs_wg_mon_conf_time_pilot2","3VZLGYJEYLBCWALETGLGYPGW4G8ZX7","53","0","MARCH","4","JANUARY","1","0","2887",,,,,"0","2018-10-31 13:30:38","356678"
"A3BKYYHDOA97H9","cs_wg_mon_conf_time_pilot2","32UTUBMZ7GXOAND3NN4VOMC8X2FVBV","26","0","JANUARY","6","FEBRUARY","9","1","5227",,,,,"1","2018-10-31 13:30:38","356679"
"A3629S0CJZO6P0","cs_wg_mon_conf_time_pilot2","3QIYRE09Y3IAPKM2JZPF8T5MPON1N4","32","0","NOVEMBER","8","FEBRUARY","3","0","2672",,,,,"0","2018-10-31 13:30:39","356680"
"A2B01MEFSL5R97","cs_wg_mon_conf_time_pilot2","30H4UDGLT2J7OUK4S0L5WAYKNDIMPQ","73","0","JULY","10","JUNE","6","1","2167",,,,,"0","2018-10-31 13:30:40","356681"
"AW2XWG1NUYMR5","cs_wg_mon_conf_time_pilot2","3D3VGR7TA0GRELS9ZAKF56PTO5R3RN","7","0","NOVEMBER","10","SEPTEMBER","12","0","1877",,,,,"0","2018-10-31 13:30:40","356682"
"A1U6TQHL2Y8RCD","cs_wg_mon_conf_time_pilot2","3G5F9DBFOPYY10GPNFERAXF6SFKHVX","1","0","MARCH","5","OCTOBER","7","1","4502",,,,,"1","2018-10-31 13:30:41","356683"
"A1PH1I9F2AA3TZ","cs_wg_mon_conf_time_pilot2","3SBEHTYCWN4F1PMEY8JWH8KFA90YIF","119","0","DECEMBER","2","OCTOBER","3","1","1865",,,,,"0","2018-10-31 13:30:41","356684"
"AFRBRB9J2ZX1D","cs_wg_mon_conf_time_pilot2","3STRJBFXOWSAQYD8O5H9M77DNB7TKW","27","0","MARCH","11","SEPTEMBER","2","1","433",,,,,"0","2018-10-31 13:30:41","356685"
"AU7UAH7YK73YS","cs_wg_mon_conf_time_pilot2","3A1COHJ8NJW0QOKCFM3HIJVYHIKH8V","26","0","JANUARY","1","MAY","8","1","3994",,,,,"1","2018-10-31 13:30:41","356686"
"A7LGXWVP67WG","cs_wg_mon_conf_time_pilot2","3YMTUJH0DSHPCWO53DUTFQIHQPI4TI","30","0","DECEMBER","4","JUNE","7","1","4274",,,,,"1","2018-10-31 13:30:41","356687"
"A2ZX1P3T4KK683","cs_wg_mon_conf_time_pilot2","3HFNH7HEMHFSWWPXHA2ZJA4XWNSQGD","25","0","APRIL","8","OCTOBER","9","1","5351",,,,,"1","2018-10-31 13:30:42","356688"
"ALG64VSMILMDT","cs_wg_mon_conf_time_pilot2","3VZLGYJEYLBCWALETGLGYPGW4G8ZX7","54","0","JANUARY","1","FEBRUARY","2","1","2158",,,,,"0","2018-10-31 13:30:42","356689"
"A2B01MEFSL5R97","cs_wg_mon_conf_time_pilot2","30H4UDGLT2J7OUK4S0L5WAYKNDIMPQ","74","0","MARCH","11","MAY","12","1","776",,,,,"0","2018-10-31 13:30:42","356690"
"A3BKYYHDOA97H9","cs_wg_mon_conf_time_pilot2","32UTUBMZ7GXOAND3NN4VOMC8X2FVBV","27","0","MARCH","5","JULY","1","0","2854",,,,,"1","2018-10-31 13:30:44","356691"
"AFRBRB9J2ZX1D","cs_wg_mon_conf_time_pilot2","3STRJBFXOWSAQYD8O5H9M77DNB7TKW","28","0","JULY","1","MAY","7","0","540",,,,,"0","2018-10-31 13:30:44","356692"
"ALG64VSMILMDT","cs_wg_mon_conf_time_pilot2","3VZLGYJEYLBCWALETGLGYPGW4G8ZX7","55","0","MARCH","4","MAY","11","1","1487",,,,,"0","2018-10-31 13:30:45","356693"
"A1PH1I9F2AA3TZ","cs_wg_mon_conf_time_pilot2","3SBEHTYCWN4F1PMEY8JWH8KFA90YIF","120","0","MARCH","10","JUNE","5","0","2138",,,,,"0","2018-10-31 13:30:45","356694"
"A2B01MEFSL5R97","cs_wg_mon_conf_time_pilot2","30H4UDGLT2J7OUK4S0L5WAYKNDIMPQ","75","0","JULY","10","AUGUST","2","0","1121",,,,,"0","2018-10-31 13:30:45","356695"
"AW2XWG1NUYMR5","cs_wg_mon_conf_time_pilot2","3D3VGR7TA0GRELS9ZAKF56PTO5R3RN","8","0","NOVEMBER","10","JANUARY","11","1","3065",,,,,"0","2018-10-31 13:30:45","356696"
"A1WPCMXFU9NH9G","cs_wg_mon_conf_time_pilot2","304SM51WA358IVWZTSZQDZS1YZMSBQ","1","0","SEPTEMBER","2","AUGUST","6","1","5008",,,,,"1","2018-10-31 13:30:46","356697"
"A3629S0CJZO6P0","cs_wg_mon_conf_time_pilot2","3QIYRE09Y3IAPKM2JZPF8T5MPON1N4","33","0","JANUARY","11","SEPTEMBER","7","1","4731",,,,,"0","2018-10-31 13:30:46","356698"
"AFRBRB9J2ZX1D","cs_wg_mon_conf_time_pilot2","3STRJBFXOWSAQYD8O5H9M77DNB7TKW","29","0","AUGUST","12","OCTOBER","3","1","529",,,,,"0","2018-10-31 13:30:46","356699"
"A2B01MEFSL5R97","cs_wg_mon_conf_time_pilot2","30H4UDGLT2J7OUK4S0L5WAYKNDIMPQ","76","0","SEPTEMBER","8","MAY","12","1","727",,,,,"0","2018-10-31 13:30:47","356700"
"AU7UAH7YK73YS","cs_wg_mon_conf_time_pilot2","3A1COHJ8NJW0QOKCFM3HIJVYHIKH8V","27","0","DECEMBER","2","MAY","8","1","5010",,,,,"1","2018-10-31 13:30:48","356701"
"AFRBRB9J2ZX1D","cs_wg_mon_conf_time_pilot2","3STRJBFXOWSAQYD8O5H9M77DNB7TKW","30","0","FEBRUARY","9","OCTOBER","3","0","375",,,,,"0","2018-10-31 13:30:49","356702"
"A1U6TQHL2Y8RCD","cs_wg_mon_conf_time_pilot2","3G5F9DBFOPYY10GPNFERAXF6SFKHVX","2","0","SEPTEMBER","12","MARCH","5","0","5294",,,,,"1","2018-10-31 13:30:49","356703"
"A1PH1I9F2AA3TZ","cs_wg_mon_conf_time_pilot2","3SBEHTYCWN4F1PMEY8JWH8KFA90YIF","121","0","NOVEMBER","8","APRIL","9","1","1306",,,,,"0","2018-10-31 13:30:49","356704"
"ALG64VSMILMDT","cs_wg_mon_conf_time_pilot2","3VZLGYJEYLBCWALETGLGYPGW4G8ZX7","56","0","JANUARY","1","MARCH","4","1","2757",,,,,"0","2018-10-31 13:30:49","356705"
"A7LGXWVP67WG","cs_wg_mon_conf_time_pilot2","3YMTUJH0DSHPCWO53DUTFQIHQPI4TI","31","0","SEPTEMBER","5","MAY","6","0","6344",,,,,"1","2018-10-31 13:30:50","356706"
"A2B01MEFSL5R97","cs_wg_mon_conf_time_pilot2","30H4UDGLT2J7OUK4S0L5WAYKNDIMPQ","77","0","NOVEMBER","4","MAY","12","1","696",,,,,"0","2018-10-31 13:30:50","356707"
"A2ZX1P3T4KK683","cs_wg_mon_conf_time_pilot2","3HFNH7HEMHFSWWPXHA2ZJA4XWNSQGD","26","0","JANUARY","5","MARCH","6","1","4545",,,,,"1","2018-10-31 13:30:50","356708"
"AW2XWG1NUYMR5","cs_wg_mon_conf_time_pilot2","3D3VGR7TA0GRELS9ZAKF56PTO5R3RN","9","0","APRIL","8","OCTOBER","7","0","1914",,,,,"0","2018-10-31 13:30:50","356709"
"A98P6ZBAHA4C5","cs_wg_mon_conf_time_pilot2","3LEP4MGT3G12G6DHW241I061XVBDBE","44","0","SEPTEMBER","10","MARCH","5","0","11166",,,,,"0","2018-10-31 13:30:51","356710"
"A3BKYYHDOA97H9","cs_wg_mon_conf_time_pilot2","32UTUBMZ7GXOAND3NN4VOMC8X2FVBV","28","0","OCTOBER","8","NOVEMBER","2","0","2818",,,,,"1","2018-10-31 13:30:51","356711"
"A3629S0CJZO6P0","cs_wg_mon_conf_time_pilot2","3QIYRE09Y3IAPKM2JZPF8T5MPON1N4","34","0","NOVEMBER","8","MARCH","6","0","3314",,,,,"0","2018-10-31 13:30:52","356712"
"A2B01MEFSL5R97","cs_wg_mon_conf_time_pilot2","30H4UDGLT2J7OUK4S0L5WAYKNDIMPQ","78","0","JUNE","6","FEBRUARY","3","0","1008",,,,,"0","2018-10-31 13:30:52","356713"
"ALG64VSMILMDT","cs_wg_mon_conf_time_pilot2","3VZLGYJEYLBCWALETGLGYPGW4G8ZX7","57","0","OCTOBER","12","JUNE","3","0","1503",,,,,"0","2018-10-31 13:30:53","356714"
"A1WPCMXFU9NH9G","cs_wg_mon_conf_time_pilot2","304SM51WA358IVWZTSZQDZS1YZMSBQ","2","0","SEPTEMBER","2","JUNE","8","1","5147",,,,,"1","2018-10-31 13:30:54","356715"
"AW2XWG1NUYMR5","cs_wg_mon_conf_time_pilot2","3D3VGR7TA0GRELS9ZAKF56PTO5R3RN","10","0","SEPTEMBER","12","FEBRUARY","5","0","1678",,,,,"0","2018-10-31 13:30:54","356716"
"A1PH1I9F2AA3TZ","cs_wg_mon_conf_time_pilot2","3SBEHTYCWN4F1PMEY8JWH8KFA90YIF","122","0","OCTOBER","3","NOVEMBER","8","1","2943",,,,,"0","2018-10-31 13:30:54","356717"
"AU7UAH7YK73YS","cs_wg_mon_conf_time_pilot2","3A1COHJ8NJW0QOKCFM3HIJVYHIKH8V","28","0","FEBRUARY","11","SEPTEMBER","12","1","3792",,,,,"1","2018-10-31 13:30:55","356718"
"A7LGXWVP67WG","cs_wg_mon_conf_time_pilot2","3YMTUJH0DSHPCWO53DUTFQIHQPI4TI","32","0","FEBRUARY","11","MAY","6","0","2862",,,,,"1","2018-10-31 13:30:55","356719"
"A2B01MEFSL5R97","cs_wg_mon_conf_time_pilot2","30H4UDGLT2J7OUK4S0L5WAYKNDIMPQ","79","0","DECEMBER","1","APRIL","7","1","1246",,,,,"0","2018-10-31 13:30:55","356720"
"ALG64VSMILMDT","cs_wg_mon_conf_time_pilot2","3VZLGYJEYLBCWALETGLGYPGW4G8ZX7","58","0","JULY","8","NOVEMBER","10","1","1359",,,,,"0","2018-10-31 13:30:55","356721"
"A2ZX1P3T4KK683","cs_wg_mon_conf_time_pilot2","3HFNH7HEMHFSWWPXHA2ZJA4XWNSQGD","27","0","JULY","4","MAY","3","0","2896",,,,,"1","2018-10-31 13:30:55","356722"
"A1U6TQHL2Y8RCD","cs_wg_mon_conf_time_pilot2","3G5F9DBFOPYY10GPNFERAXF6SFKHVX","3","0","JULY","1","JUNE","10","1","4074",,,,,"1","2018-10-31 13:30:56","356723"
"A98P6ZBAHA4C5","cs_wg_mon_conf_time_pilot2","3LEP4MGT3G12G6DHW241I061XVBDBE","45","0","FEBRUARY","8","APRIL","3","0","4735",,,,,"0","2018-10-31 13:30:57","356724"
"AFRBRB9J2ZX1D","cs_wg_mon_conf_time_pilot2","3STRJBFXOWSAQYD8O5H9M77DNB7TKW","31","0","JULY","1","DECEMBER","5","0","7685",,,,,"1","2018-10-31 13:30:58","356725"
"ALG64VSMILMDT","cs_wg_mon_conf_time_pilot2","3VZLGYJEYLBCWALETGLGYPGW4G8ZX7","59","0","OCTOBER","12","AUGUST","5","0","1581",,,,,"0","2018-10-31 13:30:59","356726"
"A2B01MEFSL5R97","cs_wg_mon_conf_time_pilot2","30H4UDGLT2J7OUK4S0L5WAYKNDIMPQ","80","0","MARCH","11","APRIL","7","0","1910",,,,,"0","2018-10-31 13:30:59","356727"
"A23V67SB7P43E","cs_wg_mon_conf_time_pilot2","3VNXK88KKCJ5MUY6P3QZXGHI92BV9K","0","0","SEPTEMBER","2","JUNE","6","1","7497",,,,,"1","2018-10-31 13:30:59","356728"
"A3629S0CJZO6P0","cs_wg_mon_conf_time_pilot2","3QIYRE09Y3IAPKM2JZPF8T5MPON1N4","35","0","JULY","10","JANUARY","11","1","5479",,,,,"0","2018-10-31 13:30:59","356729"
"A1PH1I9F2AA3TZ","cs_wg_mon_conf_time_pilot2","3SBEHTYCWN4F1PMEY8JWH8KFA90YIF","123","0","NOVEMBER","8","AUGUST","1","0","3195",,,,,"0","2018-10-31 13:31:00","356730"
"AW2XWG1NUYMR5","cs_wg_mon_conf_time_pilot2","3D3VGR7TA0GRELS9ZAKF56PTO5R3RN","11","0","APRIL","8","MAY","1","1","3852",,,,,"0","2018-10-31 13:31:00","356731"
"AU7UAH7YK73YS","cs_wg_mon_conf_time_pilot2","3A1COHJ8NJW0QOKCFM3HIJVYHIKH8V","29","0","JULY","4","DECEMBER","2","0","4127",,,,,"1","2018-10-31 13:31:00","356732"
"A7LGXWVP67WG","cs_wg_mon_conf_time_pilot2","3YMTUJH0DSHPCWO53DUTFQIHQPI4TI","33","0","OCTOBER","1","JUNE","7","1","3259",,,,,"1","2018-10-31 13:31:01","356733"
"AFRBRB9J2ZX1D","cs_wg_mon_conf_time_pilot2","3STRJBFXOWSAQYD8O5H9M77DNB7TKW","32","0","DECEMBER","5","OCTOBER","3","0","916",,,,,"0","2018-10-31 13:31:02","356734"
"A2B01MEFSL5R97","cs_wg_mon_conf_time_pilot2","30H4UDGLT2J7OUK4S0L5WAYKNDIMPQ","81","0","MAY","12","DECEMBER","1","0","1070",,,,,"0","2018-10-31 13:31:02","356735"
"A2ZX1P3T4KK683","cs_wg_mon_conf_time_pilot2","3HFNH7HEMHFSWWPXHA2ZJA4XWNSQGD","28","0","AUGUST","2","FEBRUARY","7","1","3242",,,,,"1","2018-10-31 13:31:02","356736"
"ALG64VSMILMDT","cs_wg_mon_conf_time_pilot2","3VZLGYJEYLBCWALETGLGYPGW4G8ZX7","60","0","AUGUST","5","SEPTEMBER","6","1","2167",,,,,"0","2018-10-31 13:31:02","356737"
"A98P6ZBAHA4C5","cs_wg_mon_conf_time_pilot2","3LEP4MGT3G12G6DHW241I061XVBDBE","46","0","SEPTEMBER","10","JANUARY","11","1","4148",,,,,"0","2018-10-31 13:31:04","356738"
"A1PH1I9F2AA3TZ","cs_wg_mon_conf_time_pilot2","3SBEHTYCWN4F1PMEY8JWH8KFA90YIF","124","0","JULY","6","NOVEMBER","8","1","1950",,,,,"0","2018-10-31 13:31:04","356739"
"A1U6TQHL2Y8RCD","cs_wg_mon_conf_time_pilot2","3G5F9DBFOPYY10GPNFERAXF6SFKHVX","4","0","DECEMBER","6","MAY","4","0","6343",,,,,"1","2018-10-31 13:31:04","356740"
"A3629S0CJZO6P0","cs_wg_mon_conf_time_pilot2","3QIYRE09Y3IAPKM2JZPF8T5MPON1N4","36","0","MARCH","6","JANUARY","11","1","2977",,,,,"0","2018-10-31 13:31:04","356741"
"AW2XWG1NUYMR5","cs_wg_mon_conf_time_pilot2","3D3VGR7TA0GRELS9ZAKF56PTO5R3RN","12","0","FEBRUARY","5","JANUARY","11","1","2140",,,,,"0","2018-10-31 13:31:04","356742"
"A1WPCMXFU9NH9G","cs_wg_mon_conf_time_pilot2","304SM51WA358IVWZTSZQDZS1YZMSBQ","3","0","JUNE","8","AUGUST","6","0","7570",,,,,"1","2018-10-31 13:31:04","356743"
"A2B01MEFSL5R97","cs_wg_mon_conf_time_pilot2","30H4UDGLT2J7OUK4S0L5WAYKNDIMPQ","82","0","JANUARY","9","SEPTEMBER","8","0","1774",,,,,"0","2018-10-31 13:31:05","356744"
"AFRBRB9J2ZX1D","cs_wg_mon_conf_time_pilot2","3STRJBFXOWSAQYD8O5H9M77DNB7TKW","33","0","SEPTEMBER","2","JUNE","4","0","1195",,,,,"0","2018-10-31 13:31:05","356745"
"A2G6EXR0ZMGQF3","cs_wg_mon_conf_time_pilot2","3NVC2EB65Q00BM4VD5C9D2IQRS5Y3J","0","0","FEBRUARY","7","MAY","11","0","4320",,,,,"0","2018-10-31 13:31:06","356746"
"A23V67SB7P43E","cs_wg_mon_conf_time_pilot2","3VNXK88KKCJ5MUY6P3QZXGHI92BV9K","1","0","MAY","5","APRIL","4","0","4811",,,,,"1","2018-10-31 13:31:07","356747"
"ALG64VSMILMDT","cs_wg_mon_conf_time_pilot2","3VZLGYJEYLBCWALETGLGYPGW4G8ZX7","61","0","JUNE","3","MARCH","4","1","2151",,,,,"0","2018-10-31 13:31:07","356748"
"A7LGXWVP67WG","cs_wg_mon_conf_time_pilot2","3YMTUJH0DSHPCWO53DUTFQIHQPI4TI","34","0","SEPTEMBER","5","DECEMBER","4","0","3178",,,,,"1","2018-10-31 13:31:07","356749"
"AU7UAH7YK73YS","cs_wg_mon_conf_time_pilot2","3A1COHJ8NJW0QOKCFM3HIJVYHIKH8V","30","0","MAY","8","OCTOBER","5","0","4470",,,,,"1","2018-10-31 13:31:07","356750"
"AW2XWG1NUYMR5","cs_wg_mon_conf_time_pilot2","3D3VGR7TA0GRELS9ZAKF56PTO5R3RN","13","0","MARCH","4","DECEMBER","9","0","1710",,,,,"0","2018-10-31 13:31:08","356751"
"AFRBRB9J2ZX1D","cs_wg_mon_conf_time_pilot2","3STRJBFXOWSAQYD8O5H9M77DNB7TKW","34","0","FEBRUARY","9","JANUARY","10","1","1273",,,,,"1","2018-10-31 13:31:09","356752"
"A3629S0CJZO6P0","cs_wg_mon_conf_time_pilot2","3QIYRE09Y3IAPKM2JZPF8T5MPON1N4","37","0","JUNE","1","NOVEMBER","8","1","2753",,,,,"0","2018-10-31 13:31:09","356753"
"A98P6ZBAHA4C5","cs_wg_mon_conf_time_pilot2","3LEP4MGT3G12G6DHW241I061XVBDBE","47","0","OCTOBER","4","DECEMBER","7","1","3725",,,,,"0","2018-10-31 13:31:09","356754"
"A1PH1I9F2AA3TZ","cs_wg_mon_conf_time_pilot2","3SBEHTYCWN4F1PMEY8JWH8KFA90YIF","125","0","JUNE","5","APRIL","9","1","3269",,,,,"0","2018-10-31 13:31:09","356755"
"A2ZX1P3T4KK683","cs_wg_mon_conf_time_pilot2","3HFNH7HEMHFSWWPXHA2ZJA4XWNSQGD","29","0","OCTOBER","9","APRIL","8","0","3565",,,,,"1","2018-10-31 13:31:09","356756"
"A2B01MEFSL5R97","cs_wg_mon_conf_time_pilot2","30H4UDGLT2J7OUK4S0L5WAYKNDIMPQ","83","0","AUGUST","2","APRIL","7","1","3686",,,,,"0","2018-10-31 13:31:10","356757"
"A1U6TQHL2Y8RCD","cs_wg_mon_conf_time_pilot2","3G5F9DBFOPYY10GPNFERAXF6SFKHVX","5","0","OCTOBER","7","JUNE","10","1","5020",,,,,"1","2018-10-31 13:31:11","356758"
"AFRBRB9J2ZX1D","cs_wg_mon_conf_time_pilot2","3STRJBFXOWSAQYD8O5H9M77DNB7TKW","35","0","OCTOBER","3","MARCH","11","0","498",,,,,"0","2018-10-31 13:31:11","356759"
"AW2XWG1NUYMR5","cs_wg_mon_conf_time_pilot2","3D3VGR7TA0GRELS9ZAKF56PTO5R3RN","14","0","FEBRUARY","5","DECEMBER","9","1","1909",,,,,"0","2018-10-31 13:31:12","356760"
"AU7UAH7YK73YS","cs_wg_mon_conf_time_pilot2","3A1COHJ8NJW0QOKCFM3HIJVYHIKH8V","31","0","DECEMBER","2","MARCH","9","1","3546",,,,,"1","2018-10-31 13:31:12","356761"
"A7LGXWVP67WG","cs_wg_mon_conf_time_pilot2","3YMTUJH0DSHPCWO53DUTFQIHQPI4TI","35","0","SEPTEMBER","5","JANUARY","8","1","2993",,,,,"1","2018-10-31 13:31:12","356762"
"A2B01MEFSL5R97","cs_wg_mon_conf_time_pilot2","30H4UDGLT2J7OUK4S0L5WAYKNDIMPQ","84","0","AUGUST","2","MARCH","11","1","1008",,,,,"0","2018-10-31 13:31:13","356763"
"A1WPCMXFU9NH9G","cs_wg_mon_conf_time_pilot2","304SM51WA358IVWZTSZQDZS1YZMSBQ","4","0","NOVEMBER","10","OCTOBER","1","0","6194",,,,,"1","2018-10-31 13:31:13","356764"
"A1PH1I9F2AA3TZ","cs_wg_mon_conf_time_pilot2","3SBEHTYCWN4F1PMEY8JWH8KFA90YIF","126","0","APRIL","9","FEBRUARY","4","0","1769",,,,,"0","2018-10-31 13:31:13","356765"
"A3629S0CJZO6P0","cs_wg_mon_conf_time_pilot2","3QIYRE09Y3IAPKM2JZPF8T5MPON1N4","38","0","JANUARY","11","MAY","4","0","2292",,,,,"0","2018-10-31 13:31:13","356766"
"ALG64VSMILMDT","cs_wg_mon_conf_time_pilot2","3VZLGYJEYLBCWALETGLGYPGW4G8ZX7","62","0","JULY","8","SEPTEMBER","6","0","5557",,,,,"0","2018-10-31 13:31:14","356767"
"AFRBRB9J2ZX1D","cs_wg_mon_conf_time_pilot2","3STRJBFXOWSAQYD8O5H9M77DNB7TKW","36","0","FEBRUARY","9","JULY","1","1","584",,,,,"0","2018-10-31 13:31:14","356768"
"A2G6EXR0ZMGQF3","cs_wg_mon_conf_time_pilot2","3NVC2EB65Q00BM4VD5C9D2IQRS5Y3J","1","0","JULY","2","MARCH","6","0","1950",,,,,"0","2018-10-31 13:31:15","356769"
"A2B01MEFSL5R97","cs_wg_mon_conf_time_pilot2","30H4UDGLT2J7OUK4S0L5WAYKNDIMPQ","85","0","JUNE","6","APRIL","7","0","1025",,,,,"0","2018-10-31 13:31:16","356770"
"A98P6ZBAHA4C5","cs_wg_mon_conf_time_pilot2","3LEP4MGT3G12G6DHW241I061XVBDBE","48","0","MAY","1","MARCH","5","1","5382",,,,,"0","2018-10-31 13:31:16","356771"
"A3BKYYHDOA97H9","cs_wg_mon_conf_time_pilot2","32UTUBMZ7GXOAND3NN4VOMC8X2FVBV","29","0","MARCH","5","APRIL","3","0","6263",,,,,"1","2018-10-31 13:31:16","356772"
"A1PH1I9F2AA3TZ","cs_wg_mon_conf_time_pilot2","3SBEHTYCWN4F1PMEY8JWH8KFA90YIF","127","0","SEPTEMBER","12","JULY","6","0","1081",,,,,"0","2018-10-31 13:31:17","356773"
"A2ZX1P3T4KK683","cs_wg_mon_conf_time_pilot2","3HFNH7HEMHFSWWPXHA2ZJA4XWNSQGD","30","0","JULY","4","NOVEMBER","10","1","3580",,,,,"1","2018-10-31 13:31:17","356774"
"A1U6TQHL2Y8RCD","cs_wg_mon_conf_time_pilot2","3G5F9DBFOPYY10GPNFERAXF6SFKHVX","6","0","JANUARY","11","MARCH","5","0","4046",,,,,"1","2018-10-31 13:31:17","356775"
"ALG64VSMILMDT","cs_wg_mon_conf_time_pilot2","3VZLGYJEYLBCWALETGLGYPGW4G8ZX7","63","0","MARCH","4","NOVEMBER","10","1","1446",,,,,"0","2018-10-31 13:31:17","356776"
"A23V67SB7P43E","cs_wg_mon_conf_time_pilot2","3VNXK88KKCJ5MUY6P3QZXGHI92BV9K","2","0","APRIL","4","DECEMBER","8","1","6495",,,,,"1","2018-10-31 13:31:17","356777"
"AFRBRB9J2ZX1D","cs_wg_mon_conf_time_pilot2","3STRJBFXOWSAQYD8O5H9M77DNB7TKW","37","0","JULY","1","NOVEMBER","6","1","1541",,,,,"0","2018-10-31 13:31:18","356778"
"A7LGXWVP67WG","cs_wg_mon_conf_time_pilot2","3YMTUJH0DSHPCWO53DUTFQIHQPI4TI","36","0","NOVEMBER","2","AUGUST","10","1","3088",,,,,"1","2018-10-31 13:31:18","356779"
"AW2XWG1NUYMR5","cs_wg_mon_conf_time_pilot2","3D3VGR7TA0GRELS9ZAKF56PTO5R3RN","15","0","SEPTEMBER","12","OCTOBER","7","1","4268",,,,,"0","2018-10-31 13:31:18","356780"
"A2B01MEFSL5R97","cs_wg_mon_conf_time_pilot2","30H4UDGLT2J7OUK4S0L5WAYKNDIMPQ","86","0","JANUARY","9","JULY","10","1","1006",,,,,"0","2018-10-31 13:31:18","356781"
"A3629S0CJZO6P0","cs_wg_mon_conf_time_pilot2","3QIYRE09Y3IAPKM2JZPF8T5MPON1N4","39","0","MAY","4","JANUARY","11","0","1946",,,,,"0","2018-10-31 13:31:19","356782"
"AU7UAH7YK73YS","cs_wg_mon_conf_time_pilot2","3A1COHJ8NJW0QOKCFM3HIJVYHIKH8V","32","0","DECEMBER","2","APRIL","3","1","5278",,,,,"1","2018-10-31 13:31:19","356783"
"A1WPCMXFU9NH9G","cs_wg_mon_conf_time_pilot2","304SM51WA358IVWZTSZQDZS1YZMSBQ","5","0","MARCH","12","JANUARY","3","0","4812",,,,,"1","2018-10-31 13:31:21","356784"
"A1PH1I9F2AA3TZ","cs_wg_mon_conf_time_pilot2","3SBEHTYCWN4F1PMEY8JWH8KFA90YIF","128","0","OCTOBER","3","MARCH","10","1","1192",,,,,"0","2018-10-31 13:31:21","356785"
"A2B01MEFSL5R97","cs_wg_mon_conf_time_pilot2","30H4UDGLT2J7OUK4S0L5WAYKNDIMPQ","87","0","DECEMBER","1","NOVEMBER","4","1","767",,,,,"0","2018-10-31 13:31:21","356786"
"AFRBRB9J2ZX1D","cs_wg_mon_conf_time_pilot2","3STRJBFXOWSAQYD8O5H9M77DNB7TKW","38","0","JUNE","4","DECEMBER","5","1","1038",,,,,"0","2018-10-31 13:31:21","356787"
"ALG64VSMILMDT","cs_wg_mon_conf_time_pilot2","3VZLGYJEYLBCWALETGLGYPGW4G8ZX7","64","0","DECEMBER","7","MAY","11","1","2471",,,,,"0","2018-10-31 13:31:21","356788"
"AW2XWG1NUYMR5","cs_wg_mon_conf_time_pilot2","3D3VGR7TA0GRELS9ZAKF56PTO5R3RN","16","0","JULY","2","OCTOBER","7","0","1615",,,,,"0","2018-10-31 13:31:21","356789"
"A98P6ZBAHA4C5","cs_wg_mon_conf_time_pilot2","3LEP4MGT3G12G6DHW241I061XVBDBE","49","0","FEBRUARY","8","JUNE","6","0","4562",,,,,"0","2018-10-31 13:31:22","356790"
"A2ZX1P3T4KK683","cs_wg_mon_conf_time_pilot2","3HFNH7HEMHFSWWPXHA2ZJA4XWNSQGD","31","0","NOVEMBER","10","MAY","3","0","3159",,,,,"1","2018-10-31 13:31:23","356791"
"A3629S0CJZO6P0","cs_wg_mon_conf_time_pilot2","3QIYRE09Y3IAPKM2JZPF8T5MPON1N4","40","0","FEBRUARY","3","JUNE","1","0","2671",,,,,"0","2018-10-31 13:31:23","356792"
"ALG64VSMILMDT","cs_wg_mon_conf_time_pilot2","3VZLGYJEYLBCWALETGLGYPGW4G8ZX7","65","0","APRIL","9","MAY","11","1","1470",,,,,"0","2018-10-31 13:31:24","356793"
"A2B01MEFSL5R97","cs_wg_mon_conf_time_pilot2","30H4UDGLT2J7OUK4S0L5WAYKNDIMPQ","88","0","APRIL","7","OCTOBER","5","0","2030",,,,,"0","2018-10-31 13:31:24","356794"
"A1PH1I9F2AA3TZ","cs_wg_mon_conf_time_pilot2","3SBEHTYCWN4F1PMEY8JWH8KFA90YIF","129","0","NOVEMBER","8","MAY","11","1","1291",,,,,"0","2018-10-31 13:31:25","356795"
"AU7UAH7YK73YS","cs_wg_mon_conf_time_pilot2","3A1COHJ8NJW0QOKCFM3HIJVYHIKH8V","33","0","JUNE","6","SEPTEMBER","12","1","3952",,,,,"1","2018-10-31 13:31:25","356797"
"A1U6TQHL2Y8RCD","cs_wg_mon_conf_time_pilot2","3G5F9DBFOPYY10GPNFERAXF6SFKHVX","7","0","FEBRUARY","3","DECEMBER","6","1","5862",,,,,"1","2018-10-31 13:31:25","356796"
"AW2XWG1NUYMR5","cs_wg_mon_conf_time_pilot2","3D3VGR7TA0GRELS9ZAKF56PTO5R3RN","17","0","JUNE","3","MAY","1","0","1950",,,,,"0","2018-10-31 13:31:25","356798"
"A7LGXWVP67WG","cs_wg_mon_conf_time_pilot2","3YMTUJH0DSHPCWO53DUTFQIHQPI4TI","37","0","MARCH","12","SEPTEMBER","5","0","4645",,,,,"1","2018-10-31 13:31:27","356799"
"A2G6EXR0ZMGQF3","cs_wg_mon_conf_time_pilot2","3NVC2EB65Q00BM4VD5C9D2IQRS5Y3J","2","0","JULY","2","DECEMBER","1","1","2058",,,,,"0","2018-10-31 13:31:27","356800"
"A23V67SB7P43E","cs_wg_mon_conf_time_pilot2","3VNXK88KKCJ5MUY6P3QZXGHI92BV9K","3","0","SEPTEMBER","2","FEBRUARY","12","1","6945",,,,,"1","2018-10-31 13:31:27","356801"
"ALG64VSMILMDT","cs_wg_mon_conf_time_pilot2","3VZLGYJEYLBCWALETGLGYPGW4G8ZX7","66","0","OCTOBER","12","MARCH","4","0","1742",,,,,"0","2018-10-31 13:31:27","356802"
"A1WPCMXFU9NH9G","cs_wg_mon_conf_time_pilot2","304SM51WA358IVWZTSZQDZS1YZMSBQ","6","0","JANUARY","3","JULY","4","1","4529",,,,,"1","2018-10-31 13:31:28","356803"
"A98P6ZBAHA4C5","cs_wg_mon_conf_time_pilot2","3LEP4MGT3G12G6DHW241I061XVBDBE","50","0","JULY","9","MARCH","5","0","3782",,,,,"0","2018-10-31 13:31:28","356804"
"A1PH1I9F2AA3TZ","cs_wg_mon_conf_time_pilot2","3SBEHTYCWN4F1PMEY8JWH8KFA90YIF","130","0","JANUARY","7","SEPTEMBER","12","1","1223",,,,,"0","2018-10-31 13:31:28","356805"
"A3629S0CJZO6P0","cs_wg_mon_conf_time_pilot2","3QIYRE09Y3IAPKM2JZPF8T5MPON1N4","41","0","JANUARY","11","NOVEMBER","8","0","2669",,,,,"0","2018-10-31 13:31:28","356806"
"A2B01MEFSL5R97","cs_wg_mon_conf_time_pilot2","30H4UDGLT2J7OUK4S0L5WAYKNDIMPQ","89","0","SEPTEMBER","8","JUNE","6","1","3007",,,,,"0","2018-10-31 13:31:29","356807"
"A2ZX1P3T4KK683","cs_wg_mon_conf_time_pilot2","3HFNH7HEMHFSWWPXHA2ZJA4XWNSQGD","32","0","JULY","4","OCTOBER","9","1","3169",,,,,"1","2018-10-31 13:31:29","356808"
"AW2XWG1NUYMR5","cs_wg_mon_conf_time_pilot2","3D3VGR7TA0GRELS9ZAKF56PTO5R3RN","18","0","MAY","1","NOVEMBER","10","1","2040",,,,,"0","2018-10-31 13:31:30","356809"
"ALG64VSMILMDT","cs_wg_mon_conf_time_pilot2","3VZLGYJEYLBCWALETGLGYPGW4G8ZX7","67","0","DECEMBER","7","JULY","8","1","1719",,,,,"0","2018-10-31 13:31:31","356810"
"A2B01MEFSL5R97","cs_wg_mon_conf_time_pilot2","30H4UDGLT2J7OUK4S0L5WAYKNDIMPQ","90","0","MARCH","11","SEPTEMBER","8","0","718",,,,,"0","2018-10-31 13:31:31","356811"
"AU7UAH7YK73YS","cs_wg_mon_conf_time_pilot2","3A1COHJ8NJW0QOKCFM3HIJVYHIKH8V","34","0","JULY","4","OCTOBER","5","1","5061",,,,,"1","2018-10-31 13:31:32","356812"
"A7LGXWVP67WG","cs_wg_mon_conf_time_pilot2","3YMTUJH0DSHPCWO53DUTFQIHQPI4TI","38","0","MAY","6","JUNE","7","1","2979",,,,,"1","2018-10-31 13:31:32","356813"
"A1U6TQHL2Y8RCD","cs_wg_mon_conf_time_pilot2","3G5F9DBFOPYY10GPNFERAXF6SFKHVX","8","0","JULY","1","AUGUST","9","1","5074",,,,,"1","2018-10-31 13:31:33","356814"
"AW2XWG1NUYMR5","cs_wg_mon_conf_time_pilot2","3D3VGR7TA0GRELS9ZAKF56PTO5R3RN","19","0","DECEMBER","9","APRIL","8","0","1201",,,,,"0","2018-10-31 13:31:33","356815"
"AFRBRB9J2ZX1D","cs_wg_mon_conf_time_pilot2","3STRJBFXOWSAQYD8O5H9M77DNB7TKW","39","0","APRIL","8","DECEMBER","5","0","6431",,,,,"0","2018-10-31 13:31:33","356816"
"A3629S0CJZO6P0","cs_wg_mon_conf_time_pilot2","3QIYRE09Y3IAPKM2JZPF8T5MPON1N4","42","0","JUNE","1","JANUARY","11","1","2584",,,,,"0","2018-10-31 13:31:33","356817"
"A2G6EXR0ZMGQF3","cs_wg_mon_conf_time_pilot2","3NVC2EB65Q00BM4VD5C9D2IQRS5Y3J","3","0","SEPTEMBER","5","FEBRUARY","7","0","1858",,,,,"0","2018-10-31 13:31:33","356818"
"A3BKYYHDOA97H9","cs_wg_mon_conf_time_pilot2","32UTUBMZ7GXOAND3NN4VOMC8X2FVBV","30","0","JULY","1","MARCH","5","1","4142",,,,,"1","2018-10-31 13:31:33","356819"
"A1PH1I9F2AA3TZ","cs_wg_mon_conf_time_pilot2","3SBEHTYCWN4F1PMEY8JWH8KFA90YIF","131","0","MAY","11","NOVEMBER","8","0","2220",,,,,"0","2018-10-31 13:31:34","356820"
"A2B01MEFSL5R97","cs_wg_mon_conf_time_pilot2","30H4UDGLT2J7OUK4S0L5WAYKNDIMPQ","91","0","JULY","10","FEBRUARY","3","0","1269",,,,,"0","2018-10-31 13:31:34","356821"
