"subject","version","assignmentId","trial","trial_type","word","value","alt","choice","rt","resp","resp2","stamp","id"
"A3US51RJ9AWSEE","cs_wg_v8_pilot1","3KMS4QQVK2R07TV7TLCK53S9F4UKFR","0","0","COMMUNITY","0","HELICOPTER","0","4813","Community","0","2017-10-10 14:44:15","119961"
"A3US51RJ9AWSEE","cs_wg_v8_pilot1","3KMS4QQVK2R07TV7TLCK53S9F4UKFR","1","0","FOOTBALL","1","BASKET","0","3578","Football","1","2017-10-10 14:44:29","119962"
"A3US51RJ9AWSEE","cs_wg_v8_pilot1","3KMS4QQVK2R07TV7TLCK53S9F4UKFR","2","0","COMMUNITY","2","BOOKSHELF","1","3512","Bookshelf","2","2017-10-10 14:44:43","119963"
"A3US51RJ9AWSEE","cs_wg_v8_pilot1","3KMS4QQVK2R07TV7TLCK53S9F4UKFR","3","0","BASKET","1","COMMUNITY","0","2364","Basket","1","2017-10-10 14:44:53","119964"
"A3US51RJ9AWSEE","cs_wg_v8_pilot1","3KMS4QQVK2R07TV7TLCK53S9F4UKFR","4","0","UMBRELLA","9","KEYBOARD","1","3070","Keyboard","9","2017-10-10 14:45:05","119965"
"A3US51RJ9AWSEE","cs_wg_v8_pilot1","3KMS4QQVK2R07TV7TLCK53S9F4UKFR","5","0","FOOTBALL","8","TRAFFIC","1","4014","Traffic","8","2017-10-10 14:45:19","119966"
"A3US51RJ9AWSEE","cs_wg_v8_pilot1","3KMS4QQVK2R07TV7TLCK53S9F4UKFR","6","0","MACHINE","10","COMMUNITY","0","2246","Machine","10","2017-10-10 14:45:31","119967"
"A3US51RJ9AWSEE","cs_wg_v8_pilot1","3KMS4QQVK2R07TV7TLCK53S9F4UKFR","7","0","WEDDING","10","DOORWAY","0","3133","Wedding","10","2017-10-10 14:45:43","119968"
"A3US51RJ9AWSEE","cs_wg_v8_pilot1","3KMS4QQVK2R07TV7TLCK53S9F4UKFR","8","0","TRAFFIC","1","BASKET","1","2189","Basket","1","2017-10-10 14:45:53","119969"
"A3US51RJ9AWSEE","cs_wg_v8_pilot1","3KMS4QQVK2R07TV7TLCK53S9F4UKFR","9","0","DOORWAY","2","BOOKSHELF","1","2613","Bookshelf","2","2017-10-10 14:46:05","119970"
"A3US51RJ9AWSEE","cs_wg_v8_pilot1","3KMS4QQVK2R07TV7TLCK53S9F4UKFR","10","0","STRUCTURE","9","BOOKSHELF","0","1603","Structure","9","2017-10-10 14:46:15","119971"
"A3US51RJ9AWSEE","cs_wg_v8_pilot1","3KMS4QQVK2R07TV7TLCK53S9F4UKFR","11","0","DOORWAY","0","LADDER","1","2821","Ladder","0","2017-10-10 14:46:25","119972"
"A3US51RJ9AWSEE","cs_wg_v8_pilot1","3KMS4QQVK2R07TV7TLCK53S9F4UKFR","12","0","DOORWAY","9","STRUCTURE","1","1582","Structure","9","2017-10-10 14:46:34","119973"
"A3US51RJ9AWSEE","cs_wg_v8_pilot1","3KMS4QQVK2R07TV7TLCK53S9F4UKFR","13","0","KEYBOARD","9","COMMUNITY","0","2449","Keyboard","9","2017-10-10 14:46:46","119974"
"A1L1SQ488YCCFJ","cs_wg_v8_pilot1","3JPSL1DZ5S06J8Z2FII8JUYMCJMAN9","0","0","STOMACH","10","HELICOPTER","1","2611","helicopter","10","2017-10-10 14:46:52","119975"
"A3US51RJ9AWSEE","cs_wg_v8_pilot1","3KMS4QQVK2R07TV7TLCK53S9F4UKFR","14","0","KEYBOARD","9","FOOTBALL","0","1575","Keyboard","9","2017-10-10 14:46:55","119976"
"A1L1SQ488YCCFJ","cs_wg_v8_pilot1","3JPSL1DZ5S06J8Z2FII8JUYMCJMAN9","1","0","FOOTBALL","9","WEDDING","1","2363","wedding","9","2017-10-10 14:47:02","119977"
"A3US51RJ9AWSEE","cs_wg_v8_pilot1","3KMS4QQVK2R07TV7TLCK53S9F4UKFR","15","0","STRUCTURE","9","LADDER","0","2396","Structure","9","2017-10-10 14:47:05","119978"
"A1L1SQ488YCCFJ","cs_wg_v8_pilot1","3JPSL1DZ5S06J8Z2FII8JUYMCJMAN9","2","0","UMBRELLA","2","TRAFFIC","0","1854","umbrella","2","2017-10-10 14:47:14","119979"
"A3US51RJ9AWSEE","cs_wg_v8_pilot1","3KMS4QQVK2R07TV7TLCK53S9F4UKFR","16","0","STOMACH","10","TRAFFIC","0","2357","Stomach","10","2017-10-10 14:47:16","119980"
"A1L1SQ488YCCFJ","cs_wg_v8_pilot1","3JPSL1DZ5S06J8Z2FII8JUYMCJMAN9","3","0","TRAFFIC","0","STRUCTURE","0","1798","traffic","0","2017-10-10 14:47:24","119981"
"A3US51RJ9AWSEE","cs_wg_v8_pilot1","3KMS4QQVK2R07TV7TLCK53S9F4UKFR","17","0","STOMACH","10","DOORWAY","0","1569","Stomach","10","2017-10-10 14:47:25","119982"
"A1L1SQ488YCCFJ","cs_wg_v8_pilot1","3JPSL1DZ5S06J8Z2FII8JUYMCJMAN9","4","0","MACHINE","0","FOOTBALL","1","722","football","0","2017-10-10 14:47:31","119983"
"A3US51RJ9AWSEE","cs_wg_v8_pilot1","3KMS4QQVK2R07TV7TLCK53S9F4UKFR","18","0","KEYBOARD","9","MACHINE","0","3814","Keyboard","9","2017-10-10 14:47:37","119984"
"A1L1SQ488YCCFJ","cs_wg_v8_pilot1","3JPSL1DZ5S06J8Z2FII8JUYMCJMAN9","5","0","LADDER","0","FOOTBALL","1","1044","football","0","2017-10-10 14:47:41","119985"
"A3HE8VNBXD2BR0","cs_wg_v8_pilot1","3Z4AIRP3C6EF1E06L5CO6VWHA3QX1S","0","0","STRUCTURE","10","STOMACH","0","3687","structure","10","2017-10-10 14:47:45","119986"
"A3US51RJ9AWSEE","cs_wg_v8_pilot1","3KMS4QQVK2R07TV7TLCK53S9F4UKFR","19","0","MACHINE","10","WEDDING","1","3496","Wedding","9","2017-10-10 14:47:49","119987"
"A1L1SQ488YCCFJ","cs_wg_v8_pilot1","3JPSL1DZ5S06J8Z2FII8JUYMCJMAN9","6","0","UMBRELLA","10","MACHINE","1","1147","machine","10","2017-10-10 14:47:51","119988"
"A3HE8VNBXD2BR0","cs_wg_v8_pilot1","3Z4AIRP3C6EF1E06L5CO6VWHA3QX1S","1","0","STOMACH","1","WEDDING","0","3247","stomach","1","2017-10-10 14:47:58","119989"
"A3US51RJ9AWSEE","cs_wg_v8_pilot1","3KMS4QQVK2R07TV7TLCK53S9F4UKFR","20","0","WEDDING","10","STRUCTURE","0","1571","Wedding","10","2017-10-10 14:47:59","119990"
"A1L1SQ488YCCFJ","cs_wg_v8_pilot1","3JPSL1DZ5S06J8Z2FII8JUYMCJMAN9","7","0","TRAFFIC","8","KEYBOARD","1","1447","keyboard","8","2017-10-10 14:48:02","119991"
"A1L1SQ488YCCFJ","cs_wg_v8_pilot1","3JPSL1DZ5S06J8Z2FII8JUYMCJMAN9","8","0","WEDDING","0","STOMACH","1","1073","stomach","0","2017-10-10 14:48:10","119992"
"A3US51RJ9AWSEE","cs_wg_v8_pilot1","3KMS4QQVK2R07TV7TLCK53S9F4UKFR","21","0","HELICOPTER","1","BASKET","1","3816","Basket","1","2017-10-10 14:48:10","119993"
"A3HE8VNBXD2BR0","cs_wg_v8_pilot1","3Z4AIRP3C6EF1E06L5CO6VWHA3QX1S","2","0","MACHINE","0","COMMUNITY","1","3318","community","0","2017-10-10 14:48:14","119994"
"A1L1SQ488YCCFJ","cs_wg_v8_pilot1","3JPSL1DZ5S06J8Z2FII8JUYMCJMAN9","9","0","BOOKSHELF","9","WEDDING","1","1282","wedding","9","2017-10-10 14:48:19","119995"
"A3US51RJ9AWSEE","cs_wg_v8_pilot1","3KMS4QQVK2R07TV7TLCK53S9F4UKFR","22","0","KEYBOARD","9","BASKET","0","1333","Keyboard","9","2017-10-10 14:48:21","119996"
"A1L1SQ488YCCFJ","cs_wg_v8_pilot1","3JPSL1DZ5S06J8Z2FII8JUYMCJMAN9","10","0","WEDDING","0","TRAFFIC","1","658","traffic","0","2017-10-10 14:48:28","119997"
"A3HE8VNBXD2BR0","cs_wg_v8_pilot1","3Z4AIRP3C6EF1E06L5CO6VWHA3QX1S","3","0","HELICOPTER","9","BOOKSHELF","0","2066","helicopter","9","2017-10-10 14:48:30","119998"
"A3US51RJ9AWSEE","cs_wg_v8_pilot1","3KMS4QQVK2R07TV7TLCK53S9F4UKFR","23","0","WEDDING","10","HELICOPTER","0","1958","Wedding","10","2017-10-10 14:48:30","119999"
"A1L1SQ488YCCFJ","cs_wg_v8_pilot1","3JPSL1DZ5S06J8Z2FII8JUYMCJMAN9","11","0","BASKET","10","HELICOPTER","1","1522","helicopter","10","2017-10-10 14:48:36","120000"
"A3US51RJ9AWSEE","cs_wg_v8_pilot1","3KMS4QQVK2R07TV7TLCK53S9F4UKFR","24","0","BASKET","10","STOMACH","1","2322","Stomach","10","2017-10-10 14:48:40","120001"
"A1L1SQ488YCCFJ","cs_wg_v8_pilot1","3JPSL1DZ5S06J8Z2FII8JUYMCJMAN9","12","0","STOMACH","2","STRUCTURE","1","1364","structure","2","2017-10-10 14:48:43","120002"
"A3HE8VNBXD2BR0","cs_wg_v8_pilot1","3Z4AIRP3C6EF1E06L5CO6VWHA3QX1S","4","0","COMMUNITY","8","KEYBOARD","1","5268","keyboard","8","2017-10-10 14:48:47","120003"
"A1L1SQ488YCCFJ","cs_wg_v8_pilot1","3JPSL1DZ5S06J8Z2FII8JUYMCJMAN9","13","0","STRUCTURE","10","MACHINE","1","947","machine","10","2017-10-10 14:48:50","120004"
"A3US51RJ9AWSEE","cs_wg_v8_pilot1","3KMS4QQVK2R07TV7TLCK53S9F4UKFR","25","0","BASKET","1","UMBRELLA","0","2825","Basket","1","2017-10-10 14:48:51","120005"
"A3HE8VNBXD2BR0","cs_wg_v8_pilot1","3Z4AIRP3C6EF1E06L5CO6VWHA3QX1S","5","0","BOOKSHELF","0","BASKET","0","930","bookshelf","0","2017-10-10 14:48:57","120006"
"A3US51RJ9AWSEE","cs_wg_v8_pilot1","3KMS4QQVK2R07TV7TLCK53S9F4UKFR","26","0","DOORWAY","8","HELICOPTER","1","2710","Helicopter","8","2017-10-10 14:49:02","120007"
"A1L1SQ488YCCFJ","cs_wg_v8_pilot1","3JPSL1DZ5S06J8Z2FII8JUYMCJMAN9","14","0","TRAFFIC","0","FOOTBALL","0","1820","traffic","0","2017-10-10 14:49:02","120008"
"A3HE8VNBXD2BR0","cs_wg_v8_pilot1","3Z4AIRP3C6EF1E06L5CO6VWHA3QX1S","6","0","COMMUNITY","10","STRUCTURE","1","3535","structure","10","2017-10-10 14:49:10","120009"
"A3US51RJ9AWSEE","cs_wg_v8_pilot1","3KMS4QQVK2R07TV7TLCK53S9F4UKFR","27","0","KEYBOARD","9","BOOKSHELF","0","2941","Keyboard","9","2017-10-10 14:49:12","120010"
"A1L1SQ488YCCFJ","cs_wg_v8_pilot1","3JPSL1DZ5S06J8Z2FII8JUYMCJMAN9","15","0","DOORWAY","1","TRAFFIC","0","1512","doorway","1 ","2017-10-10 14:49:13","120011"
"A3US51RJ9AWSEE","cs_wg_v8_pilot1","3KMS4QQVK2R07TV7TLCK53S9F4UKFR","28","0","DOORWAY","0","FOOTBALL","0","2414","Doorway","0","2017-10-10 14:49:21","120012"
"A3HE8VNBXD2BR0","cs_wg_v8_pilot1","3Z4AIRP3C6EF1E06L5CO6VWHA3QX1S","7","0","WEDDING","9","HELICOPTER","1","2871","helicopter","9","2017-10-10 14:49:22","120013"
"A1L1SQ488YCCFJ","cs_wg_v8_pilot1","3JPSL1DZ5S06J8Z2FII8JUYMCJMAN9","16","0","STRUCTURE","2","LADDER","0","1401","structure","2","2017-10-10 14:49:28","120014"
"A3US51RJ9AWSEE","cs_wg_v8_pilot1","3KMS4QQVK2R07TV7TLCK53S9F4UKFR","29","0","KEYBOARD","9","DOORWAY","0","2045","Keyboard","9","2017-10-10 14:49:31","120015"
"A3HE8VNBXD2BR0","cs_wg_v8_pilot1","3Z4AIRP3C6EF1E06L5CO6VWHA3QX1S","8","0","BOOKSHELF","2","UMBRELLA","1","2666","umbrella","2","2017-10-10 14:49:34","120016"
"A1L1SQ488YCCFJ","cs_wg_v8_pilot1","3JPSL1DZ5S06J8Z2FII8JUYMCJMAN9","17","0","BASKET","8","LADDER","1","1224","ladder","8","2017-10-10 14:49:36","120017"
"A3US51RJ9AWSEE","cs_wg_v8_pilot1","3KMS4QQVK2R07TV7TLCK53S9F4UKFR","30","0","MACHINE","10","LADDER","0","2260","Machine","10","2017-10-10 14:49:41","120018"
"A1L1SQ488YCCFJ","cs_wg_v8_pilot1","3JPSL1DZ5S06J8Z2FII8JUYMCJMAN9","18","0","FOOTBALL","8","KEYBOARD","1","1486","keyboard","8","2017-10-10 14:49:44","120019"
"A3HE8VNBXD2BR0","cs_wg_v8_pilot1","3Z4AIRP3C6EF1E06L5CO6VWHA3QX1S","9","0","UMBRELLA","8","KEYBOARD","1","3624","keyboard","8","2017-10-10 14:49:45","120020"
"A3US51RJ9AWSEE","cs_wg_v8_pilot1","3KMS4QQVK2R07TV7TLCK53S9F4UKFR","31","0","STOMACH","10","MACHINE","0","3194","Stomach","10","2017-10-10 14:49:51","120021"
"A1L1SQ488YCCFJ","cs_wg_v8_pilot1","3JPSL1DZ5S06J8Z2FII8JUYMCJMAN9","19","0","BASKET","1","BOOKSHELF","1","1473","bookshelf","1","2017-10-10 14:49:51","120022"
"A3HE8VNBXD2BR0","cs_wg_v8_pilot1","3Z4AIRP3C6EF1E06L5CO6VWHA3QX1S","10","0","COMMUNITY","1","STOMACH","1","5083","stomach","1","2017-10-10 14:49:56","120023"
"A1L1SQ488YCCFJ","cs_wg_v8_pilot1","3JPSL1DZ5S06J8Z2FII8JUYMCJMAN9","20","0","STRUCTURE","8","KEYBOARD","1","1141","keyboard","8","2017-10-10 14:49:58","120024"
"A3US51RJ9AWSEE","cs_wg_v8_pilot1","3KMS4QQVK2R07TV7TLCK53S9F4UKFR","32","0","FOOTBALL","10","WEDDING","1","2763","Wedding","10","2017-10-10 14:50:01","120025"
"A3HE8VNBXD2BR0","cs_wg_v8_pilot1","3Z4AIRP3C6EF1E06L5CO6VWHA3QX1S","11","0","TRAFFIC","2","HELICOPTER","0","1915","traffic","2","2017-10-10 14:50:05","120026"
"A1L1SQ488YCCFJ","cs_wg_v8_pilot1","3JPSL1DZ5S06J8Z2FII8JUYMCJMAN9","21","0","FOOTBALL","9","BASKET","1","1257","basket","9","2017-10-10 14:50:06","120027"
"A1L1SQ488YCCFJ","cs_wg_v8_pilot1","3JPSL1DZ5S06J8Z2FII8JUYMCJMAN9","22","0","HELICOPTER","10","STRUCTURE","0","1272","helicopter","10","2017-10-10 14:50:13","120028"
"A3US51RJ9AWSEE","cs_wg_v8_pilot1","3KMS4QQVK2R07TV7TLCK53S9F4UKFR","33","0","MACHINE","10","DOORWAY","0","4412","Machine","10","2017-10-10 14:50:14","120029"
"A3HE8VNBXD2BR0","cs_wg_v8_pilot1","3Z4AIRP3C6EF1E06L5CO6VWHA3QX1S","12","0","COMMUNITY","1","FOOTBALL","1","3102","football","1","2017-10-10 14:50:15","120030"
"A1L1SQ488YCCFJ","cs_wg_v8_pilot1","3JPSL1DZ5S06J8Z2FII8JUYMCJMAN9","23","0","FOOTBALL","10","COMMUNITY","1","977","community","10","2017-10-10 14:50:23","120031"
"A3US51RJ9AWSEE","cs_wg_v8_pilot1","3KMS4QQVK2R07TV7TLCK53S9F4UKFR","34","0","STOMACH","10","BOOKSHELF","0","3080","Stomach","10","2017-10-10 14:50:25","120032"
"A3HE8VNBXD2BR0","cs_wg_v8_pilot1","3Z4AIRP3C6EF1E06L5CO6VWHA3QX1S","13","0","WEDDING","8","KEYBOARD","1","6683","keyboad","8","2017-10-10 14:50:28","120033"
"A1L1SQ488YCCFJ","cs_wg_v8_pilot1","3JPSL1DZ5S06J8Z2FII8JUYMCJMAN9","24","0","DOORWAY","9","BASKET","1","2006","basket","9","2017-10-10 14:50:30","120034"
"A3US51RJ9AWSEE","cs_wg_v8_pilot1","3KMS4QQVK2R07TV7TLCK53S9F4UKFR","35","0","UMBRELLA","2","MACHINE","0","2568","Umbrella","2","2017-10-10 14:50:35","120035"
"A1L1SQ488YCCFJ","cs_wg_v8_pilot1","3JPSL1DZ5S06J8Z2FII8JUYMCJMAN9","25","0","STRUCTURE","10","COMMUNITY","1","965","community","10","2017-10-10 14:50:41","120036"
"A3US51RJ9AWSEE","cs_wg_v8_pilot1","3KMS4QQVK2R07TV7TLCK53S9F4UKFR","36","0","UMBRELLA","10","STOMACH","1","1309","Stomach","10","2017-10-10 14:50:44","120037"
"A3HE8VNBXD2BR0","cs_wg_v8_pilot1","3Z4AIRP3C6EF1E06L5CO6VWHA3QX1S","14","0","UMBRELLA","2","DOORWAY","0","9875","umbrella","2","2017-10-10 14:50:45","120038"
"A1L1SQ488YCCFJ","cs_wg_v8_pilot1","3JPSL1DZ5S06J8Z2FII8JUYMCJMAN9","26","0","UMBRELLA","2","STOMACH","0","1740","umbrella","2","2017-10-10 14:50:50","120039"
"A3US51RJ9AWSEE","cs_wg_v8_pilot1","3KMS4QQVK2R07TV7TLCK53S9F4UKFR","37","0","KEYBOARD","10","WEDDING","1","1399","Wedding","10","2017-10-10 14:50:53","120040"
"A3HE8VNBXD2BR0","cs_wg_v8_pilot1","3Z4AIRP3C6EF1E06L5CO6VWHA3QX1S","15","0","BOOKSHELF","10","LADDER","1","3432","ladder","10","2017-10-10 14:50:57","120041"
"A1L1SQ488YCCFJ","cs_wg_v8_pilot1","3JPSL1DZ5S06J8Z2FII8JUYMCJMAN9","27","0","COMMUNITY","10","BASKET","0","1016","community","10","2017-10-10 14:50:58","120042"
"A3US51RJ9AWSEE","cs_wg_v8_pilot1","3KMS4QQVK2R07TV7TLCK53S9F4UKFR","38","0","WEDDING","10","TRAFFIC","0","1387","Wedding","10","2017-10-10 14:51:03","120043"
"A1L1SQ488YCCFJ","cs_wg_v8_pilot1","3JPSL1DZ5S06J8Z2FII8JUYMCJMAN9","28","0","TRAFFIC","10","HELICOPTER","1","1147","helicopter","10","2017-10-10 14:51:09","120044"
"A3HE8VNBXD2BR0","cs_wg_v8_pilot1","3Z4AIRP3C6EF1E06L5CO6VWHA3QX1S","16","0","BASKET","10","TRAFFIC","0","2201","basket","10","2017-10-10 14:51:10","120045"
"A3US51RJ9AWSEE","cs_wg_v8_pilot1","3KMS4QQVK2R07TV7TLCK53S9F4UKFR","39","0","COMMUNITY","0","LADDER","1","7864","Ladder","0","2017-10-10 14:51:18","120046"
"A1L1SQ488YCCFJ","cs_wg_v8_pilot1","3JPSL1DZ5S06J8Z2FII8JUYMCJMAN9","29","0","BOOKSHELF","10","HELICOPTER","1","2746","helicopter","10","2017-10-10 14:51:19","120047"
"A1L1SQ488YCCFJ","cs_wg_v8_pilot1","3JPSL1DZ5S06J8Z2FII8JUYMCJMAN9","30","0","COMMUNITY","10","UMBRELLA","0","1150","community","10","2017-10-10 14:51:27","120048"
"A3US51RJ9AWSEE","cs_wg_v8_pilot1","3KMS4QQVK2R07TV7TLCK53S9F4UKFR","40","0","DOORWAY","0","BASKET","0","2646","doorway","0","2017-10-10 14:51:28","120049"
"A3HE8VNBXD2BR0","cs_wg_v8_pilot1","3Z4AIRP3C6EF1E06L5CO6VWHA3QX1S","17","0","UMBRELLA","9","HELICOPTER","1","15837","helicopter","9","2017-10-10 14:51:35","120050"
"A1L1SQ488YCCFJ","cs_wg_v8_pilot1","3JPSL1DZ5S06J8Z2FII8JUYMCJMAN9","31","0","BASKET","9","MACHINE","0","1021","basket","9","2017-10-10 14:51:35","120051"
"A3US51RJ9AWSEE","cs_wg_v8_pilot1","3KMS4QQVK2R07TV7TLCK53S9F4UKFR","41","0","FOOTBALL","8","HELICOPTER","1","1663","helicopter","8","2017-10-10 14:51:37","120052"
"A1L1SQ488YCCFJ","cs_wg_v8_pilot1","3JPSL1DZ5S06J8Z2FII8JUYMCJMAN9","32","0","TRAFFIC","10","COMMUNITY","1","1546","community","10","2017-10-10 14:51:43","120053"
"A3US51RJ9AWSEE","cs_wg_v8_pilot1","3KMS4QQVK2R07TV7TLCK53S9F4UKFR","42","0","BASKET","10","MACHINE","1","5566","machine","10","2017-10-10 14:51:50","120054"
"A1L1SQ488YCCFJ","cs_wg_v8_pilot1","3JPSL1DZ5S06J8Z2FII8JUYMCJMAN9","33","0","BOOKSHELF","1","STOMACH","0","971","bookshelf","1","2017-10-10 14:51:52","120055"
"A3HE8VNBXD2BR0","cs_wg_v8_pilot1","3Z4AIRP3C6EF1E06L5CO6VWHA3QX1S","18","0","WEDDING","9","MACHINE","0","10170","wedding","9","2017-10-10 14:51:57","120056"
"A3US51RJ9AWSEE","cs_wg_v8_pilot1","3KMS4QQVK2R07TV7TLCK53S9F4UKFR","43","0","STRUCTURE","10","MACHINE","1","1154","machine","10","2017-10-10 14:51:58","120057"
"A1L1SQ488YCCFJ","cs_wg_v8_pilot1","3JPSL1DZ5S06J8Z2FII8JUYMCJMAN9","34","0","COMMUNITY","10","HELICOPTER","1","834","helicopter","10","2017-10-10 14:52:01","120058"
"A3HE8VNBXD2BR0","cs_wg_v8_pilot1","3Z4AIRP3C6EF1E06L5CO6VWHA3QX1S","19","0","KEYBOARD","8","FOOTBALL","0","1252","keyboard","8","2017-10-10 14:52:06","120059"
"A1L1SQ488YCCFJ","cs_wg_v8_pilot1","3JPSL1DZ5S06J8Z2FII8JUYMCJMAN9","35","0","WEDDING","9","KEYBOARD","0","939","wedding","9","2017-10-10 14:52:07","120060"
"A3US51RJ9AWSEE","cs_wg_v8_pilot1","3KMS4QQVK2R07TV7TLCK53S9F4UKFR","44","0","BOOKSHELF","0","LADDER","1","5679","ladder","0","2017-10-10 14:52:11","120061"
"A1L1SQ488YCCFJ","cs_wg_v8_pilot1","3JPSL1DZ5S06J8Z2FII8JUYMCJMAN9","36","0","HELICOPTER","10","DOORWAY","0","1171","helicopter","10","2017-10-10 14:52:18","120062"
"A3US51RJ9AWSEE","cs_wg_v8_pilot1","3KMS4QQVK2R07TV7TLCK53S9F4UKFR","45","0","FOOTBALL","1","LADDER","0","1421","football","1","2017-10-10 14:52:19","120063"
"A3HE8VNBXD2BR0","cs_wg_v8_pilot1","3Z4AIRP3C6EF1E06L5CO6VWHA3QX1S","20","0","KEYBOARD","8","MACHINE","0","3584","keyboard","8","2017-10-10 14:52:20","120064"
"A1L1SQ488YCCFJ","cs_wg_v8_pilot1","3JPSL1DZ5S06J8Z2FII8JUYMCJMAN9","37","0","LADDER","8","STOMACH","0","1162","ladder","8","2017-10-10 14:52:25","120065"
"A3US51RJ9AWSEE","cs_wg_v8_pilot1","3KMS4QQVK2R07TV7TLCK53S9F4UKFR","46","0","KEYBOARD","8","TRAFFIC","1","1920","traffic","8","2017-10-10 14:52:29","120066"
"A3HE8VNBXD2BR0","cs_wg_v8_pilot1","3Z4AIRP3C6EF1E06L5CO6VWHA3QX1S","21","0","LADDER","10","STRUCTURE","1","2012","structure","10","2017-10-10 14:52:33","120067"
"A1L1SQ488YCCFJ","cs_wg_v8_pilot1","3JPSL1DZ5S06J8Z2FII8JUYMCJMAN9","38","0","STOMACH","9","BASKET","1","1409","basket","9","2017-10-10 14:52:33","120068"
"A3US51RJ9AWSEE","cs_wg_v8_pilot1","3KMS4QQVK2R07TV7TLCK53S9F4UKFR","47","0","LADDER","8","HELICOPTER","1","2312","helicopter","8","2017-10-10 14:52:39","120069"
"A1L1SQ488YCCFJ","cs_wg_v8_pilot1","3JPSL1DZ5S06J8Z2FII8JUYMCJMAN9","39","0","HELICOPTER","10","FOOTBALL","0","964","helicopter","10","2017-10-10 14:52:42","120070"
"A3HE8VNBXD2BR0","cs_wg_v8_pilot1","3Z4AIRP3C6EF1E06L5CO6VWHA3QX1S","22","0","STOMACH","0","DOORWAY","1","3390","doorway","0","2017-10-10 14:52:44","120071"
"A3US51RJ9AWSEE","cs_wg_v8_pilot1","3KMS4QQVK2R07TV7TLCK53S9F4UKFR","48","0","TRAFFIC","8","MACHINE","0","1815","traffic","8","2017-10-10 14:52:48","120072"
"A1L1SQ488YCCFJ","cs_wg_v8_pilot1","3JPSL1DZ5S06J8Z2FII8JUYMCJMAN9","40","0","HELICOPTER","10","MACHINE","0","1142","helicopter","10","2017-10-10 14:52:50","120073"
"A3HE8VNBXD2BR0","cs_wg_v8_pilot1","3Z4AIRP3C6EF1E06L5CO6VWHA3QX1S","23","0","STOMACH","1","FOOTBALL","0","2788","stomach","1","2017-10-10 14:52:54","120074"
"A1L1SQ488YCCFJ","cs_wg_v8_pilot1","3JPSL1DZ5S06J8Z2FII8JUYMCJMAN9","41","0","MACHINE","8","LADDER","1","1335","ladder","8","2017-10-10 14:52:57","120075"
"A3US51RJ9AWSEE","cs_wg_v8_pilot1","3KMS4QQVK2R07TV7TLCK53S9F4UKFR","49","0","HELICOPTER","8","MACHINE","0","3050","helicopter","8","2017-10-10 14:52:59","120076"
"A3HE8VNBXD2BR0","cs_wg_v8_pilot1","3Z4AIRP3C6EF1E06L5CO6VWHA3QX1S","24","0","BASKET","10","WEDDING","0","1321","basket","10","2017-10-10 14:53:02","120077"
"A1L1SQ488YCCFJ","cs_wg_v8_pilot1","3JPSL1DZ5S06J8Z2FII8JUYMCJMAN9","42","0","UMBRELLA","8","KEYBOARD","1","1095","keyboard","8","2017-10-10 14:53:07","120078"
"A3US51RJ9AWSEE","cs_wg_v8_pilot1","3KMS4QQVK2R07TV7TLCK53S9F4UKFR","50","0","WEDDING","10","LADDER","0","3745","wedding","10","2017-10-10 14:53:10","120079"
"A3HE8VNBXD2BR0","cs_wg_v8_pilot1","3Z4AIRP3C6EF1E06L5CO6VWHA3QX1S","25","0","DOORWAY","1","FOOTBALL","1","2129","football","1","2017-10-10 14:53:11","120080"
"A1L1SQ488YCCFJ","cs_wg_v8_pilot1","3JPSL1DZ5S06J8Z2FII8JUYMCJMAN9","43","0","KEYBOARD","8","BOOKSHELF","0","1055","keyboard","8","2017-10-10 14:53:14","120081"
"A1L1SQ488YCCFJ","cs_wg_v8_pilot1","3JPSL1DZ5S06J8Z2FII8JUYMCJMAN9","44","0","DOORWAY","2","STRUCTURE","1","1335","structure","2","2017-10-10 14:53:23","120082"
"A3HE8VNBXD2BR0","cs_wg_v8_pilot1","3Z4AIRP3C6EF1E06L5CO6VWHA3QX1S","26","0","MACHINE","8","FOOTBALL","0","3073","machine","8","2017-10-10 14:53:26","120083"
"A3US51RJ9AWSEE","cs_wg_v8_pilot1","3KMS4QQVK2R07TV7TLCK53S9F4UKFR","51","0","TRAFFIC","0","COMMUNITY","1","4217","community","0","2017-10-10 14:53:27","120084"
"A1L1SQ488YCCFJ","cs_wg_v8_pilot1","3JPSL1DZ5S06J8Z2FII8JUYMCJMAN9","45","0","FOOTBALL","2","UMBRELLA","1","1141","umbrella","2","2017-10-10 14:53:32","120085"
"A3HE8VNBXD2BR0","cs_wg_v8_pilot1","3Z4AIRP3C6EF1E06L5CO6VWHA3QX1S","27","0","HELICOPTER","8","KEYBOARD","1","2373","keyboard","8","2017-10-10 14:53:36","120086"
"A1L1SQ488YCCFJ","cs_wg_v8_pilot1","3JPSL1DZ5S06J8Z2FII8JUYMCJMAN9","46","0","STOMACH","8","KEYBOARD","1","1090","keyboard","8","2017-10-10 14:53:39","120087"
"A3US51RJ9AWSEE","cs_wg_v8_pilot1","3KMS4QQVK2R07TV7TLCK53S9F4UKFR","52","0","STOMACH","10","FOOTBALL","0","2050","stomach","10","2017-10-10 14:53:39","120088"
"A1L1SQ488YCCFJ","cs_wg_v8_pilot1","3JPSL1DZ5S06J8Z2FII8JUYMCJMAN9","47","0","KEYBOARD","10","COMMUNITY","1","1029","community","10","2017-10-10 14:53:46","120089"
"A3HE8VNBXD2BR0","cs_wg_v8_pilot1","3Z4AIRP3C6EF1E06L5CO6VWHA3QX1S","28","0","STRUCTURE","10","MACHINE","0","2353","structure","10","2017-10-10 14:53:49","120090"
"A1L1SQ488YCCFJ","cs_wg_v8_pilot1","3JPSL1DZ5S06J8Z2FII8JUYMCJMAN9","48","0","MACHINE","10","DOORWAY","0","1288","machine","10","2017-10-10 14:53:54","120091"
"A3US51RJ9AWSEE","cs_wg_v8_pilot1","3KMS4QQVK2R07TV7TLCK53S9F4UKFR","53","0","MACHINE","10","FOOTBALL","0","2486","machine","10","2017-10-10 14:53:54","120092"
"A3HE8VNBXD2BR0","cs_wg_v8_pilot1","3Z4AIRP3C6EF1E06L5CO6VWHA3QX1S","29","0","DOORWAY","10","STRUCTURE","1","3100","structure","10","2017-10-10 14:54:02","120093"
"A1L1SQ488YCCFJ","cs_wg_v8_pilot1","3JPSL1DZ5S06J8Z2FII8JUYMCJMAN9","49","0","STRUCTURE","2","UMBRELLA","1","1148","umbrella","2","2017-10-10 14:54:02","120094"
"A3US51RJ9AWSEE","cs_wg_v8_pilot1","3KMS4QQVK2R07TV7TLCK53S9F4UKFR","54","0","UMBRELLA","2","STRUCTURE","0","4782","umbrella","2","2017-10-10 14:54:08","120095"
"A1L1SQ488YCCFJ","cs_wg_v8_pilot1","3JPSL1DZ5S06J8Z2FII8JUYMCJMAN9","50","0","STRUCTURE","9","WEDDING","1","968","wedding","9","2017-10-10 14:54:10","120096"
"A3HE8VNBXD2BR0","cs_wg_v8_pilot1","3Z4AIRP3C6EF1E06L5CO6VWHA3QX1S","30","0","WEDDING","9","BOOKSHELF","0","2267","wedding","9","2017-10-10 14:54:13","120097"
"A1L1SQ488YCCFJ","cs_wg_v8_pilot1","3JPSL1DZ5S06J8Z2FII8JUYMCJMAN9","51","0","WEDDING","9","DOORWAY","0","838","wedding","9","2017-10-10 14:54:17","120098"
"A3US51RJ9AWSEE","cs_wg_v8_pilot1","3KMS4QQVK2R07TV7TLCK53S9F4UKFR","55","0","COMMUNITY","0","DOORWAY","1","3228","doorway","0","2017-10-10 14:54:21","120099"
"A2HOUSKURBF8UA","cs_wg_v8_pilot1","33IZTU6J812FVYZ0YOR82WJQ033XSC","0","0","DOORWAY","2","HELICOPTER","1","10069","helicopter","2","2017-10-10 14:54:23","120100"
"A1L1SQ488YCCFJ","cs_wg_v8_pilot1","3JPSL1DZ5S06J8Z2FII8JUYMCJMAN9","52","0","FOOTBALL","2","STRUCTURE","1","1202","structure","2","2017-10-10 14:54:26","120101"
"A3HE8VNBXD2BR0","cs_wg_v8_pilot1","3Z4AIRP3C6EF1E06L5CO6VWHA3QX1S","31","0","LADDER","10","FOOTBALL","0","6899","ladder","10","2017-10-10 14:54:30","120102"
"A3US51RJ9AWSEE","cs_wg_v8_pilot1","3KMS4QQVK2R07TV7TLCK53S9F4UKFR","56","0","STRUCTURE","9","BASKET","0","4660","structure","9","2017-10-10 14:54:37","120103"
"A1L1SQ488YCCFJ","cs_wg_v8_pilot1","3JPSL1DZ5S06J8Z2FII8JUYMCJMAN9","53","0","UMBRELLA","9","WEDDING","1","986","wedding","9","2017-10-10 14:54:38","120104"
"A3HE8VNBXD2BR0","cs_wg_v8_pilot1","3Z4AIRP3C6EF1E06L5CO6VWHA3QX1S","32","0","HELICOPTER","9","STOMACH","0","1943","helicopter","9","2017-10-10 14:54:39","120105"
"A2HOUSKURBF8UA","cs_wg_v8_pilot1","33IZTU6J812FVYZ0YOR82WJQ033XSC","1","0","KEYBOARD","0","BOOKSHELF","1","3594","bookshelf","0","2017-10-10 14:54:40","120106"
"A1L1SQ488YCCFJ","cs_wg_v8_pilot1","3JPSL1DZ5S06J8Z2FII8JUYMCJMAN9","54","0","COMMUNITY","9","WEDDING","1","919","wedding","9","2017-10-10 14:54:45","120107"
"A3US51RJ9AWSEE","cs_wg_v8_pilot1","3KMS4QQVK2R07TV7TLCK53S9F4UKFR","57","0","DOORWAY","8","TRAFFIC","1","3023","traffic","8","2017-10-10 14:54:48","120108"
"A3HE8VNBXD2BR0","cs_wg_v8_pilot1","3Z4AIRP3C6EF1E06L5CO6VWHA3QX1S","33","0","BASKET","10","COMMUNITY","0","2968","basket","10","2017-10-10 14:54:52","120109"
"A1L1SQ488YCCFJ","cs_wg_v8_pilot1","3JPSL1DZ5S06J8Z2FII8JUYMCJMAN9","55","0","LADDER","8","UMBRELLA","0","1699","ladder","8","2017-10-10 14:54:53","120110"
"A2HOUSKURBF8UA","cs_wg_v8_pilot1","33IZTU6J812FVYZ0YOR82WJQ033XSC","2","0","HELICOPTER","8","KEYBOARD","1","3479","keyboard","8","2017-10-10 14:54:56","120111"
"A1L1SQ488YCCFJ","cs_wg_v8_pilot1","3JPSL1DZ5S06J8Z2FII8JUYMCJMAN9","56","0","WEDDING","9","BASKET","0","669","wedding","9","2017-10-10 14:55:03","120112"
"A3HE8VNBXD2BR0","cs_wg_v8_pilot1","3Z4AIRP3C6EF1E06L5CO6VWHA3QX1S","34","0","TRAFFIC","2","COMMUNITY","0","4921","traffic","2","2017-10-10 14:55:04","120113"
"A3US51RJ9AWSEE","cs_wg_v8_pilot1","3KMS4QQVK2R07TV7TLCK53S9F4UKFR","58","0","UMBRELLA","2","BOOKSHELF","1","6121","bookshelf","2","2017-10-10 14:55:07","120114"
"A1L1SQ488YCCFJ","cs_wg_v8_pilot1","3JPSL1DZ5S06J8Z2FII8JUYMCJMAN9","57","0","FOOTBALL","0","STOMACH","1","1039","stomach","0","2017-10-10 14:55:09","120115"
"A3HE8VNBXD2BR0","cs_wg_v8_pilot1","3Z4AIRP3C6EF1E06L5CO6VWHA3QX1S","35","0","BASKET","10","STOMACH","0","1123","basket","10","2017-10-10 14:55:14","120116"
"A2HOUSKURBF8UA","cs_wg_v8_pilot1","33IZTU6J812FVYZ0YOR82WJQ033XSC","3","0","LADDER","9","BASKET","0","4424","ladder","9","2017-10-10 14:55:14","120117"
"A1L1SQ488YCCFJ","cs_wg_v8_pilot1","3JPSL1DZ5S06J8Z2FII8JUYMCJMAN9","58","0","LADDER","10","COMMUNITY","1","1299","community","10","2017-10-10 14:55:17","120118"
"A3US51RJ9AWSEE","cs_wg_v8_pilot1","3KMS4QQVK2R07TV7TLCK53S9F4UKFR","59","0","WEDDING","10","COMMUNITY","0","3230","wedding","10","2017-10-10 14:55:24","120119"
"A3HE8VNBXD2BR0","cs_wg_v8_pilot1","3Z4AIRP3C6EF1E06L5CO6VWHA3QX1S","36","0","HELICOPTER","10","STRUCTURE","1","2187","structure","10","2017-10-10 14:55:24","120120"
"A1L1SQ488YCCFJ","cs_wg_v8_pilot1","3JPSL1DZ5S06J8Z2FII8JUYMCJMAN9","59","0","WEDDING","9","MACHINE","0","761","wedding","9","2017-10-10 14:55:26","120121"
"A2HOUSKURBF8UA","cs_wg_v8_pilot1","33IZTU6J812FVYZ0YOR82WJQ033XSC","4","0","LADDER","9","MACHINE","0","3294","ladder","9","2017-10-10 14:55:27","120122"
"A1L1SQ488YCCFJ","cs_wg_v8_pilot1","3JPSL1DZ5S06J8Z2FII8JUYMCJMAN9","60","0","WEDDING","10","HELICOPTER","1","959","helicopter","10","2017-10-10 14:55:33","120123"
"A3US51RJ9AWSEE","cs_wg_v8_pilot1","3KMS4QQVK2R07TV7TLCK53S9F4UKFR","60","0","STOMACH","10","HELICOPTER","0","1125","stomach","10","2017-10-10 14:55:34","120124"
"A3HE8VNBXD2BR0","cs_wg_v8_pilot1","3Z4AIRP3C6EF1E06L5CO6VWHA3QX1S","37","0","BOOKSHELF","8","MACHINE","1","2010","machine","8","2017-10-10 14:55:40","120125"
"A1L1SQ488YCCFJ","cs_wg_v8_pilot1","3JPSL1DZ5S06J8Z2FII8JUYMCJMAN9","61","0","UMBRELLA","2","BOOKSHELF","0","1547","umbrella","2","2017-10-10 14:55:41","120126"
"AM8OWAW9TUVLN","cs_wg_v8_pilot1","3LWJHTCVCCNMIWT26QWH1P4IEAMFQE","0","0","DOORWAY","2","FOOTBALL","0","3485","doorway","2","2017-10-10 14:55:42","120127"
"A2HOUSKURBF8UA","cs_wg_v8_pilot1","33IZTU6J812FVYZ0YOR82WJQ033XSC","5","0","KEYBOARD","8","COMMUNITY","0","5333","keyboard","8","2017-10-10 14:55:45","120128"
"A3US51RJ9AWSEE","cs_wg_v8_pilot1","3KMS4QQVK2R07TV7TLCK53S9F4UKFR","61","0","UMBRELLA","0","LADDER","1","2940","ladder","0","2017-10-10 14:55:47","120129"
"A1L1SQ488YCCFJ","cs_wg_v8_pilot1","3JPSL1DZ5S06J8Z2FII8JUYMCJMAN9","62","0","STRUCTURE","1","BOOKSHELF","1","1343","bookshelf","1","2017-10-10 14:55:48","120130"
"A3HE8VNBXD2BR0","cs_wg_v8_pilot1","3Z4AIRP3C6EF1E06L5CO6VWHA3QX1S","38","0","LADDER","10","KEYBOARD","0","3403","ladder","10","2017-10-10 14:55:51","120131"
"AM8OWAW9TUVLN","cs_wg_v8_pilot1","3LWJHTCVCCNMIWT26QWH1P4IEAMFQE","1","0","UMBRELLA","8","KEYBOARD","0","1662","umbrella","8","2017-10-10 14:55:52","120132"
"A1L1SQ488YCCFJ","cs_wg_v8_pilot1","3JPSL1DZ5S06J8Z2FII8JUYMCJMAN9","63","0","MACHINE","10","BOOKSHELF","0","1506","machine","10","2017-10-10 14:55:56","120133"
"A3US51RJ9AWSEE","cs_wg_v8_pilot1","3KMS4QQVK2R07TV7TLCK53S9F4UKFR","62","0","COMMUNITY","9","STRUCTURE","1","2624","structure","9","2017-10-10 14:56:00","120134"
"AM8OWAW9TUVLN","cs_wg_v8_pilot1","3LWJHTCVCCNMIWT26QWH1P4IEAMFQE","2","0","MACHINE","8","UMBRELLA","1","2761","umbrella","8","2017-10-10 14:56:02","120135"
"A3HE8VNBXD2BR0","cs_wg_v8_pilot1","3Z4AIRP3C6EF1E06L5CO6VWHA3QX1S","39","0","UMBRELLA","2","STOMACH","0","2149","umbrella","2","2017-10-10 14:56:03","120136"
"A1L1SQ488YCCFJ","cs_wg_v8_pilot1","3JPSL1DZ5S06J8Z2FII8JUYMCJMAN9","64","0","KEYBOARD","8","DOORWAY","0","1033","keyboard","8","2017-10-10 14:56:04","120137"
"A2HOUSKURBF8UA","cs_wg_v8_pilot1","33IZTU6J812FVYZ0YOR82WJQ033XSC","6","0","BOOKSHELF","10","COMMUNITY","1","4384","community","10","2017-10-10 14:56:05","120138"
"AM8OWAW9TUVLN","cs_wg_v8_pilot1","3LWJHTCVCCNMIWT26QWH1P4IEAMFQE","3","0","UMBRELLA","8","DOORWAY","0","1458","umbrella","8","2017-10-10 14:56:13","120139"
"A3US51RJ9AWSEE","cs_wg_v8_pilot1","3KMS4QQVK2R07TV7TLCK53S9F4UKFR","63","0","HELICOPTER","8","KEYBOARD","0","2133","helicopter","8","2017-10-10 14:56:13","120140"
"A1L1SQ488YCCFJ","cs_wg_v8_pilot1","3JPSL1DZ5S06J8Z2FII8JUYMCJMAN9","65","0","BOOKSHELF","1","FOOTBALL","0","1374","bookshelf","1","2017-10-10 14:56:13","120141"
"A3HE8VNBXD2BR0","cs_wg_v8_pilot1","3Z4AIRP3C6EF1E06L5CO6VWHA3QX1S","40","0","STRUCTURE","10","BASKET","0","3287","structure","10","2017-10-10 14:56:16","120142"
"A1L1SQ488YCCFJ","cs_wg_v8_pilot1","3JPSL1DZ5S06J8Z2FII8JUYMCJMAN9","66","0","DOORWAY","2","UMBRELLA","1","2046","umbrella","2","2017-10-10 14:56:23","120143"
"A2HOUSKURBF8UA","cs_wg_v8_pilot1","33IZTU6J812FVYZ0YOR82WJQ033XSC","7","0","MACHINE","10","TRAFFIC","1","5869","traffic","10","2017-10-10 14:56:23","120144"
"A3US51RJ9AWSEE","cs_wg_v8_pilot1","3KMS4QQVK2R07TV7TLCK53S9F4UKFR","64","0","STOMACH","10","LADDER","0","1275","stomach","10","2017-10-10 14:56:24","120145"
"AM8OWAW9TUVLN","cs_wg_v8_pilot1","3LWJHTCVCCNMIWT26QWH1P4IEAMFQE","4","0","BASKET","9","MACHINE","1","4390","machine","9","2017-10-10 14:56:24","120146"
"A3HE8VNBXD2BR0","cs_wg_v8_pilot1","3Z4AIRP3C6EF1E06L5CO6VWHA3QX1S","41","0","MACHINE","8","TRAFFIC","0","1565","machine","8","2017-10-10 14:56:25","120147"
"A1L1SQ488YCCFJ","cs_wg_v8_pilot1","3JPSL1DZ5S06J8Z2FII8JUYMCJMAN9","67","0","BASKET","9","UMBRELLA","0","1021","basket","8","2017-10-10 14:56:33","120148"
"A3US51RJ9AWSEE","cs_wg_v8_pilot1","3KMS4QQVK2R07TV7TLCK53S9F4UKFR","65","0","HELICOPTER","8","TRAFFIC","0","2414","helicopter","8","2017-10-10 14:56:36","120149"
"A2HOUSKURBF8UA","cs_wg_v8_pilot1","33IZTU6J812FVYZ0YOR82WJQ033XSC","8","0","STRUCTURE","9","BOOKSHELF","0","3110","structure","9","2017-10-10 14:56:39","120150"
"A1L1SQ488YCCFJ","cs_wg_v8_pilot1","3JPSL1DZ5S06J8Z2FII8JUYMCJMAN9","68","0","MACHINE","10","TRAFFIC","0","1186","machine","10","2017-10-10 14:56:41","120151"
"AM8OWAW9TUVLN","cs_wg_v8_pilot1","3LWJHTCVCCNMIWT26QWH1P4IEAMFQE","5","0","BASKET","9","DOORWAY","0","2384","basket","9","2017-10-10 14:56:45","120152"
"A3US51RJ9AWSEE","cs_wg_v8_pilot1","3KMS4QQVK2R07TV7TLCK53S9F4UKFR","66","0","MACHINE","10","BOOKSHELF","0","2942","machine","10","2017-10-10 14:56:48","120153"
"A3HE8VNBXD2BR0","cs_wg_v8_pilot1","3Z4AIRP3C6EF1E06L5CO6VWHA3QX1S","42","0","TRAFFIC","2","DOORWAY","0","16328","traffic","2","2017-10-10 14:56:48","120154"
"A1L1SQ488YCCFJ","cs_wg_v8_pilot1","3JPSL1DZ5S06J8Z2FII8JUYMCJMAN9","69","0","DOORWAY","8","LADDER","1","1211","ladder","8","2017-10-10 14:56:49","120155"
"AM8OWAW9TUVLN","cs_wg_v8_pilot1","3LWJHTCVCCNMIWT26QWH1P4IEAMFQE","6","0","COMMUNITY","8","UMBRELLA","1","1338","umbrella","8","2017-10-10 14:56:52","120156"
"A2HOUSKURBF8UA","cs_wg_v8_pilot1","33IZTU6J812FVYZ0YOR82WJQ033XSC","9","0","STRUCTURE","9","HELICOPTER","0","2193","structure","9","2017-10-10 14:56:53","120157"
"A1L1SQ488YCCFJ","cs_wg_v8_pilot1","3JPSL1DZ5S06J8Z2FII8JUYMCJMAN9","70","0","TRAFFIC","9","BASKET","1","1041","basket","9","2017-10-10 14:56:58","120158"
"A3HE8VNBXD2BR0","cs_wg_v8_pilot1","3Z4AIRP3C6EF1E06L5CO6VWHA3QX1S","43","0","COMMUNITY","0","BOOKSHELF","1","2546","bookshelf","0","2017-10-10 14:56:59","120159"
"A3US51RJ9AWSEE","cs_wg_v8_pilot1","3KMS4QQVK2R07TV7TLCK53S9F4UKFR","67","0","LADDER","1","BASKET","1","2765","basket","1","2017-10-10 14:57:01","120160"
"AM8OWAW9TUVLN","cs_wg_v8_pilot1","3LWJHTCVCCNMIWT26QWH1P4IEAMFQE","7","0","WEDDING","9","BASKET","1","4867","basket","9","2017-10-10 14:57:04","120161"
"A1L1SQ488YCCFJ","cs_wg_v8_pilot1","3JPSL1DZ5S06J8Z2FII8JUYMCJMAN9","71","0","STRUCTURE","9","BASKET","1","883","basket","9","2017-10-10 14:57:05","120162"
"A2HOUSKURBF8UA","cs_wg_v8_pilot1","33IZTU6J812FVYZ0YOR82WJQ033XSC","10","0","FOOTBALL","0","UMBRELLA","1","3178","umbrella","0","2017-10-10 14:57:08","120163"
"A3US51RJ9AWSEE","cs_wg_v8_pilot1","3KMS4QQVK2R07TV7TLCK53S9F4UKFR","68","0","BASKET","10","WEDDING","1","1488","wedding","10","2017-10-10 14:57:11","120164"
"A3HE8VNBXD2BR0","cs_wg_v8_pilot1","3Z4AIRP3C6EF1E06L5CO6VWHA3QX1S","44","0","FOOTBALL","9","HELICOPTER","1","5488","helicopter","9","2017-10-10 14:57:12","120165"
"AM8OWAW9TUVLN","cs_wg_v8_pilot1","3LWJHTCVCCNMIWT26QWH1P4IEAMFQE","8","0","HELICOPTER","1","FOOTBALL","0","1473","helicopter","1","2017-10-10 14:57:14","120166"
"A1L1SQ488YCCFJ","cs_wg_v8_pilot1","3JPSL1DZ5S06J8Z2FII8JUYMCJMAN9","72","0","BOOKSHELF","10","COMMUNITY","1","936","community","10","2017-10-10 14:57:14","120167"
"AM8OWAW9TUVLN","cs_wg_v8_pilot1","3LWJHTCVCCNMIWT26QWH1P4IEAMFQE","9","0","TRAFFIC","2","STOMACH","1","1481","stomach","3","2017-10-10 14:57:22","120168"
"A1L1SQ488YCCFJ","cs_wg_v8_pilot1","3JPSL1DZ5S06J8Z2FII8JUYMCJMAN9","73","0","WEDDING","9","LADDER","0","763","wedding","9","2017-10-10 14:57:22","120169"
"A3US51RJ9AWSEE","cs_wg_v8_pilot1","3KMS4QQVK2R07TV7TLCK53S9F4UKFR","69","0","BOOKSHELF","8","TRAFFIC","1","2761","traffic","8","2017-10-10 14:57:23","120170"
"A2HOUSKURBF8UA","cs_wg_v8_pilot1","33IZTU6J812FVYZ0YOR82WJQ033XSC","11","0","COMMUNITY","10","UMBRELLA","0","1943","community","10","2017-10-10 14:57:24","120171"
"A3HE8VNBXD2BR0","cs_wg_v8_pilot1","3Z4AIRP3C6EF1E06L5CO6VWHA3QX1S","45","0","UMBRELLA","2","FOOTBALL","0","5615","umbrella","2","2017-10-10 14:57:26","120172"
"A1L1SQ488YCCFJ","cs_wg_v8_pilot1","3JPSL1DZ5S06J8Z2FII8JUYMCJMAN9","74","0","MACHINE","10","KEYBOARD","0","879","machine","10","2017-10-10 14:57:29","120173"
"AM8OWAW9TUVLN","cs_wg_v8_pilot1","3LWJHTCVCCNMIWT26QWH1P4IEAMFQE","10","0","STOMACH","9","MACHINE","1","1621","machine","9","2017-10-10 14:57:32","120174"
"A3HE8VNBXD2BR0","cs_wg_v8_pilot1","3Z4AIRP3C6EF1E06L5CO6VWHA3QX1S","46","0","FOOTBALL","9","WEDDING","1","2436","wedding","9","2017-10-10 14:57:35","120175"
"A3US51RJ9AWSEE","cs_wg_v8_pilot1","3KMS4QQVK2R07TV7TLCK53S9F4UKFR","70","0","KEYBOARD","9","LADDER","0","2278","keyboard","9","2017-10-10 14:57:35","120176"
"AM8OWAW9TUVLN","cs_wg_v8_pilot1","3LWJHTCVCCNMIWT26QWH1P4IEAMFQE","11","0","TRAFFIC","9","MACHINE","1","1131","machine","9","2017-10-10 14:57:39","120177"
"A1L1SQ488YCCFJ","cs_wg_v8_pilot1","3JPSL1DZ5S06J8Z2FII8JUYMCJMAN9","75","0","MACHINE","10","COMMUNITY","1","3514","community","10","2017-10-10 14:57:40","120178"
"A3HE8VNBXD2BR0","cs_wg_v8_pilot1","3Z4AIRP3C6EF1E06L5CO6VWHA3QX1S","47","0","LADDER","10","HELICOPTER","0","2534","ladder","10","2017-10-10 14:57:45","120179"
"A2HOUSKURBF8UA","cs_wg_v8_pilot1","33IZTU6J812FVYZ0YOR82WJQ033XSC","12","0","HELICOPTER","2","BOOKSHELF","0","6067","helicopter","2","2017-10-10 14:57:46","120180"
"A3US51RJ9AWSEE","cs_wg_v8_pilot1","3KMS4QQVK2R07TV7TLCK53S9F4UKFR","71","0","STOMACH","10","WEDDING","0","3311","stomach","10","2017-10-10 14:57:48","120181"
"A1L1SQ488YCCFJ","cs_wg_v8_pilot1","3JPSL1DZ5S06J8Z2FII8JUYMCJMAN9","76","0","KEYBOARD","10","HELICOPTER","1","886","helicopter","10","2017-10-10 14:57:49","120182"
"AM8OWAW9TUVLN","cs_wg_v8_pilot1","3LWJHTCVCCNMIWT26QWH1P4IEAMFQE","12","0","BASKET","9","HELICOPTER","0","2906","basket","9","2017-10-10 14:57:50","120183"
"A1L1SQ488YCCFJ","cs_wg_v8_pilot1","3JPSL1DZ5S06J8Z2FII8JUYMCJMAN9","77","0","STOMACH","10","MACHINE","1","1063","machine","10","2017-10-10 14:57:55","120184"
"A3HE8VNBXD2BR0","cs_wg_v8_pilot1","3Z4AIRP3C6EF1E06L5CO6VWHA3QX1S","48","0","KEYBOARD","8","TRAFFIC","0","1318","keyboard","8","2017-10-10 14:57:57","120185"
"AM8OWAW9TUVLN","cs_wg_v8_pilot1","3LWJHTCVCCNMIWT26QWH1P4IEAMFQE","13","0","HELICOPTER","10","STRUCTURE","1","1497","structure","10","2017-10-10 14:57:58","120186"
"A3US51RJ9AWSEE","cs_wg_v8_pilot1","3KMS4QQVK2R07TV7TLCK53S9F4UKFR","72","0","TRAFFIC","8","UMBRELLA","0","2198","traffic","8","2017-10-10 14:57:59","120187"
"A2HOUSKURBF8UA","cs_wg_v8_pilot1","33IZTU6J812FVYZ0YOR82WJQ033XSC","13","0","MACHINE","0","BOOKSHELF","1","7611","bookshelf","0","2017-10-10 14:58:06","120188"
"A3HE8VNBXD2BR0","cs_wg_v8_pilot1","3Z4AIRP3C6EF1E06L5CO6VWHA3QX1S","49","0","DOORWAY","10","BASKET","1","1692","basket","10","2017-10-10 14:58:06","120189"
"A1L1SQ488YCCFJ","cs_wg_v8_pilot1","3JPSL1DZ5S06J8Z2FII8JUYMCJMAN9","78","0","TRAFFIC","1","BOOKSHELF","1","1221","bookshelf","1","2017-10-10 14:58:07","120190"
"AM8OWAW9TUVLN","cs_wg_v8_pilot1","3LWJHTCVCCNMIWT26QWH1P4IEAMFQE","14","0","LADDER","1","COMMUNITY","0","4455","ladder","1","2017-10-10 14:58:09","120191"
"A1L1SQ488YCCFJ","cs_wg_v8_pilot1","3JPSL1DZ5S06J8Z2FII8JUYMCJMAN9","79","0","TRAFFIC","0","STOMACH","0","1054","traffic","0","2017-10-10 14:58:14","120192"
"A3US51RJ9AWSEE","cs_wg_v8_pilot1","3KMS4QQVK2R07TV7TLCK53S9F4UKFR","73","0","WEDDING","10","UMBRELLA","0","6776","wedding","10","2017-10-10 14:58:16","120193"
"A3HE8VNBXD2BR0","cs_wg_v8_pilot1","3Z4AIRP3C6EF1E06L5CO6VWHA3QX1S","50","0","LADDER","10","COMMUNITY","0","2290","ladder","10","2017-10-10 14:58:16","120194"
"AM8OWAW9TUVLN","cs_wg_v8_pilot1","3LWJHTCVCCNMIWT26QWH1P4IEAMFQE","15","0","TRAFFIC","0","DOORWAY","0","1348","traffic","0","2017-10-10 14:58:18","120195"
"A1L1SQ488YCCFJ","cs_wg_v8_pilot1","3JPSL1DZ5S06J8Z2FII8JUYMCJMAN9","80","0","HELICOPTER","10","UMBRELLA","0","879","helicopter","10","2017-10-10 14:58:23","120196"
"A2HOUSKURBF8UA","cs_wg_v8_pilot1","33IZTU6J812FVYZ0YOR82WJQ033XSC","14","0","TRAFFIC","10","COMMUNITY","0","4716","traffic","10","2017-10-10 14:58:23","120197"
"A3HE8VNBXD2BR0","cs_wg_v8_pilot1","3Z4AIRP3C6EF1E06L5CO6VWHA3QX1S","51","0","STOMACH","10","LADDER","1","1761","ladder","10","2017-10-10 14:58:25","120198"
"AM8OWAW9TUVLN","cs_wg_v8_pilot1","3LWJHTCVCCNMIWT26QWH1P4IEAMFQE","16","0","BOOKSHELF","0","WEDDING","1","1211","wedding","0","2017-10-10 14:58:27","120199"
"A3US51RJ9AWSEE","cs_wg_v8_pilot1","3KMS4QQVK2R07TV7TLCK53S9F4UKFR","74","0","HELICOPTER","8","BOOKSHELF","0","1363","helicopter","8","2017-10-10 14:58:30","120200"
"A1L1SQ488YCCFJ","cs_wg_v8_pilot1","3JPSL1DZ5S06J8Z2FII8JUYMCJMAN9","81","0","DOORWAY","1","BOOKSHELF","1","987","bookshelf","1","2017-10-10 14:58:31","120201"
"AM8OWAW9TUVLN","cs_wg_v8_pilot1","3LWJHTCVCCNMIWT26QWH1P4IEAMFQE","17","0","HELICOPTER","10","KEYBOARD","1","1317","keyboard","10","2017-10-10 14:58:35","120202"
"A2HOUSKURBF8UA","cs_wg_v8_pilot1","33IZTU6J812FVYZ0YOR82WJQ033XSC","15","0","WEDDING","8","HELICOPTER","0","2479","wedding","8","2017-10-10 14:58:38","120203"
"A1L1SQ488YCCFJ","cs_wg_v8_pilot1","3JPSL1DZ5S06J8Z2FII8JUYMCJMAN9","82","0","STOMACH","10","COMMUNITY","1","957","community","10","2017-10-10 14:58:38","120204"
"A3HE8VNBXD2BR0","cs_wg_v8_pilot1","3Z4AIRP3C6EF1E06L5CO6VWHA3QX1S","52","0","STRUCTURE","10","TRAFFIC","0","6506","structure","10","2017-10-10 14:58:40","120205"
"A3US51RJ9AWSEE","cs_wg_v8_pilot1","3KMS4QQVK2R07TV7TLCK53S9F4UKFR","75","0","UMBRELLA","2","COMMUNITY","0","5479","umbrella","2","2017-10-10 14:58:45","120206"
"AM8OWAW9TUVLN","cs_wg_v8_pilot1","3LWJHTCVCCNMIWT26QWH1P4IEAMFQE","18","0","COMMUNITY","0","BOOKSHELF","1","2568","bookshelf","0","2017-10-10 14:58:46","120207"
"A1L1SQ488YCCFJ","cs_wg_v8_pilot1","3JPSL1DZ5S06J8Z2FII8JUYMCJMAN9","83","0","TRAFFIC","8","LADDER","1","1056","ladder","8","2017-10-10 14:58:46","120208"
"A3HE8VNBXD2BR0","cs_wg_v8_pilot1","3Z4AIRP3C6EF1E06L5CO6VWHA3QX1S","53","0","KEYBOARD","8","DOORWAY","0","1333","keyboard","8","2017-10-10 14:58:48","120209"
"A1L1SQ488YCCFJ","cs_wg_v8_pilot1","3JPSL1DZ5S06J8Z2FII8JUYMCJMAN9","84","0","KEYBOARD","8","BASKET","0","1176","keyboard","8","2017-10-10 14:58:53","120210"
"A2HOUSKURBF8UA","cs_wg_v8_pilot1","33IZTU6J812FVYZ0YOR82WJQ033XSC","16","0","UMBRELLA","8","KEYBOARD","1","3643","keyboard","8","2017-10-10 14:58:53","120211"
"AM8OWAW9TUVLN","cs_wg_v8_pilot1","3LWJHTCVCCNMIWT26QWH1P4IEAMFQE","19","0","COMMUNITY","9","BASKET","1","1176","basket","9","2017-10-10 14:58:53","120212"
"A3HE8VNBXD2BR0","cs_wg_v8_pilot1","3Z4AIRP3C6EF1E06L5CO6VWHA3QX1S","54","0","STRUCTURE","10","UMBRELLA","0","1018","structure","10","2017-10-10 14:58:56","120213"
"A3US51RJ9AWSEE","cs_wg_v8_pilot1","3KMS4QQVK2R07TV7TLCK53S9F4UKFR","76","0","STRUCTURE","9","TRAFFIC","0","3740","structure","9","2017-10-10 14:58:59","120214"
"AM8OWAW9TUVLN","cs_wg_v8_pilot1","3LWJHTCVCCNMIWT26QWH1P4IEAMFQE","20","0","DOORWAY","9","MACHINE","1","1212","machine","9","2017-10-10 14:59:00","120215"
"A1L1SQ488YCCFJ","cs_wg_v8_pilot1","3JPSL1DZ5S06J8Z2FII8JUYMCJMAN9","85","0","DOORWAY","10","COMMUNITY","1","846","community","10","2017-10-10 14:59:00","120216"
"A3HE8VNBXD2BR0","cs_wg_v8_pilot1","3Z4AIRP3C6EF1E06L5CO6VWHA3QX1S","55","0","TRAFFIC","2","BOOKSHELF","0","1446","traffic","2","2017-10-10 14:59:04","120217"
"A1L1SQ488YCCFJ","cs_wg_v8_pilot1","3JPSL1DZ5S06J8Z2FII8JUYMCJMAN9","86","0","KEYBOARD","8","LADDER","0","768","keyboard","8","2017-10-10 14:59:06","120218"
"AM8OWAW9TUVLN","cs_wg_v8_pilot1","3LWJHTCVCCNMIWT26QWH1P4IEAMFQE","21","0","STRUCTURE","9","BASKET","1","1101","basket","9","2017-10-10 14:59:07","120219"
"A2HOUSKURBF8UA","cs_wg_v8_pilot1","33IZTU6J812FVYZ0YOR82WJQ033XSC","17","0","UMBRELLA","10","TRAFFIC","1","4074","traffic","10","2017-10-10 14:59:08","120220"
"A3US51RJ9AWSEE","cs_wg_v8_pilot1","3KMS4QQVK2R07TV7TLCK53S9F4UKFR","77","0","COMMUNITY","10","STOMACH","1","2471","stomach","10","2017-10-10 14:59:10","120221"
"A3HE8VNBXD2BR0","cs_wg_v8_pilot1","3Z4AIRP3C6EF1E06L5CO6VWHA3QX1S","56","0","WEDDING","9","TRAFFIC","0","825","wedding","9","2017-10-10 14:59:11","120222"
"A1QVNF19XSRSD7","cs_wg_v8_pilot1","33NF62TLXJ3GCVH3CB35K1K18BBKJU","0","0","LADDER","9","UMBRELLA","1","3450","umbrella","9","2017-10-10 14:59:13","120223"
"A1L1SQ488YCCFJ","cs_wg_v8_pilot1","3JPSL1DZ5S06J8Z2FII8JUYMCJMAN9","87","0","HELICOPTER","10","LADDER","0","1066","helicopter","10","2017-10-10 14:59:14","120224"
"AM8OWAW9TUVLN","cs_wg_v8_pilot1","3LWJHTCVCCNMIWT26QWH1P4IEAMFQE","22","0","LADDER","10","STRUCTURE","1","973","structure","10","2017-10-10 14:59:15","120225"
"A3HE8VNBXD2BR0","cs_wg_v8_pilot1","3Z4AIRP3C6EF1E06L5CO6VWHA3QX1S","57","0","COMMUNITY","9","WEDDING","1","1496","wedding","9","2017-10-10 14:59:18","120226"
"A1L1SQ488YCCFJ","cs_wg_v8_pilot1","3JPSL1DZ5S06J8Z2FII8JUYMCJMAN9","88","0","BOOKSHELF","8","LADDER","1","1514","ladder","8","2017-10-10 14:59:21","120227"
"A3US51RJ9AWSEE","cs_wg_v8_pilot1","3KMS4QQVK2R07TV7TLCK53S9F4UKFR","78","0","UMBRELLA","2","FOOTBALL","0","2154","umbrella","2","2017-10-10 14:59:21","120228"
"AM8OWAW9TUVLN","cs_wg_v8_pilot1","3LWJHTCVCCNMIWT26QWH1P4IEAMFQE","23","0","WEDDING","8","UMBRELLA","1","1225","umbrella","8","2017-10-10 14:59:23","120229"
"A1QVNF19XSRSD7","cs_wg_v8_pilot1","33NF62TLXJ3GCVH3CB35K1K18BBKJU","1","0","LADDER","8","BASKET","0","1818","ladder","8","2017-10-10 14:59:26","120230"
"A3HE8VNBXD2BR0","cs_wg_v8_pilot1","3Z4AIRP3C6EF1E06L5CO6VWHA3QX1S","58","0","MACHINE","8","STOMACH","0","888","machine","8","2017-10-10 14:59:26","120231"
"A2HOUSKURBF8UA","cs_wg_v8_pilot1","33IZTU6J812FVYZ0YOR82WJQ033XSC","18","0","STRUCTURE","9","KEYBOARD","0","4193","structure","9","2017-10-10 14:59:27","120232"
"A1L1SQ488YCCFJ","cs_wg_v8_pilot1","3JPSL1DZ5S06J8Z2FII8JUYMCJMAN9","89","0","STOMACH","1","DOORWAY","1","1396","doorway","1","2017-10-10 14:59:29","120233"
"A3US51RJ9AWSEE","cs_wg_v8_pilot1","3KMS4QQVK2R07TV7TLCK53S9F4UKFR","79","0","BOOKSHELF","10","WEDDING","1","1367","wedding","10","2017-10-10 14:59:31","120234"
"AM8OWAW9TUVLN","cs_wg_v8_pilot1","3LWJHTCVCCNMIWT26QWH1P4IEAMFQE","24","0","FOOTBALL","8","COMMUNITY","1","945","community","8","2017-10-10 14:59:31","120235"
"A3HE8VNBXD2BR0","cs_wg_v8_pilot1","3Z4AIRP3C6EF1E06L5CO6VWHA3QX1S","59","0","MACHINE","8","LADDER","0","941","machine","8","2017-10-10 14:59:34","120236"
"A1QVNF19XSRSD7","cs_wg_v8_pilot1","33NF62TLXJ3GCVH3CB35K1K18BBKJU","2","0","TRAFFIC","0","BOOKSHELF","0","2304","traffic","0","2017-10-10 14:59:38","120237"
"A1L1SQ488YCCFJ","cs_wg_v8_pilot1","3JPSL1DZ5S06J8Z2FII8JUYMCJMAN9","90","0","DOORWAY","1","FOOTBALL","0","1733","doorway","1","2017-10-10 14:59:40","120238"
"AM8OWAW9TUVLN","cs_wg_v8_pilot1","3LWJHTCVCCNMIWT26QWH1P4IEAMFQE","25","0","STRUCTURE","10","BOOKSHELF","0","2930","structure","10","2017-10-10 14:59:41","120239"
"A2HOUSKURBF8UA","cs_wg_v8_pilot1","33IZTU6J812FVYZ0YOR82WJQ033XSC","19","0","COMMUNITY","10","HELICOPTER","0","2274","community","10","2017-10-10 14:59:41","120240"
"A3HE8VNBXD2BR0","cs_wg_v8_pilot1","3Z4AIRP3C6EF1E06L5CO6VWHA3QX1S","60","0","TRAFFIC","10","LADDER","1","1143","ladder","10","2017-10-10 14:59:42","120241"
"A3US51RJ9AWSEE","cs_wg_v8_pilot1","3KMS4QQVK2R07TV7TLCK53S9F4UKFR","80","0","STRUCTURE","9","FOOTBALL","0","2963","structure","9","2017-10-10 14:59:43","120242"
"AM8OWAW9TUVLN","cs_wg_v8_pilot1","3LWJHTCVCCNMIWT26QWH1P4IEAMFQE","26","0","TRAFFIC","0","HELICOPTER","0","1624","traffic","0","2017-10-10 14:59:50","120243"
"ACDTQNYOT3GG8","cs_wg_v8_pilot1","3L6L49WXW0YNRUDF2HCVCAC0TOQ543","0","0","COMMUNITY","2","STRUCTURE","1","3980","structure","2","2017-10-10 14:59:51","120244"
"A3HE8VNBXD2BR0","cs_wg_v8_pilot1","3Z4AIRP3C6EF1E06L5CO6VWHA3QX1S","61","0","WEDDING","9","DOORWAY","0","2062","wedding","9","2017-10-10 14:59:51","120245"
"A3US51RJ9AWSEE","cs_wg_v8_pilot1","3KMS4QQVK2R07TV7TLCK53S9F4UKFR","81","0","STRUCTURE","9","KEYBOARD","0","1051","structure","9","2017-10-10 14:59:51","120246"
"A2HOUSKURBF8UA","cs_wg_v8_pilot1","33IZTU6J812FVYZ0YOR82WJQ033XSC","20","0","STOMACH","1","DOORWAY","1","2642","doorway","1","2017-10-10 14:59:55","120247"
"AM8OWAW9TUVLN","cs_wg_v8_pilot1","3LWJHTCVCCNMIWT26QWH1P4IEAMFQE","27","0","FOOTBALL","0","BOOKSHELF","1","1536","bookshelf","0","2017-10-10 14:59:59","120248"
"A3US51RJ9AWSEE","cs_wg_v8_pilot1","3KMS4QQVK2R07TV7TLCK53S9F4UKFR","82","0","BASKET","1","BOOKSHELF","0","2385","basket","1","2017-10-10 15:00:01","120249"
"ACDTQNYOT3GG8","cs_wg_v8_pilot1","3L6L49WXW0YNRUDF2HCVCAC0TOQ543","1","0","KEYBOARD","8","LADDER","0","2746","keyboard","8","2017-10-10 15:00:04","120250"
"A3HE8VNBXD2BR0","cs_wg_v8_pilot1","3Z4AIRP3C6EF1E06L5CO6VWHA3QX1S","62","0","STOMACH","1","BOOKSHELF","0","3780","stomach","1","2017-10-10 15:00:04","120251"
"A2HOUSKURBF8UA","cs_wg_v8_pilot1","33IZTU6J812FVYZ0YOR82WJQ033XSC","21","0","TRAFFIC","10","BOOKSHELF","0","3067","traffic","10","2017-10-10 15:00:09","120252"
"AM8OWAW9TUVLN","cs_wg_v8_pilot1","3LWJHTCVCCNMIWT26QWH1P4IEAMFQE","28","0","KEYBOARD","10","FOOTBALL","0","1930","keyboard","10","2017-10-10 15:00:11","120253"
"A3US51RJ9AWSEE","cs_wg_v8_pilot1","3KMS4QQVK2R07TV7TLCK53S9F4UKFR","83","0","FOOTBALL","2","BOOKSHELF","1","4255","bookshelf","2","2017-10-10 15:00:13","120254"
"A3HE8VNBXD2BR0","cs_wg_v8_pilot1","3Z4AIRP3C6EF1E06L5CO6VWHA3QX1S","63","0","COMMUNITY","2","UMBRELLA","1","2770","umbrella","2","2017-10-10 15:00:14","120255"
"ACDTQNYOT3GG8","cs_wg_v8_pilot1","3L6L49WXW0YNRUDF2HCVCAC0TOQ543","2","0","TRAFFIC","10","HELICOPTER","1","2101","helicopter","10","2017-10-10 15:00:16","120256"
"AM8OWAW9TUVLN","cs_wg_v8_pilot1","3LWJHTCVCCNMIWT26QWH1P4IEAMFQE","29","0","WEDDING","10","STRUCTURE","1","1309","structure","10","2017-10-10 15:00:19","120257"
"A3US51RJ9AWSEE","cs_wg_v8_pilot1","3KMS4QQVK2R07TV7TLCK53S9F4UKFR","84","0","KEYBOARD","10","STOMACH","1","1055","stomach","10","2017-10-10 15:00:22","120258"
"A3HE8VNBXD2BR0","cs_wg_v8_pilot1","3Z4AIRP3C6EF1E06L5CO6VWHA3QX1S","64","0","LADDER","9","WEDDING","1","3259","wedding","9","2017-10-10 15:00:24","120259"
"A2HOUSKURBF8UA","cs_wg_v8_pilot1","33IZTU6J812FVYZ0YOR82WJQ033XSC","22","0","DOORWAY","9","STRUCTURE","1","4087","structure","9","2017-10-10 15:00:25","120260"
"AM8OWAW9TUVLN","cs_wg_v8_pilot1","3LWJHTCVCCNMIWT26QWH1P4IEAMFQE","30","0","KEYBOARD","0","TRAFFIC","1","2712","traffic","0","2017-10-10 15:00:29","120261"
"ACDTQNYOT3GG8","cs_wg_v8_pilot1","3L6L49WXW0YNRUDF2HCVCAC0TOQ543","3","0","HELICOPTER","0","WEDDING","1","6810","WEDDING","0","2017-10-10 15:00:31","120262"
"A3HE8VNBXD2BR0","cs_wg_v8_pilot1","3Z4AIRP3C6EF1E06L5CO6VWHA3QX1S","65","0","MACHINE","8","HELICOPTER","0","1028","machine","8","2017-10-10 15:00:31","120263"
"A3US51RJ9AWSEE","cs_wg_v8_pilot1","3KMS4QQVK2R07TV7TLCK53S9F4UKFR","85","0","HELICOPTER","8","UMBRELLA","0","2768","helicopter","8","2017-10-10 15:00:33","120264"
"AM8OWAW9TUVLN","cs_wg_v8_pilot1","3LWJHTCVCCNMIWT26QWH1P4IEAMFQE","31","0","STOMACH","9","BASKET","1","1363","basket","9","2017-10-10 15:00:36","120265"
"A3HE8VNBXD2BR0","cs_wg_v8_pilot1","3Z4AIRP3C6EF1E06L5CO6VWHA3QX1S","66","0","KEYBOARD","8","STRUCTURE","0","1260","keyboard","8","2017-10-10 15:00:39","120266"
"ACDTQNYOT3GG8","cs_wg_v8_pilot1","3L6L49WXW0YNRUDF2HCVCAC0TOQ543","4","0","KEYBOARD","0","UMBRELLA","1","4307","UMBRELLA","0","2017-10-10 15:00:42","120267"
"A2HOUSKURBF8UA","cs_wg_v8_pilot1","33IZTU6J812FVYZ0YOR82WJQ033XSC","23","0","STOMACH","2","MACHINE","0","3644","stomach","2","2017-10-10 15:00:43","120268"
"A3US51RJ9AWSEE","cs_wg_v8_pilot1","3KMS4QQVK2R07TV7TLCK53S9F4UKFR","86","0","FOOTBALL","1","COMMUNITY","0","2370","football","1","2017-10-10 15:00:43","120269"
"AM8OWAW9TUVLN","cs_wg_v8_pilot1","3LWJHTCVCCNMIWT26QWH1P4IEAMFQE","32","0","STRUCTURE","10","TRAFFIC","0","1259","structure","10","2017-10-10 15:00:45","120270"
"A3HE8VNBXD2BR0","cs_wg_v8_pilot1","3Z4AIRP3C6EF1E06L5CO6VWHA3QX1S","67","0","KEYBOARD","8","STOMACH","0","1173","keyboard","8","2017-10-10 15:00:47","120271"
"A3US51RJ9AWSEE","cs_wg_v8_pilot1","3KMS4QQVK2R07TV7TLCK53S9F4UKFR","87","0","STOMACH","10","STRUCTURE","0","2318","stomach","10","2017-10-10 15:00:53","120272"
"ACDTQNYOT3GG8","cs_wg_v8_pilot1","3L6L49WXW0YNRUDF2HCVCAC0TOQ543","5","0","STOMACH","9","UMBRELLA","0","4591","STOMACH","9","2017-10-10 15:00:54","120273"
"A3HE8VNBXD2BR0","cs_wg_v8_pilot1","3Z4AIRP3C6EF1E06L5CO6VWHA3QX1S","68","0","FOOTBALL","10","STRUCTURE","1","1105","structure","10","2017-10-10 15:00:55","120274"
"A2HOUSKURBF8UA","cs_wg_v8_pilot1","33IZTU6J812FVYZ0YOR82WJQ033XSC","24","0","LADDER","9","TRAFFIC","0","4709","ladder","9","2017-10-10 15:00:55","120275"
"AM8OWAW9TUVLN","cs_wg_v8_pilot1","3LWJHTCVCCNMIWT26QWH1P4IEAMFQE","33","0","COMMUNITY","10","STRUCTURE","1","2067","structure","10","2017-10-10 15:00:55","120276"
"A3HE8VNBXD2BR0","cs_wg_v8_pilot1","3Z4AIRP3C6EF1E06L5CO6VWHA3QX1S","69","0","BOOKSHELF","1","FOOTBALL","1","1385","football","1","2017-10-10 15:01:02","120277"
"A3US51RJ9AWSEE","cs_wg_v8_pilot1","3KMS4QQVK2R07TV7TLCK53S9F4UKFR","88","0","STRUCTURE","8","HELICOPTER","1","2315","helicopter","8","2017-10-10 15:01:03","120278"
"AM8OWAW9TUVLN","cs_wg_v8_pilot1","3LWJHTCVCCNMIWT26QWH1P4IEAMFQE","34","0","STRUCTURE","10","STOMACH","0","1347","structure","10","2017-10-10 15:01:05","120279"
"ACDTQNYOT3GG8","cs_wg_v8_pilot1","3L6L49WXW0YNRUDF2HCVCAC0TOQ543","6","0","STOMACH","9","DOORWAY","0","4766","STOMACH","9","2017-10-10 15:01:06","120280"
"A2HOUSKURBF8UA","cs_wg_v8_pilot1","33IZTU6J812FVYZ0YOR82WJQ033XSC","25","0","MACHINE","8","KEYBOARD","1","2561","keyboard","8","2017-10-10 15:01:09","120281"
"A3HE8VNBXD2BR0","cs_wg_v8_pilot1","3Z4AIRP3C6EF1E06L5CO6VWHA3QX1S","70","0","DOORWAY","8","MACHINE","1","3081","machine","8","2017-10-10 15:01:12","120282"
"A3US51RJ9AWSEE","cs_wg_v8_pilot1","3KMS4QQVK2R07TV7TLCK53S9F4UKFR","89","0","LADDER","8","TRAFFIC","1","5187","traffic","8","2017-10-10 15:01:15","120283"
"AM8OWAW9TUVLN","cs_wg_v8_pilot1","3LWJHTCVCCNMIWT26QWH1P4IEAMFQE","35","0","COMMUNITY","8","TRAFFIC","0","3078","community","8","2017-10-10 15:01:18","120284"
"ACDTQNYOT3GG8","cs_wg_v8_pilot1","3L6L49WXW0YNRUDF2HCVCAC0TOQ543","7","0","MACHINE","1","LADDER","1","4902","LADDER","1","2017-10-10 15:01:19","120285"
"A3HE8VNBXD2BR0","cs_wg_v8_pilot1","3Z4AIRP3C6EF1E06L5CO6VWHA3QX1S","71","0","BASKET","10","FOOTBALL","0","967","basket","10","2017-10-10 15:01:21","120286"
"A2HOUSKURBF8UA","cs_wg_v8_pilot1","33IZTU6J812FVYZ0YOR82WJQ033XSC","26","0","BASKET","9","STRUCTURE","1","2386","structure","9","2017-10-10 15:01:23","120287"
"AM8OWAW9TUVLN","cs_wg_v8_pilot1","3LWJHTCVCCNMIWT26QWH1P4IEAMFQE","36","0","BASKET","9","FOOTBALL","0","1170","basket","9","2017-10-10 15:01:26","120288"
"A3US51RJ9AWSEE","cs_wg_v8_pilot1","3KMS4QQVK2R07TV7TLCK53S9F4UKFR","90","0","UMBRELLA","2","DOORWAY","0","3300","umbrella","2","2017-10-10 15:01:27","120289"
"A3HE8VNBXD2BR0","cs_wg_v8_pilot1","3Z4AIRP3C6EF1E06L5CO6VWHA3QX1S","72","0","HELICOPTER","9","COMMUNITY","0","1085","helicopter","9","2017-10-10 15:01:29","120290"
"ACDTQNYOT3GG8","cs_wg_v8_pilot1","3L6L49WXW0YNRUDF2HCVCAC0TOQ543","8","0","BASKET","10","LADDER","0","2907","BASKET","10","2017-10-10 15:01:29","120291"
"AM8OWAW9TUVLN","cs_wg_v8_pilot1","3LWJHTCVCCNMIWT26QWH1P4IEAMFQE","37","0","LADDER","8","UMBRELLA","1","1741","umbrella","8","2017-10-10 15:01:34","120292"
"A3HE8VNBXD2BR0","cs_wg_v8_pilot1","3Z4AIRP3C6EF1E06L5CO6VWHA3QX1S","73","0","UMBRELLA","2","TRAFFIC","0","2155","umbrella","2","2017-10-10 15:01:38","120293"
"A2HOUSKURBF8UA","cs_wg_v8_pilot1","33IZTU6J812FVYZ0YOR82WJQ033XSC","27","0","HELICOPTER","2","UMBRELLA","0","4629","helicopter","2","2017-10-10 15:01:40","120294"
"ACDTQNYOT3GG8","cs_wg_v8_pilot1","3L6L49WXW0YNRUDF2HCVCAC0TOQ543","9","0","LADDER","1","TRAFFIC","0","3562","LADDER","1","2017-10-10 15:01:41","120295"
"AM8OWAW9TUVLN","cs_wg_v8_pilot1","3LWJHTCVCCNMIWT26QWH1P4IEAMFQE","38","0","COMMUNITY","8","KEYBOARD","0","1565","community","8","2017-10-10 15:01:45","120296"
"A3HE8VNBXD2BR0","cs_wg_v8_pilot1","3Z4AIRP3C6EF1E06L5CO6VWHA3QX1S","74","0","LADDER","10","UMBRELLA","0","1156","ladder","10","2017-10-10 15:01:47","120297"
"AM8OWAW9TUVLN","cs_wg_v8_pilot1","3LWJHTCVCCNMIWT26QWH1P4IEAMFQE","39","0","COMMUNITY","8","DOORWAY","0","1523","community","9","2017-10-10 15:01:53","120298"
"A2HOUSKURBF8UA","cs_wg_v8_pilot1","33IZTU6J812FVYZ0YOR82WJQ033XSC","28","0","STRUCTURE","9","UMBRELLA","0","1920","structure","9","2017-10-10 15:01:54","120299"
"A3HE8VNBXD2BR0","cs_wg_v8_pilot1","3Z4AIRP3C6EF1E06L5CO6VWHA3QX1S","75","0","TRAFFIC","1","STOMACH","1","1536","stomach","1","2017-10-10 15:01:56","120300"
"AM8OWAW9TUVLN","cs_wg_v8_pilot1","3LWJHTCVCCNMIWT26QWH1P4IEAMFQE","40","0","STOMACH","8","UMBRELLA","1","938","umbrella","8","2017-10-10 15:02:00","120301"
"A3HE8VNBXD2BR0","cs_wg_v8_pilot1","3Z4AIRP3C6EF1E06L5CO6VWHA3QX1S","76","0","MACHINE","10","BASKET","1","1514","basket","10","2017-10-10 15:02:03","120302"
"ACDTQNYOT3GG8","cs_wg_v8_pilot1","3L6L49WXW0YNRUDF2HCVCAC0TOQ543","10","0","HELICOPTER","10","MACHINE","0","3956","HELICOPTER","10","2017-10-10 15:02:04","120303"
"A2HOUSKURBF8UA","cs_wg_v8_pilot1","33IZTU6J812FVYZ0YOR82WJQ033XSC","29","0","BASKET","0","DOORWAY","0","3525","basket","0","2017-10-10 15:02:07","120304"
"AM8OWAW9TUVLN","cs_wg_v8_pilot1","3LWJHTCVCCNMIWT26QWH1P4IEAMFQE","41","0","STOMACH","2","DOORWAY","0","1372","stomach","2","2017-10-10 15:02:09","120305"
"A3HE8VNBXD2BR0","cs_wg_v8_pilot1","3Z4AIRP3C6EF1E06L5CO6VWHA3QX1S","77","0","WEDDING","9","UMBRELLA","0","1394","wedding","9","2017-10-10 15:02:11","120306"
"AM8OWAW9TUVLN","cs_wg_v8_pilot1","3LWJHTCVCCNMIWT26QWH1P4IEAMFQE","42","0","KEYBOARD","10","STOMACH","0","1903","keyboard","10","2017-10-10 15:02:19","120307"
"A3HE8VNBXD2BR0","cs_wg_v8_pilot1","3Z4AIRP3C6EF1E06L5CO6VWHA3QX1S","78","0","WEDDING","10","STRUCTURE","1","1342","structure","10","2017-10-10 15:02:19","120308"
"A2HOUSKURBF8UA","cs_wg_v8_pilot1","33IZTU6J812FVYZ0YOR82WJQ033XSC","30","0","COMMUNITY","10","BASKET","0","1726","community","10","2017-10-10 15:02:20","120309"
"ACDTQNYOT3GG8","cs_wg_v8_pilot1","3L6L49WXW0YNRUDF2HCVCAC0TOQ543","11","0","FOOTBALL","10","MACHINE","0","10300","FOOTBALL","10","2017-10-10 15:02:21","120310"
"AM8OWAW9TUVLN","cs_wg_v8_pilot1","3LWJHTCVCCNMIWT26QWH1P4IEAMFQE","43","0","COMMUNITY","8","HELICOPTER","0","1367","community","8","2017-10-10 15:02:27","120311"
"A3HE8VNBXD2BR0","cs_wg_v8_pilot1","3Z4AIRP3C6EF1E06L5CO6VWHA3QX1S","79","0","HELICOPTER","10","BASKET","1","1270","basket","10","2017-10-10 15:02:27","120312"
"ACDTQNYOT3GG8","cs_wg_v8_pilot1","3L6L49WXW0YNRUDF2HCVCAC0TOQ543","12","0","BASKET","0","TRAFFIC","1","3176","TRAFFIC","0","2017-10-10 15:02:32","120313"
"A2HOUSKURBF8UA","cs_wg_v8_pilot1","33IZTU6J812FVYZ0YOR82WJQ033XSC","31","0","STOMACH","10","COMMUNITY","1","1911","community","10","2017-10-10 15:02:33","120314"
"AM8OWAW9TUVLN","cs_wg_v8_pilot1","3LWJHTCVCCNMIWT26QWH1P4IEAMFQE","44","0","STOMACH","8","COMMUNITY","1","1900","community","8","2017-10-10 15:02:36","120315"
"A3HE8VNBXD2BR0","cs_wg_v8_pilot1","3Z4AIRP3C6EF1E06L5CO6VWHA3QX1S","80","0","MACHINE","8","UMBRELLA","0","5102","machine","8","2017-10-10 15:02:40","120316"
"ACDTQNYOT3GG8","cs_wg_v8_pilot1","3L6L49WXW0YNRUDF2HCVCAC0TOQ543","13","0","MACHINE","2","UMBRELLA","0","4239","MACHINE","2","2017-10-10 15:02:43","120317"
"AM8OWAW9TUVLN","cs_wg_v8_pilot1","3LWJHTCVCCNMIWT26QWH1P4IEAMFQE","45","0","FOOTBALL","9","MACHINE","1","1359","machine","9","2017-10-10 15:02:45","120318"
"A2HOUSKURBF8UA","cs_wg_v8_pilot1","33IZTU6J812FVYZ0YOR82WJQ033XSC","32","0","FOOTBALL","10","COMMUNITY","1","2425","community","10","2017-10-10 15:02:45","120319"
"A3HE8VNBXD2BR0","cs_wg_v8_pilot1","3Z4AIRP3C6EF1E06L5CO6VWHA3QX1S","81","0","BASKET","10","KEYBOARD","0","810","basket","10","2017-10-10 15:02:46","120320"
"AM8OWAW9TUVLN","cs_wg_v8_pilot1","3LWJHTCVCCNMIWT26QWH1P4IEAMFQE","46","0","TRAFFIC","8","UMBRELLA","1","1073","umbrella","8","2017-10-10 15:02:52","120321"
"A3HE8VNBXD2BR0","cs_wg_v8_pilot1","3Z4AIRP3C6EF1E06L5CO6VWHA3QX1S","82","0","BOOKSHELF","10","STRUCTURE","1","1281","structure","10","2017-10-10 15:02:54","120322"
"ACDTQNYOT3GG8","cs_wg_v8_pilot1","3L6L49WXW0YNRUDF2HCVCAC0TOQ543","14","0","MACHINE","10","BASKET","1","5579","BASKET","10","2017-10-10 15:02:56","120323"
"A2HOUSKURBF8UA","cs_wg_v8_pilot1","33IZTU6J812FVYZ0YOR82WJQ033XSC","33","0","STRUCTURE","9","FOOTBALL","0","2044","structure","9","2017-10-10 15:02:59","120324"
"AM8OWAW9TUVLN","cs_wg_v8_pilot1","3LWJHTCVCCNMIWT26QWH1P4IEAMFQE","47","0","WEDDING","1","LADDER","1","1678","ladder","1","2017-10-10 15:03:00","120325"
"A3HE8VNBXD2BR0","cs_wg_v8_pilot1","3Z4AIRP3C6EF1E06L5CO6VWHA3QX1S","83","0","DOORWAY","0","COMMUNITY","0","2477","doorway","0","2017-10-10 15:03:05","120326"
"AM8OWAW9TUVLN","cs_wg_v8_pilot1","3LWJHTCVCCNMIWT26QWH1P4IEAMFQE","48","0","BOOKSHELF","9","MACHINE","1","1419","machine","9","2017-10-10 15:03:08","120327"
"A2HOUSKURBF8UA","cs_wg_v8_pilot1","33IZTU6J812FVYZ0YOR82WJQ033XSC","34","0","BASKET","8","KEYBOARD","1","3017","keyboard","8","2017-10-10 15:03:11","120328"
"ACDTQNYOT3GG8","cs_wg_v8_pilot1","3L6L49WXW0YNRUDF2HCVCAC0TOQ543","15","0","UMBRELLA","0","LADDER","0","8770","UMBRELLA","0","2017-10-10 15:03:12","120329"
"A3HE8VNBXD2BR0","cs_wg_v8_pilot1","3Z4AIRP3C6EF1E06L5CO6VWHA3QX1S","84","0","BASKET","10","LADDER","0","1168","basket","10","2017-10-10 15:03:13","120330"
"AM8OWAW9TUVLN","cs_wg_v8_pilot1","3LWJHTCVCCNMIWT26QWH1P4IEAMFQE","49","0","WEDDING","0","TRAFFIC","1","2454","traffic","0","2017-10-10 15:03:19","120331"
"A3HE8VNBXD2BR0","cs_wg_v8_pilot1","3Z4AIRP3C6EF1E06L5CO6VWHA3QX1S","85","0","TRAFFIC","2","FOOTBALL","0","3289","traffic","2","2017-10-10 15:03:23","120332"
"A2HOUSKURBF8UA","cs_wg_v8_pilot1","33IZTU6J812FVYZ0YOR82WJQ033XSC","35","0","MACHINE","10","COMMUNITY","1","1978","community","10","2017-10-10 15:03:25","120333"
"AM8OWAW9TUVLN","cs_wg_v8_pilot1","3LWJHTCVCCNMIWT26QWH1P4IEAMFQE","50","0","STOMACH","1","LADDER","1","2131","ladder","1","2017-10-10 15:03:26","120334"
"A3HE8VNBXD2BR0","cs_wg_v8_pilot1","3Z4AIRP3C6EF1E06L5CO6VWHA3QX1S","86","0","BASKET","10","UMBRELLA","0","4033","basket","10","2017-10-10 15:03:33","120335"
"ACDTQNYOT3GG8","cs_wg_v8_pilot1","3L6L49WXW0YNRUDF2HCVCAC0TOQ543","16","0","FOOTBALL","10","BOOKSHELF","0","17505","FOOTBALL","10","2017-10-10 15:03:37","120336"
"AM8OWAW9TUVLN","cs_wg_v8_pilot1","3LWJHTCVCCNMIWT26QWH1P4IEAMFQE","51","0","HELICOPTER","1","LADDER","0","2221","helicopter","1","2017-10-10 15:03:37","120337"
"A2HOUSKURBF8UA","cs_wg_v8_pilot1","33IZTU6J812FVYZ0YOR82WJQ033XSC","36","0","LADDER","9","KEYBOARD","0","7199","ladder","9","2017-10-10 15:03:41","120338"
"A3HE8VNBXD2BR0","cs_wg_v8_pilot1","3Z4AIRP3C6EF1E06L5CO6VWHA3QX1S","87","0","HELICOPTER","9","DOORWAY","0","1325","helicopter","9","2017-10-10 15:03:43","120339"
"AM8OWAW9TUVLN","cs_wg_v8_pilot1","3LWJHTCVCCNMIWT26QWH1P4IEAMFQE","52","0","HELICOPTER","2","DOORWAY","1","2489","doorway","2","2017-10-10 15:03:46","120340"
"ACDTQNYOT3GG8","cs_wg_v8_pilot1","3L6L49WXW0YNRUDF2HCVCAC0TOQ543","17","0","KEYBOARD","1","COMMUNITY","1","4625","COMMUNITY","1","2017-10-10 15:03:48","120341"
"A3HE8VNBXD2BR0","cs_wg_v8_pilot1","3Z4AIRP3C6EF1E06L5CO6VWHA3QX1S","88","0","DOORWAY","0","BOOKSHELF","0","2107","doorway","0","2017-10-10 15:03:52","120342"
"A2HOUSKURBF8UA","cs_wg_v8_pilot1","33IZTU6J812FVYZ0YOR82WJQ033XSC","37","0","STOMACH","2","BASKET","0","3417","stomach","2","2017-10-10 15:03:53","120343"
"AM8OWAW9TUVLN","cs_wg_v8_pilot1","3LWJHTCVCCNMIWT26QWH1P4IEAMFQE","53","0","LADDER","0","BOOKSHELF","1","1530","bookshelf","0","2017-10-10 15:03:55","120344"
"ACDTQNYOT3GG8","cs_wg_v8_pilot1","3L6L49WXW0YNRUDF2HCVCAC0TOQ543","18","0","FOOTBALL","10","STRUCTURE","0","4200","FOOTBALL","10","2017-10-10 15:04:00","120345"
"A3HE8VNBXD2BR0","cs_wg_v8_pilot1","3Z4AIRP3C6EF1E06L5CO6VWHA3QX1S","89","0","LADDER","10","DOORWAY","0","1603","ladder","10","2017-10-10 15:04:01","120346"
"AM8OWAW9TUVLN","cs_wg_v8_pilot1","3LWJHTCVCCNMIWT26QWH1P4IEAMFQE","54","0","UMBRELLA","8","BOOKSHELF","0","1231","umbrella","8","2017-10-10 15:04:05","120347"
"A2HOUSKURBF8UA","cs_wg_v8_pilot1","33IZTU6J812FVYZ0YOR82WJQ033XSC","38","0","MACHINE","8","WEDDING","1","3121","wedding","8","2017-10-10 15:04:07","120348"
"A3HE8VNBXD2BR0","cs_wg_v8_pilot1","3Z4AIRP3C6EF1E06L5CO6VWHA3QX1S","90","0","BOOKSHELF","8","KEYBOARD","1","1267","keyboard","8","2017-10-10 15:04:09","120349"
"AM8OWAW9TUVLN","cs_wg_v8_pilot1","3LWJHTCVCCNMIWT26QWH1P4IEAMFQE","55","0","STRUCTURE","10","MACHINE","0","2089","structure","10","2017-10-10 15:04:14","120350"
"ACDTQNYOT3GG8","cs_wg_v8_pilot1","3L6L49WXW0YNRUDF2HCVCAC0TOQ543","19","0","STRUCTURE","10","BASKET","1","7049","BASKET","10","2017-10-10 15:04:15","120351"
"A2HOUSKURBF8UA","cs_wg_v8_pilot1","33IZTU6J812FVYZ0YOR82WJQ033XSC","39","0","LADDER","9","WEDDING","0","3137","ladder","9","2017-10-10 15:04:19","120352"
"AM8OWAW9TUVLN","cs_wg_v8_pilot1","3LWJHTCVCCNMIWT26QWH1P4IEAMFQE","56","0","BOOKSHELF","0","STOMACH","0","2333","bookshelf","0","2017-10-10 15:04:25","120353"
"A2HOUSKURBF8UA","cs_wg_v8_pilot1","33IZTU6J812FVYZ0YOR82WJQ033XSC","40","0","KEYBOARD","10","TRAFFIC","1","2190","traffic","10","2017-10-10 15:04:32","120354"
"AM8OWAW9TUVLN","cs_wg_v8_pilot1","3LWJHTCVCCNMIWT26QWH1P4IEAMFQE","57","0","KEYBOARD","10","BOOKSHELF","0","1147","keyboard","10","2017-10-10 15:04:32","120355"
"AM8OWAW9TUVLN","cs_wg_v8_pilot1","3LWJHTCVCCNMIWT26QWH1P4IEAMFQE","58","0","BASKET","9","BOOKSHELF","0","1010","basket","9","2017-10-10 15:04:41","120356"
"A2HOUSKURBF8UA","cs_wg_v8_pilot1","33IZTU6J812FVYZ0YOR82WJQ033XSC","41","0","DOORWAY","8","WEDDING","1","2297","wedding","8","2017-10-10 15:04:43","120357"
"AM8OWAW9TUVLN","cs_wg_v8_pilot1","3LWJHTCVCCNMIWT26QWH1P4IEAMFQE","59","0","LADDER","9","BASKET","1","1032","basket","9","2017-10-10 15:04:47","120358"
"AM8OWAW9TUVLN","cs_wg_v8_pilot1","3LWJHTCVCCNMIWT26QWH1P4IEAMFQE","60","0","FOOTBALL","10","STRUCTURE","1","1162","structure","10","2017-10-10 15:04:55","120359"
"A2HOUSKURBF8UA","cs_wg_v8_pilot1","33IZTU6J812FVYZ0YOR82WJQ033XSC","42","0","UMBRELLA","8","WEDDING","1","1927","wedding","8","2017-10-10 15:05:02","120360"
"AM8OWAW9TUVLN","cs_wg_v8_pilot1","3LWJHTCVCCNMIWT26QWH1P4IEAMFQE","61","0","TRAFFIC","10","FOOTBALL","1","1714","football","10","2017-10-10 15:05:04","120361"
"AM8OWAW9TUVLN","cs_wg_v8_pilot1","3LWJHTCVCCNMIWT26QWH1P4IEAMFQE","62","0","FOOTBALL","10","UMBRELLA","0","2035","football","10","2017-10-10 15:05:12","120362"
"A2HOUSKURBF8UA","cs_wg_v8_pilot1","33IZTU6J812FVYZ0YOR82WJQ033XSC","43","0","BASKET","10","TRAFFIC","1","1683","traffic","10","2017-10-10 15:05:13","120363"
"AM8OWAW9TUVLN","cs_wg_v8_pilot1","3LWJHTCVCCNMIWT26QWH1P4IEAMFQE","63","0","BOOKSHELF","0","TRAFFIC","0","2169","bookshelf","0","2017-10-10 15:05:23","120364"
"A2HOUSKURBF8UA","cs_wg_v8_pilot1","33IZTU6J812FVYZ0YOR82WJQ033XSC","44","0","FOOTBALL","9","LADDER","1","2610","ladder","9","2017-10-10 15:05:24","120365"
"AM8OWAW9TUVLN","cs_wg_v8_pilot1","3LWJHTCVCCNMIWT26QWH1P4IEAMFQE","64","0","TRAFFIC","9","BASKET","1","1818","basket","9","2017-10-10 15:05:30","120366"
"A2HOUSKURBF8UA","cs_wg_v8_pilot1","33IZTU6J812FVYZ0YOR82WJQ033XSC","45","0","LADDER","9","STOMACH","0","1845","ladder","9","2017-10-10 15:05:34","120367"
"AM8OWAW9TUVLN","cs_wg_v8_pilot1","3LWJHTCVCCNMIWT26QWH1P4IEAMFQE","65","0","WEDDING","8","COMMUNITY","1","1065","community","8","2017-10-10 15:05:39","120368"
"AM8OWAW9TUVLN","cs_wg_v8_pilot1","3LWJHTCVCCNMIWT26QWH1P4IEAMFQE","66","0","BASKET","9","KEYBOARD","0","1087","basket","9","2017-10-10 15:05:46","120369"
"A2HOUSKURBF8UA","cs_wg_v8_pilot1","33IZTU6J812FVYZ0YOR82WJQ033XSC","46","0","STOMACH","2","UMBRELLA","0","2848","stomach","2","2017-10-10 15:05:47","120370"
"AM8OWAW9TUVLN","cs_wg_v8_pilot1","3LWJHTCVCCNMIWT26QWH1P4IEAMFQE","67","0","STOMACH","2","HELICOPTER","0","1677","stomach","2","2017-10-10 15:05:58","120371"
"A2HOUSKURBF8UA","cs_wg_v8_pilot1","33IZTU6J812FVYZ0YOR82WJQ033XSC","47","0","STRUCTURE","9","WEDDING","0","2141","structure","9","2017-10-10 15:05:59","120372"
"ACDTQNYOT3GG8","cs_wg_v8_pilot1","3L6L49WXW0YNRUDF2HCVCAC0TOQ543","20","0","UMBRELLA","1","COMMUNITY","1","103726","COMMUNITY","1","2017-10-10 15:06:05","120373"
"AM8OWAW9TUVLN","cs_wg_v8_pilot1","3LWJHTCVCCNMIWT26QWH1P4IEAMFQE","68","0","DOORWAY","0","BOOKSHELF","1","2101","bookshelf","0","2017-10-10 15:06:07","120374"
"A2HOUSKURBF8UA","cs_wg_v8_pilot1","33IZTU6J812FVYZ0YOR82WJQ033XSC","48","0","KEYBOARD","8","STOMACH","0","2708","keyboard","8","2017-10-10 15:06:11","120375"
"AM8OWAW9TUVLN","cs_wg_v8_pilot1","3LWJHTCVCCNMIWT26QWH1P4IEAMFQE","69","0","STRUCTURE","10","KEYBOARD","0","1607","structure","10","2017-10-10 15:06:16","120376"
"ACDTQNYOT3GG8","cs_wg_v8_pilot1","3L6L49WXW0YNRUDF2HCVCAC0TOQ543","21","0","LADDER","1","COMMUNITY","0","5568","LADDER","1","2017-10-10 15:06:18","120377"
"A2HOUSKURBF8UA","cs_wg_v8_pilot1","33IZTU6J812FVYZ0YOR82WJQ033XSC","49","0","BOOKSHELF","1","FOOTBALL","1","4646","football","1","2017-10-10 15:06:25","120378"
"AM8OWAW9TUVLN","cs_wg_v8_pilot1","3LWJHTCVCCNMIWT26QWH1P4IEAMFQE","70","0","HELICOPTER","9","MACHINE","1","4307","machine","9","2017-10-10 15:06:28","120379"
"ACDTQNYOT3GG8","cs_wg_v8_pilot1","3L6L49WXW0YNRUDF2HCVCAC0TOQ543","22","0","TRAFFIC","0","COMMUNITY","0","4461","TRAFFIC","0","2017-10-10 15:06:30","120380"
"AM8OWAW9TUVLN","cs_wg_v8_pilot1","3LWJHTCVCCNMIWT26QWH1P4IEAMFQE","71","0","LADDER","10","KEYBOARD","1","1356","keyboard","10","2017-10-10 15:06:37","120381"
"A2HOUSKURBF8UA","cs_wg_v8_pilot1","33IZTU6J812FVYZ0YOR82WJQ033XSC","50","0","BOOKSHELF","0","UMBRELLA","0","3244","bookshelf","0","2017-10-10 15:06:39","120382"
"AM8OWAW9TUVLN","cs_wg_v8_pilot1","3LWJHTCVCCNMIWT26QWH1P4IEAMFQE","72","0","LADDER","10","FOOTBALL","1","1160","football","10","2017-10-10 15:06:44","120383"
"A2HOUSKURBF8UA","cs_wg_v8_pilot1","33IZTU6J812FVYZ0YOR82WJQ033XSC","51","0","DOORWAY","10","COMMUNITY","1","2081","community","10","2017-10-10 15:06:51","120384"
"AM8OWAW9TUVLN","cs_wg_v8_pilot1","3LWJHTCVCCNMIWT26QWH1P4IEAMFQE","73","0","BASKET","9","UMBRELLA","0","2661","basket","9","2017-10-10 15:06:53","120385"
"A2HOUSKURBF8UA","cs_wg_v8_pilot1","33IZTU6J812FVYZ0YOR82WJQ033XSC","52","0","FOOTBALL","1","DOORWAY","1","3042","doorway","1","2017-10-10 15:07:02","120386"
"AM8OWAW9TUVLN","cs_wg_v8_pilot1","3LWJHTCVCCNMIWT26QWH1P4IEAMFQE","74","0","COMMUNITY","9","MACHINE","1","2661","machine","9","2017-10-10 15:07:03","120387"
"ACDTQNYOT3GG8","cs_wg_v8_pilot1","3L6L49WXW0YNRUDF2HCVCAC0TOQ543","23","0","UMBRELLA","0","WEDDING","1","19154","WEDDING","0","2017-10-10 15:07:04","120388"
"AM8OWAW9TUVLN","cs_wg_v8_pilot1","3LWJHTCVCCNMIWT26QWH1P4IEAMFQE","75","0","LADDER","2","DOORWAY","1","3859","doorway","2","2017-10-10 15:07:14","120389"
"A2HOUSKURBF8UA","cs_wg_v8_pilot1","33IZTU6J812FVYZ0YOR82WJQ033XSC","53","0","UMBRELLA","10","MACHINE","1","3136","machine","10","2017-10-10 15:07:15","120390"
"ACDTQNYOT3GG8","cs_wg_v8_pilot1","3L6L49WXW0YNRUDF2HCVCAC0TOQ543","24","0","FOOTBALL","10","BASKET","0","4449","FOOTBALL","10","2017-10-10 15:07:16","120391"
"AM8OWAW9TUVLN","cs_wg_v8_pilot1","3LWJHTCVCCNMIWT26QWH1P4IEAMFQE","76","0","DOORWAY","10","STRUCTURE","1","1032","structure","10","2017-10-10 15:07:22","120392"
"A2HOUSKURBF8UA","cs_wg_v8_pilot1","33IZTU6J812FVYZ0YOR82WJQ033XSC","54","0","BOOKSHELF","8","WEDDING","1","2301","wedding","8","2017-10-10 15:07:26","120393"
"AM8OWAW9TUVLN","cs_wg_v8_pilot1","3LWJHTCVCCNMIWT26QWH1P4IEAMFQE","77","0","STOMACH","10","FOOTBALL","1","1345","football","10","2017-10-10 15:07:30","120394"
"ACDTQNYOT3GG8","cs_wg_v8_pilot1","3L6L49WXW0YNRUDF2HCVCAC0TOQ543","25","0","WEDDING","2","MACHINE","1","4602","MACHINE","2","2017-10-10 15:07:36","120395"
"A2HOUSKURBF8UA","cs_wg_v8_pilot1","33IZTU6J812FVYZ0YOR82WJQ033XSC","55","0","BASKET","10","MACHINE","1","2305","machine","10","2017-10-10 15:07:37","120396"
"AM8OWAW9TUVLN","cs_wg_v8_pilot1","3LWJHTCVCCNMIWT26QWH1P4IEAMFQE","78","0","WEDDING","10","FOOTBALL","1","1240","football","10","2017-10-10 15:07:37","120397"
"AM8OWAW9TUVLN","cs_wg_v8_pilot1","3LWJHTCVCCNMIWT26QWH1P4IEAMFQE","79","0","WEDDING","0","HELICOPTER","0","1527","wedding","0","2017-10-10 15:07:47","120398"
"ACDTQNYOT3GG8","cs_wg_v8_pilot1","3L6L49WXW0YNRUDF2HCVCAC0TOQ543","26","0","MACHINE","8","KEYBOARD","1","4280","KEYBOARD","8","2017-10-10 15:07:47","120399"
"A2HOUSKURBF8UA","cs_wg_v8_pilot1","33IZTU6J812FVYZ0YOR82WJQ033XSC","56","0","MACHINE","10","FOOTBALL","0","1902","machine","10","2017-10-10 15:07:48","120400"
"AM8OWAW9TUVLN","cs_wg_v8_pilot1","3LWJHTCVCCNMIWT26QWH1P4IEAMFQE","80","0","WEDDING","9","MACHINE","1","1232","machine","9","2017-10-10 15:07:53","120401"
"A2HOUSKURBF8UA","cs_wg_v8_pilot1","33IZTU6J812FVYZ0YOR82WJQ033XSC","57","0","UMBRELLA","9","LADDER","1","2116","ladder","9","2017-10-10 15:07:58","120402"
"AM8OWAW9TUVLN","cs_wg_v8_pilot1","3LWJHTCVCCNMIWT26QWH1P4IEAMFQE","81","0","MACHINE","10","KEYBOARD","1","1358","keyboard","10","2017-10-10 15:08:01","120403"
"A2HOUSKURBF8UA","cs_wg_v8_pilot1","33IZTU6J812FVYZ0YOR82WJQ033XSC","58","0","LADDER","9","BOOKSHELF","0","1705","ladder","9","2017-10-10 15:08:08","120404"
"AM8OWAW9TUVLN","cs_wg_v8_pilot1","3LWJHTCVCCNMIWT26QWH1P4IEAMFQE","82","0","DOORWAY","10","KEYBOARD","1","1230","keyboard","10","2017-10-10 15:08:09","120405"
"AM8OWAW9TUVLN","cs_wg_v8_pilot1","3LWJHTCVCCNMIWT26QWH1P4IEAMFQE","83","0","LADDER","9","MACHINE","1","880","machine","9","2017-10-10 15:08:16","120406"
"A2HOUSKURBF8UA","cs_wg_v8_pilot1","33IZTU6J812FVYZ0YOR82WJQ033XSC","59","0","WEDDING","10","COMMUNITY","1","2469","community","10","2017-10-10 15:08:19","120407"
"AM8OWAW9TUVLN","cs_wg_v8_pilot1","3LWJHTCVCCNMIWT26QWH1P4IEAMFQE","84","0","UMBRELLA","10","STRUCTURE","1","1143","structure","10","2017-10-10 15:08:25","120408"
"A2HOUSKURBF8UA","cs_wg_v8_pilot1","33IZTU6J812FVYZ0YOR82WJQ033XSC","60","0","STRUCTURE","9","MACHINE","0","2245","structure","9","2017-10-10 15:08:30","120409"
"ACDTQNYOT3GG8","cs_wg_v8_pilot1","3L6L49WXW0YNRUDF2HCVCAC0TOQ543","27","0","STOMACH","9","COMMUNITY","0","38918","STOMACH","9","2017-10-10 15:08:33","120410"
"AM8OWAW9TUVLN","cs_wg_v8_pilot1","3LWJHTCVCCNMIWT26QWH1P4IEAMFQE","85","0","TRAFFIC","0","LADDER","0","2472","traffic","0","2017-10-10 15:08:35","120411"
"A2HOUSKURBF8UA","cs_wg_v8_pilot1","33IZTU6J812FVYZ0YOR82WJQ033XSC","61","0","TRAFFIC","10","DOORWAY","0","1538","traffic","10","2017-10-10 15:08:40","120412"
"AM8OWAW9TUVLN","cs_wg_v8_pilot1","3LWJHTCVCCNMIWT26QWH1P4IEAMFQE","86","0","HELICOPTER","8","UMBRELLA","1","1930","umbrella","8","2017-10-10 15:08:43","120413"
"ACDTQNYOT3GG8","cs_wg_v8_pilot1","3L6L49WXW0YNRUDF2HCVCAC0TOQ543","28","0","WEDDING","1","COMMUNITY","1","9177","COMMUNITY","1","2017-10-10 15:08:50","120414"
"A2HOUSKURBF8UA","cs_wg_v8_pilot1","33IZTU6J812FVYZ0YOR82WJQ033XSC","62","0","STOMACH","8","WEDDING","1","2051","wedding","8","2017-10-10 15:08:51","120415"
"AM8OWAW9TUVLN","cs_wg_v8_pilot1","3LWJHTCVCCNMIWT26QWH1P4IEAMFQE","87","0","WEDDING","2","STOMACH","1","1046","stomach","2","2017-10-10 15:08:51","120416"
"AM8OWAW9TUVLN","cs_wg_v8_pilot1","3LWJHTCVCCNMIWT26QWH1P4IEAMFQE","88","0","WEDDING","2","DOORWAY","1","1690","doorway","2","2017-10-10 15:09:01","120417"
"ACDTQNYOT3GG8","cs_wg_v8_pilot1","3L6L49WXW0YNRUDF2HCVCAC0TOQ543","29","0","STOMACH","9","BOOKSHELF","1","4438","BOOKSHELF","9","2017-10-10 15:09:01","120418"
"A2HOUSKURBF8UA","cs_wg_v8_pilot1","33IZTU6J812FVYZ0YOR82WJQ033XSC","63","0","LADDER","9","DOORWAY","0","2745","ladder","9","2017-10-10 15:09:03","120419"
"AM8OWAW9TUVLN","cs_wg_v8_pilot1","3LWJHTCVCCNMIWT26QWH1P4IEAMFQE","89","0","BOOKSHELF","0","HELICOPTER","0","2150","bookshelf","0","2017-10-10 15:09:10","120420"
"ACDTQNYOT3GG8","cs_wg_v8_pilot1","3L6L49WXW0YNRUDF2HCVCAC0TOQ543","30","0","COMMUNITY","10","HELICOPTER","1","4418","HELICOPTER","10","2017-10-10 15:09:13","120421"
"A2HOUSKURBF8UA","cs_wg_v8_pilot1","33IZTU6J812FVYZ0YOR82WJQ033XSC","64","0","KEYBOARD","8","FOOTBALL","0","2427","keyboard","8","2017-10-10 15:09:14","120422"
"AM8OWAW9TUVLN","cs_wg_v8_pilot1","3LWJHTCVCCNMIWT26QWH1P4IEAMFQE","90","0","KEYBOARD","10","WEDDING","0","1854","keyboard","10","2017-10-10 15:09:20","120423"
"A2HOUSKURBF8UA","cs_wg_v8_pilot1","33IZTU6J812FVYZ0YOR82WJQ033XSC","65","0","STOMACH","0","BOOKSHELF","1","4226","bookshelf","0","2017-10-10 15:09:28","120424"
"A2HOUSKURBF8UA","cs_wg_v8_pilot1","33IZTU6J812FVYZ0YOR82WJQ033XSC","66","0","BASKET","8","WEDDING","1","3150","wedding","8","2017-10-10 15:09:39","120425"
"ACDTQNYOT3GG8","cs_wg_v8_pilot1","3L6L49WXW0YNRUDF2HCVCAC0TOQ543","31","0","KEYBOARD","9","BOOKSHELF","1","28319","BOOKSHELF","9","2017-10-10 15:09:48","120426"
"A2HOUSKURBF8UA","cs_wg_v8_pilot1","33IZTU6J812FVYZ0YOR82WJQ033XSC","67","0","DOORWAY","10","MACHINE","1","1858","machine","10","2017-10-10 15:09:51","120427"
"ACDTQNYOT3GG8","cs_wg_v8_pilot1","3L6L49WXW0YNRUDF2HCVCAC0TOQ543","32","0","HELICOPTER","10","LADDER","0","4921","HELICOPTER","10","2017-10-10 15:10:01","120428"
"A2HOUSKURBF8UA","cs_wg_v8_pilot1","33IZTU6J812FVYZ0YOR82WJQ033XSC","68","0","HELICOPTER","10","MACHINE","1","2514","machine","10","2017-10-10 15:10:02","120429"
"ACDTQNYOT3GG8","cs_wg_v8_pilot1","3L6L49WXW0YNRUDF2HCVCAC0TOQ543","33","0","BOOKSHELF","9","LADDER","0","5313","BOOKSHELF","9","2017-10-10 15:10:13","120430"
"A2HOUSKURBF8UA","cs_wg_v8_pilot1","33IZTU6J812FVYZ0YOR82WJQ033XSC","69","0","COMMUNITY","10","LADDER","0","1603","community","10","2017-10-10 15:10:14","120431"
"A2HOUSKURBF8UA","cs_wg_v8_pilot1","33IZTU6J812FVYZ0YOR82WJQ033XSC","70","0","DOORWAY","1","BOOKSHELF","0","4245","doorway","1","2017-10-10 15:10:27","120432"
"A1Q93M41J566U1","cs_wg_v8_pilot1","3CFJTT4SXTRWM5QDBZTW4V0FPCM7IZ","0","0","BOOKSHELF","0","STRUCTURE","0","4579","Bookshelves","0","2017-10-10 15:10:28","120433"
"A2HOUSKURBF8UA","cs_wg_v8_pilot1","33IZTU6J812FVYZ0YOR82WJQ033XSC","71","0","BASKET","0","BOOKSHELF","0","4896","basket","0","2017-10-10 15:10:41","120434"
"A1Q93M41J566U1","cs_wg_v8_pilot1","3CFJTT4SXTRWM5QDBZTW4V0FPCM7IZ","1","0","FOOTBALL","0","COMMUNITY","0","2712","Football","0","2017-10-10 15:10:42","120435"
"A2HOUSKURBF8UA","cs_wg_v8_pilot1","33IZTU6J812FVYZ0YOR82WJQ033XSC","72","0","BASKET","1","FOOTBALL","1","2775","football","1","2017-10-10 15:10:52","120436"
"A1Q93M41J566U1","cs_wg_v8_pilot1","3CFJTT4SXTRWM5QDBZTW4V0FPCM7IZ","2","0","STRUCTURE","0","UMBRELLA","0","2635","Structure","0","2017-10-10 15:10:57","120437"
"ACDTQNYOT3GG8","cs_wg_v8_pilot1","3L6L49WXW0YNRUDF2HCVCAC0TOQ543","34","0","WEDDING","8","KEYBOARD","1","42402","KEYBOARD","8","2017-10-10 15:11:03","120438"
"A2HOUSKURBF8UA","cs_wg_v8_pilot1","33IZTU6J812FVYZ0YOR82WJQ033XSC","73","0","UMBRELLA","0","BASKET","1","3187","basket","0","2017-10-10 15:11:03","120439"
"A1Q93M41J566U1","cs_wg_v8_pilot1","3CFJTT4SXTRWM5QDBZTW4V0FPCM7IZ","3","0","UMBRELLA","10","BASKET","0","2426","Umbrella","10","2017-10-10 15:11:11","120440"
"A2HOUSKURBF8UA","cs_wg_v8_pilot1","33IZTU6J812FVYZ0YOR82WJQ033XSC","74","0","FOOTBALL","8","WEDDING","1","1640","wedding","8","2017-10-10 15:11:14","120441"
"ACDTQNYOT3GG8","cs_wg_v8_pilot1","3L6L49WXW0YNRUDF2HCVCAC0TOQ543","35","0","FOOTBALL","10","WEDDING","0","4057","FOOTBALL","10","2017-10-10 15:11:14","120442"
"A2HOUSKURBF8UA","cs_wg_v8_pilot1","33IZTU6J812FVYZ0YOR82WJQ033XSC","75","0","HELICOPTER","10","TRAFFIC","1","2270","traffic","10","2017-10-10 15:11:24","120443"
"A1Q93M41J566U1","cs_wg_v8_pilot1","3CFJTT4SXTRWM5QDBZTW4V0FPCM7IZ","4","0","DOORWAY","8","KEYBOARD","0","2245","Doorway","8","2017-10-10 15:11:25","120444"
"ACDTQNYOT3GG8","cs_wg_v8_pilot1","3L6L49WXW0YNRUDF2HCVCAC0TOQ543","36","0","BOOKSHELF","9","STRUCTURE","0","5710","BOOKSHELF","9","2017-10-10 15:11:27","120445"
"A2HOUSKURBF8UA","cs_wg_v8_pilot1","33IZTU6J812FVYZ0YOR82WJQ033XSC","76","0","STRUCTURE","9","STOMACH","0","1909","structure","9","2017-10-10 15:11:35","120446"
"ACDTQNYOT3GG8","cs_wg_v8_pilot1","3L6L49WXW0YNRUDF2HCVCAC0TOQ543","37","0","DOORWAY","8","WEDDING","0","5258","DOORWAY","8","2017-10-10 15:11:40","120447"
"A1Q93M41J566U1","cs_wg_v8_pilot1","3CFJTT4SXTRWM5QDBZTW4V0FPCM7IZ","5","0","DOORWAY","10","UMBRELLA","1","6111","Umbrella","10","2017-10-10 15:11:41","120448"
"A2HOUSKURBF8UA","cs_wg_v8_pilot1","33IZTU6J812FVYZ0YOR82WJQ033XSC","77","0","TRAFFIC","10","FOOTBALL","0","1908","traffic","10","2017-10-10 15:11:45","120449"
"A1Q93M41J566U1","cs_wg_v8_pilot1","3CFJTT4SXTRWM5QDBZTW4V0FPCM7IZ","6","0","HELICOPTER","2","KEYBOARD","1","2273","Keyboard","2","2017-10-10 15:11:55","120450"
"A2HOUSKURBF8UA","cs_wg_v8_pilot1","33IZTU6J812FVYZ0YOR82WJQ033XSC","78","0","TRAFFIC","10","WEDDING","0","1732","traffic","10","2017-10-10 15:11:56","120451"
"A1Q93M41J566U1","cs_wg_v8_pilot1","3CFJTT4SXTRWM5QDBZTW4V0FPCM7IZ","7","0","LADDER","1","WEDDING","0","1947","Ladder","1","2017-10-10 15:12:07","120452"
"A2HOUSKURBF8UA","cs_wg_v8_pilot1","33IZTU6J812FVYZ0YOR82WJQ033XSC","79","0","HELICOPTER","2","STOMACH","0","3565","helicopter","2","2017-10-10 15:12:09","120453"
"ACDTQNYOT3GG8","cs_wg_v8_pilot1","3L6L49WXW0YNRUDF2HCVCAC0TOQ543","38","0","STRUCTURE","2","TRAFFIC","0","3920","STRUCTURE","2","2017-10-10 15:12:10","120454"
"A1Q93M41J566U1","cs_wg_v8_pilot1","3CFJTT4SXTRWM5QDBZTW4V0FPCM7IZ","8","0","BASKET","8","MACHINE","0","1853","Basket","8","2017-10-10 15:12:20","120455"
"A2HOUSKURBF8UA","cs_wg_v8_pilot1","33IZTU6J812FVYZ0YOR82WJQ033XSC","80","0","STOMACH","2","FOOTBALL","0","3387","stomach","2","2017-10-10 15:12:21","120456"
"A1Q93M41J566U1","cs_wg_v8_pilot1","3CFJTT4SXTRWM5QDBZTW4V0FPCM7IZ","9","0","MACHINE","9","COMMUNITY","0","2007","Machine","9","2017-10-10 15:12:32","120457"
"A2HOUSKURBF8UA","cs_wg_v8_pilot1","33IZTU6J812FVYZ0YOR82WJQ033XSC","81","0","STRUCTURE","10","COMMUNITY","1","2930","community","10","2017-10-10 15:12:34","120458"
"A2HOUSKURBF8UA","cs_wg_v8_pilot1","33IZTU6J812FVYZ0YOR82WJQ033XSC","82","0","STRUCTURE","10","TRAFFIC","1","2019","traffic","10","2017-10-10 15:12:44","120459"
"A1Q93M41J566U1","cs_wg_v8_pilot1","3CFJTT4SXTRWM5QDBZTW4V0FPCM7IZ","10","0","HELICOPTER","10","LADDER","0","2662","Helicopter","10","2017-10-10 15:12:45","120460"
"A1Q93M41J566U1","cs_wg_v8_pilot1","3CFJTT4SXTRWM5QDBZTW4V0FPCM7IZ","11","0","COMMUNITY","9","TRAFFIC","0","1925","Community","9","2017-10-10 15:12:56","120461"
"A2HOUSKURBF8UA","cs_wg_v8_pilot1","33IZTU6J812FVYZ0YOR82WJQ033XSC","83","0","STRUCTURE","9","LADDER","0","1907","structure","9","2017-10-10 15:12:57","120462"
"ACDTQNYOT3GG8","cs_wg_v8_pilot1","3L6L49WXW0YNRUDF2HCVCAC0TOQ543","39","0","KEYBOARD","10","BASKET","1","46804","BASKET","10","2017-10-10 15:13:05","120463"
"A2HOUSKURBF8UA","cs_wg_v8_pilot1","33IZTU6J812FVYZ0YOR82WJQ033XSC","84","0","FOOTBALL","2","HELICOPTER","1","2505","helicopter","2","2017-10-10 15:13:09","120464"
"A1Q93M41J566U1","cs_wg_v8_pilot1","3CFJTT4SXTRWM5QDBZTW4V0FPCM7IZ","12","0","LADDER","10","STOMACH","1","2617","Stomach","10","2017-10-10 15:13:09","120465"
"ACDTQNYOT3GG8","cs_wg_v8_pilot1","3L6L49WXW0YNRUDF2HCVCAC0TOQ543","40","0","BOOKSHELF","9","BASKET","0","4149","BOOKSHELF","9","2017-10-10 15:13:17","120466"
"A2HOUSKURBF8UA","cs_wg_v8_pilot1","33IZTU6J812FVYZ0YOR82WJQ033XSC","85","0","DOORWAY","1","UMBRELLA","0","3510","doorway","1","2017-10-10 15:13:20","120467"
"A1Q93M41J566U1","cs_wg_v8_pilot1","3CFJTT4SXTRWM5QDBZTW4V0FPCM7IZ","13","0","TRAFFIC","2","FOOTBALL","0","2878","Traffic","2","2017-10-10 15:13:23","120468"
"ACDTQNYOT3GG8","cs_wg_v8_pilot1","3L6L49WXW0YNRUDF2HCVCAC0TOQ543","41","0","WEDDING","2","STRUCTURE","1","3767","STRUCTURE","2","2017-10-10 15:13:29","120469"
"A2HOUSKURBF8UA","cs_wg_v8_pilot1","33IZTU6J812FVYZ0YOR82WJQ033XSC","86","0","LADDER","9","HELICOPTER","0","2407","ladder","9","2017-10-10 15:13:31","120470"
"A1Q93M41J566U1","cs_wg_v8_pilot1","3CFJTT4SXTRWM5QDBZTW4V0FPCM7IZ","14","0","HELICOPTER","1","WEDDING","1","3486","Wedding","1","2017-10-10 15:13:38","120471"
"ACDTQNYOT3GG8","cs_wg_v8_pilot1","3L6L49WXW0YNRUDF2HCVCAC0TOQ543","42","0","STOMACH","9","WEDDING","0","3805","STOMACH","9","2017-10-10 15:13:39","120472"
"A2HOUSKURBF8UA","cs_wg_v8_pilot1","33IZTU6J812FVYZ0YOR82WJQ033XSC","87","0","DOORWAY","8","KEYBOARD","1","3747","keyboard","8","2017-10-10 15:13:48","120473"
"ACDTQNYOT3GG8","cs_wg_v8_pilot1","3L6L49WXW0YNRUDF2HCVCAC0TOQ543","43","0","TRAFFIC","9","STOMACH","1","2873","STOMACH","9","2017-10-10 15:13:49","120474"
"A1Q93M41J566U1","cs_wg_v8_pilot1","3CFJTT4SXTRWM5QDBZTW4V0FPCM7IZ","15","0","DOORWAY","8","BASKET","0","5076","Doorway","8","2017-10-10 15:13:52","120475"
"A2HOUSKURBF8UA","cs_wg_v8_pilot1","33IZTU6J812FVYZ0YOR82WJQ033XSC","88","0","STOMACH","10","TRAFFIC","1","1748","traffic","10","2017-10-10 15:13:58","120476"
"ACDTQNYOT3GG8","cs_wg_v8_pilot1","3L6L49WXW0YNRUDF2HCVCAC0TOQ543","44","0","WEDDING","1","LADDER","1","3271","LADDER","1","2017-10-10 15:14:01","120477"
"A1Q93M41J566U1","cs_wg_v8_pilot1","3CFJTT4SXTRWM5QDBZTW4V0FPCM7IZ","16","0","LADDER","0","FOOTBALL","1","3498","Football","0","2017-10-10 15:14:04","120478"
"A2HOUSKURBF8UA","cs_wg_v8_pilot1","33IZTU6J812FVYZ0YOR82WJQ033XSC","89","0","WEDDING","8","KEYBOARD","0","2709","wedding","8","2017-10-10 15:14:09","120479"
"ACDTQNYOT3GG8","cs_wg_v8_pilot1","3L6L49WXW0YNRUDF2HCVCAC0TOQ543","45","0","KEYBOARD","8","STRUCTURE","0","3567","KEYBOARD","8","2017-10-10 15:14:11","120480"
"A1Q93M41J566U1","cs_wg_v8_pilot1","3CFJTT4SXTRWM5QDBZTW4V0FPCM7IZ","17","0","MACHINE","10","HELICOPTER","1","3036","Helicopter","10","2017-10-10 15:14:17","120481"
"A2HOUSKURBF8UA","cs_wg_v8_pilot1","33IZTU6J812FVYZ0YOR82WJQ033XSC","90","0","HELICOPTER","2","BASKET","0","1840","helicopter","2","2017-10-10 15:14:19","120482"
"ACDTQNYOT3GG8","cs_wg_v8_pilot1","3L6L49WXW0YNRUDF2HCVCAC0TOQ543","46","0","STOMACH","10","BASKET","1","2731","BASKET","10","2017-10-10 15:14:21","120483"
"A1Q93M41J566U1","cs_wg_v8_pilot1","3CFJTT4SXTRWM5QDBZTW4V0FPCM7IZ","18","0","UMBRELLA","10","WEDDING","0","2320","Umbrella","10","2017-10-10 15:14:30","120484"
"ACDTQNYOT3GG8","cs_wg_v8_pilot1","3L6L49WXW0YNRUDF2HCVCAC0TOQ543","47","0","DOORWAY","8","STRUCTURE","0","2849","DOORWAY","8","2017-10-10 15:14:31","120485"
"ACDTQNYOT3GG8","cs_wg_v8_pilot1","3L6L49WXW0YNRUDF2HCVCAC0TOQ543","48","0","HELICOPTER","10","DOORWAY","0","3887","HELICOPTER","10","2017-10-10 15:14:43","120486"
"A1Q93M41J566U1","cs_wg_v8_pilot1","3CFJTT4SXTRWM5QDBZTW4V0FPCM7IZ","19","0","DOORWAY","10","HELICOPTER","1","2010","Helicopter","10","2017-10-10 15:14:43","120487"
"A1Q93M41J566U1","cs_wg_v8_pilot1","3CFJTT4SXTRWM5QDBZTW4V0FPCM7IZ","20","0","UMBRELLA","10","BOOKSHELF","0","3186","Umbrella","0","2017-10-10 15:14:55","120488"
"A1Q93M41J566U1","cs_wg_v8_pilot1","3CFJTT4SXTRWM5QDBZTW4V0FPCM7IZ","21","0","BOOKSHELF","9","COMMUNITY","1","1896","Community","9","2017-10-10 15:15:07","120489"
"A1Q93M41J566U1","cs_wg_v8_pilot1","3CFJTT4SXTRWM5QDBZTW4V0FPCM7IZ","22","0","COMMUNITY","9","STOMACH","0","2507","Community","9","2017-10-10 15:15:19","120490"
"A1Q93M41J566U1","cs_wg_v8_pilot1","3CFJTT4SXTRWM5QDBZTW4V0FPCM7IZ","23","0","HELICOPTER","10","STRUCTURE","0","2112","Helicopter","10","2017-10-10 15:15:31","120491"
"A1Q93M41J566U1","cs_wg_v8_pilot1","3CFJTT4SXTRWM5QDBZTW4V0FPCM7IZ","24","0","UMBRELLA","10","KEYBOARD","0","1809","Umbrella","10","2017-10-10 15:15:41","120492"
"A1Q93M41J566U1","cs_wg_v8_pilot1","3CFJTT4SXTRWM5QDBZTW4V0FPCM7IZ","25","0","HELICOPTER","10","STOMACH","0","2259","Helicopter","10","2017-10-10 15:15:54","120493"
"A1Q93M41J566U1","cs_wg_v8_pilot1","3CFJTT4SXTRWM5QDBZTW4V0FPCM7IZ","26","0","DOORWAY","9","COMMUNITY","1","2892","Community","9","2017-10-10 15:16:07","120494"
"A1Q93M41J566U1","cs_wg_v8_pilot1","3CFJTT4SXTRWM5QDBZTW4V0FPCM7IZ","27","0","FOOTBALL","2","KEYBOARD","1","2161","Keyboard","2","2017-10-10 15:16:20","120495"
"A1Q93M41J566U1","cs_wg_v8_pilot1","3CFJTT4SXTRWM5QDBZTW4V0FPCM7IZ","28","0","STOMACH","0","STRUCTURE","1","1716","Structure","0","2017-10-10 15:16:32","120496"
"ACDTQNYOT3GG8","cs_wg_v8_pilot1","3L6L49WXW0YNRUDF2HCVCAC0TOQ543","49","0","TRAFFIC","10","FOOTBALL","1","103481","FOOTBALL","10","2017-10-10 15:16:34","120497"
"A1Q93M41J566U1","cs_wg_v8_pilot1","3CFJTT4SXTRWM5QDBZTW4V0FPCM7IZ","29","0","KEYBOARD","8","BASKET","1","3259","Basket","8","2017-10-10 15:16:43","120498"
"ACDTQNYOT3GG8","cs_wg_v8_pilot1","3L6L49WXW0YNRUDF2HCVCAC0TOQ543","50","0","BASKET","10","UMBRELLA","0","4535","BASKET","10","2017-10-10 15:16:46","120499"
"A1Q93M41J566U1","cs_wg_v8_pilot1","3CFJTT4SXTRWM5QDBZTW4V0FPCM7IZ","30","0","TRAFFIC","2","DOORWAY","0","2663","Traffic","2","2017-10-10 15:16:54","120500"
"ACDTQNYOT3GG8","cs_wg_v8_pilot1","3L6L49WXW0YNRUDF2HCVCAC0TOQ543","51","0","STRUCTURE","2","MACHINE","1","9249","MACHINE","2","2017-10-10 15:17:02","120501"
"A1Q93M41J566U1","cs_wg_v8_pilot1","3CFJTT4SXTRWM5QDBZTW4V0FPCM7IZ","31","0","WEDDING","0","STRUCTURE","1","1765","Structure","0","2017-10-10 15:17:06","120502"
"ACDTQNYOT3GG8","cs_wg_v8_pilot1","3L6L49WXW0YNRUDF2HCVCAC0TOQ543","52","0","TRAFFIC","0","WEDDING","0","3214","TRAFFIC","0","2017-10-10 15:17:14","120503"
"A1Q93M41J566U1","cs_wg_v8_pilot1","3CFJTT4SXTRWM5QDBZTW4V0FPCM7IZ","32","0","STRUCTURE","8","DOORWAY","1","2383","Doorway","8","2017-10-10 15:17:20","120504"
"ACDTQNYOT3GG8","cs_wg_v8_pilot1","3L6L49WXW0YNRUDF2HCVCAC0TOQ543","53","0","STOMACH","10","FOOTBALL","1","3384","FOOTBALL","10","2017-10-10 15:17:27","120505"
"A1Q93M41J566U1","cs_wg_v8_pilot1","3CFJTT4SXTRWM5QDBZTW4V0FPCM7IZ","33","0","STRUCTURE","1","LADDER","1","1602","Ladder","1","2017-10-10 15:17:30","120506"
"ACDTQNYOT3GG8","cs_wg_v8_pilot1","3L6L49WXW0YNRUDF2HCVCAC0TOQ543","54","0","HELICOPTER","10","STOMACH","0","3096","HELICOPTER","10","2017-10-10 15:17:37","120507"
"A1Q93M41J566U1","cs_wg_v8_pilot1","3CFJTT4SXTRWM5QDBZTW4V0FPCM7IZ","34","0","WEDDING","1","STOMACH","0","3575","Wedding","1","2017-10-10 15:17:42","120508"
"ACDTQNYOT3GG8","cs_wg_v8_pilot1","3L6L49WXW0YNRUDF2HCVCAC0TOQ543","55","0","KEYBOARD","10","HELICOPTER","1","3222","HELICOPTER","10","2017-10-10 15:17:48","120509"
"A1Q93M41J566U1","cs_wg_v8_pilot1","3CFJTT4SXTRWM5QDBZTW4V0FPCM7IZ","35","0","KEYBOARD","9","COMMUNITY","1","5118","Community","9","2017-10-10 15:17:57","120510"
"ACDTQNYOT3GG8","cs_wg_v8_pilot1","3L6L49WXW0YNRUDF2HCVCAC0TOQ543","56","0","KEYBOARD","10","FOOTBALL","1","8191","FOOTBALL","10","2017-10-10 15:18:04","120511"
"A1Q93M41J566U1","cs_wg_v8_pilot1","3CFJTT4SXTRWM5QDBZTW4V0FPCM7IZ","36","0","TRAFFIC","2","BOOKSHELF","0","2662","Traffic","2","2017-10-10 15:18:09","120512"
"ACDTQNYOT3GG8","cs_wg_v8_pilot1","3L6L49WXW0YNRUDF2HCVCAC0TOQ543","57","0","MACHINE","9","BOOKSHELF","1","3089","BOOKSHELF","9","2017-10-10 15:18:15","120513"
"A1Q93M41J566U1","cs_wg_v8_pilot1","3CFJTT4SXTRWM5QDBZTW4V0FPCM7IZ","37","0","TRAFFIC","2","BASKET","0","3110","Traffic","2","2017-10-10 15:18:20","120514"
"ACDTQNYOT3GG8","cs_wg_v8_pilot1","3L6L49WXW0YNRUDF2HCVCAC0TOQ543","58","0","KEYBOARD","8","DOORWAY","0","4565","KEYBOARD","8","2017-10-10 15:18:26","120515"
"A1Q93M41J566U1","cs_wg_v8_pilot1","3CFJTT4SXTRWM5QDBZTW4V0FPCM7IZ","38","0","TRAFFIC","2","WEDDING","0","2733","Traffic","2","2017-10-10 15:18:32","120516"
"A1Q93M41J566U1","cs_wg_v8_pilot1","3CFJTT4SXTRWM5QDBZTW4V0FPCM7IZ","39","0","LADDER","10","UMBRELLA","1","1634","Umbrella","10","2017-10-10 15:18:43","120517"
"A1Q93M41J566U1","cs_wg_v8_pilot1","3CFJTT4SXTRWM5QDBZTW4V0FPCM7IZ","40","0","TRAFFIC","2","KEYBOARD","0","3906","Traffic","2","2017-10-10 15:18:55","120518"
"A1Q93M41J566U1","cs_wg_v8_pilot1","3CFJTT4SXTRWM5QDBZTW4V0FPCM7IZ","41","0","MACHINE","9","TRAFFIC","0","2126","Machine","9","2017-10-10 15:19:06","120519"
"A1Q93M41J566U1","cs_wg_v8_pilot1","3CFJTT4SXTRWM5QDBZTW4V0FPCM7IZ","42","0","KEYBOARD","9","MACHINE","1","1692","Machine","9","2017-10-10 15:19:18","120520"
"A1Q93M41J566U1","cs_wg_v8_pilot1","3CFJTT4SXTRWM5QDBZTW4V0FPCM7IZ","43","0","BASKET","9","COMMUNITY","1","1403","Community","9","2017-10-10 15:19:29","120521"
"A1Q93M41J566U1","cs_wg_v8_pilot1","3CFJTT4SXTRWM5QDBZTW4V0FPCM7IZ","44","0","COMMUNITY","9","STRUCTURE","0","3496","Community","9","2017-10-10 15:19:43","120522"
"A1Q93M41J566U1","cs_wg_v8_pilot1","3CFJTT4SXTRWM5QDBZTW4V0FPCM7IZ","45","0","FOOTBALL","10","STOMACH","1","2981","Stomach","10","2017-10-10 15:19:55","120523"
"A1Q93M41J566U1","cs_wg_v8_pilot1","3CFJTT4SXTRWM5QDBZTW4V0FPCM7IZ","46","0","FOOTBALL","1","WEDDING","1","2366","Wedding","1","2017-10-10 15:20:06","120524"
"A1Q93M41J566U1","cs_wg_v8_pilot1","3CFJTT4SXTRWM5QDBZTW4V0FPCM7IZ","47","0","LADDER","8","DOORWAY","1","2733","Doorway","8","2017-10-10 15:20:18","120525"
"A1Q93M41J566U1","cs_wg_v8_pilot1","3CFJTT4SXTRWM5QDBZTW4V0FPCM7IZ","48","0","UMBRELLA","10","FOOTBALL","0","2701","Umbrella","10","2017-10-10 15:20:30","120526"
"A1Q93M41J566U1","cs_wg_v8_pilot1","3CFJTT4SXTRWM5QDBZTW4V0FPCM7IZ","49","0","WEDDING","9","MACHINE","1","3492","Machine","9","2017-10-10 15:20:42","120527"
"A1Q93M41J566U1","cs_wg_v8_pilot1","3CFJTT4SXTRWM5QDBZTW4V0FPCM7IZ","50","0","STOMACH","10","KEYBOARD","0","2019","Stomach","10","2017-10-10 15:20:53","120528"
"A1Q93M41J566U1","cs_wg_v8_pilot1","3CFJTT4SXTRWM5QDBZTW4V0FPCM7IZ","51","0","KEYBOARD","1","WEDDING","1","2543","Wedding","1","2017-10-10 15:21:04","120529"
"ACDTQNYOT3GG8","cs_wg_v8_pilot1","3L6L49WXW0YNRUDF2HCVCAC0TOQ543","59","0","HELICOPTER","10","BASKET","0","155394","HELICOPTER","10","2017-10-10 15:21:09","120530"
"A1Q93M41J566U1","cs_wg_v8_pilot1","3CFJTT4SXTRWM5QDBZTW4V0FPCM7IZ","52","0","FOOTBALL","10","HELICOPTER","1","1485","Helicopter","1","2017-10-10 15:21:15","120531"
"ACDTQNYOT3GG8","cs_wg_v8_pilot1","3L6L49WXW0YNRUDF2HCVCAC0TOQ543","60","0","HELICOPTER","10","BOOKSHELF","0","5877","HELICOPTER","10","2017-10-10 15:21:23","120532"
"A1Q93M41J566U1","cs_wg_v8_pilot1","3CFJTT4SXTRWM5QDBZTW4V0FPCM7IZ","53","0","HELICOPTER","10","UMBRELLA","0","5096","Helicopter","10","2017-10-10 15:21:30","120533"
"ACDTQNYOT3GG8","cs_wg_v8_pilot1","3L6L49WXW0YNRUDF2HCVCAC0TOQ543","61","0","STOMACH","9","MACHINE","0","3752","STOMACH","9","2017-10-10 15:21:34","120534"
"A1Q93M41J566U1","cs_wg_v8_pilot1","3CFJTT4SXTRWM5QDBZTW4V0FPCM7IZ","54","0","TRAFFIC","10","STOMACH","1","1269","Stomach","10","2017-10-10 15:21:41","120535"
"ACDTQNYOT3GG8","cs_wg_v8_pilot1","3L6L49WXW0YNRUDF2HCVCAC0TOQ543","62","0","FOOTBALL","10","UMBRELLA","0","3620","FOOTBALL","10","2017-10-10 15:21:47","120536"
"A1Q93M41J566U1","cs_wg_v8_pilot1","3CFJTT4SXTRWM5QDBZTW4V0FPCM7IZ","55","0","FOOTBALL","0","BOOKSHELF","0","2495","Football","0","2017-10-10 15:21:53","120537"
"A1Q93M41J566U1","cs_wg_v8_pilot1","3CFJTT4SXTRWM5QDBZTW4V0FPCM7IZ","56","0","MACHINE","9","DOORWAY","0","1795","Machine","9","2017-10-10 15:22:03","120538"
"A1Q93M41J566U1","cs_wg_v8_pilot1","3CFJTT4SXTRWM5QDBZTW4V0FPCM7IZ","57","0","WEDDING","8","DOORWAY","1","2203","Doorway","8","2017-10-10 15:22:14","120539"
"ACDTQNYOT3GG8","cs_wg_v8_pilot1","3L6L49WXW0YNRUDF2HCVCAC0TOQ543","63","0","UMBRELLA","10","HELICOPTER","1","18828","HELICOPTER","10","2017-10-10 15:22:14","120540"
"ACDTQNYOT3GG8","cs_wg_v8_pilot1","3L6L49WXW0YNRUDF2HCVCAC0TOQ543","64","0","WEDDING","10","BASKET","1","2844","BASKET","10","2017-10-10 15:22:24","120541"
"A1Q93M41J566U1","cs_wg_v8_pilot1","3CFJTT4SXTRWM5QDBZTW4V0FPCM7IZ","58","0","BASKET","0","STRUCTURE","1","1737","Structure","0","2017-10-10 15:22:24","120542"
"ACDTQNYOT3GG8","cs_wg_v8_pilot1","3L6L49WXW0YNRUDF2HCVCAC0TOQ543","65","0","DOORWAY","10","FOOTBALL","1","3052","FOOTBALL","10","2017-10-10 15:22:37","120543"
"A1Q93M41J566U1","cs_wg_v8_pilot1","3CFJTT4SXTRWM5QDBZTW4V0FPCM7IZ","59","0","DOORWAY","8","FOOTBALL","0","2513","Doorway","8","2017-10-10 15:22:38","120544"
"A1Q93M41J566U1","cs_wg_v8_pilot1","3CFJTT4SXTRWM5QDBZTW4V0FPCM7IZ","60","0","TRAFFIC","10","UMBRELLA","1","1384","Umbrella","10","2017-10-10 15:22:49","120545"
"ACDTQNYOT3GG8","cs_wg_v8_pilot1","3L6L49WXW0YNRUDF2HCVCAC0TOQ543","66","0","STRUCTURE","1","LADDER","1","4447","LADDER","1","2017-10-10 15:22:49","120546"
"ACDTQNYOT3GG8","cs_wg_v8_pilot1","3L6L49WXW0YNRUDF2HCVCAC0TOQ543","67","0","DOORWAY","8","UMBRELLA","0","3440","DOORWAY","8","2017-10-10 15:23:00","120547"
"A1Q93M41J566U1","cs_wg_v8_pilot1","3CFJTT4SXTRWM5QDBZTW4V0FPCM7IZ","61","0","BOOKSHELF","10","STOMACH","1","1364","Stomach","10","2017-10-10 15:23:01","120548"
"ACDTQNYOT3GG8","cs_wg_v8_pilot1","3L6L49WXW0YNRUDF2HCVCAC0TOQ543","68","0","TRAFFIC","0","UMBRELLA","1","3737","UMBRELLA","0","2017-10-10 15:23:11","120549"
"A1Q93M41J566U1","cs_wg_v8_pilot1","3CFJTT4SXTRWM5QDBZTW4V0FPCM7IZ","62","0","BASKET","10","STOMACH","1","1387","Stomach","10","2017-10-10 15:23:11","120550"
"A1Q93M41J566U1","cs_wg_v8_pilot1","3CFJTT4SXTRWM5QDBZTW4V0FPCM7IZ","63","0","BASKET","8","FOOTBALL","0","2708","Basket","8","2017-10-10 15:23:23","120551"
"ACDTQNYOT3GG8","cs_wg_v8_pilot1","3L6L49WXW0YNRUDF2HCVCAC0TOQ543","69","0","TRAFFIC","9","BOOKSHELF","1","8689","BOOKSHELF","9","2017-10-10 15:23:26","120552"
"A1Q93M41J566U1","cs_wg_v8_pilot1","3CFJTT4SXTRWM5QDBZTW4V0FPCM7IZ","64","0","STOMACH","10","DOORWAY","0","2719","Stomach","10","2017-10-10 15:23:36","120553"
"A1Q93M41J566U1","cs_wg_v8_pilot1","3CFJTT4SXTRWM5QDBZTW4V0FPCM7IZ","65","0","STRUCTURE","0","KEYBOARD","0","1903","Structure","0","2017-10-10 15:23:47","120554"
"A1Q93M41J566U1","cs_wg_v8_pilot1","3CFJTT4SXTRWM5QDBZTW4V0FPCM7IZ","66","0","MACHINE","9","BOOKSHELF","0","2095","Machine","9","2017-10-10 15:23:59","120555"
"A1Q93M41J566U1","cs_wg_v8_pilot1","3CFJTT4SXTRWM5QDBZTW4V0FPCM7IZ","67","0","COMMUNITY","9","LADDER","0","3227","Community","9","2017-10-10 15:24:12","120556"
"A1Q9BT0F1AUUAY","cs_wg_v8_pilot1","31Z0PCVWUKGMVJ6O5BS0I22O0T7T77","0","0","LADDER","10","STOMACH","1","10779","stomach","10","2017-10-10 15:24:15","120557"
"A1Q93M41J566U1","cs_wg_v8_pilot1","3CFJTT4SXTRWM5QDBZTW4V0FPCM7IZ","68","0","WEDDING","8","BASKET","1","2331","Basket","8","2017-10-10 15:24:23","120558"
"A1Q93M41J566U1","cs_wg_v8_pilot1","3CFJTT4SXTRWM5QDBZTW4V0FPCM7IZ","69","0","COMMUNITY","10","HELICOPTER","1","1695","Helicopter","10","2017-10-10 15:24:35","120559"
"A1Q93M41J566U1","cs_wg_v8_pilot1","3CFJTT4SXTRWM5QDBZTW4V0FPCM7IZ","70","0","STRUCTURE","0","FOOTBALL","1","2346","Football","0","2017-10-10 15:24:47","120560"
"A1Q9BT0F1AUUAY","cs_wg_v8_pilot1","31Z0PCVWUKGMVJ6O5BS0I22O0T7T77","1","0","STRUCTURE","10","COMMUNITY","1","11343","community","10","2017-10-10 15:24:55","120561"
"A1Q93M41J566U1","cs_wg_v8_pilot1","3CFJTT4SXTRWM5QDBZTW4V0FPCM7IZ","71","0","UMBRELLA","10","COMMUNITY","0","1834","Umbrella","10","2017-10-10 15:24:59","120562"
"A1Q93M41J566U1","cs_wg_v8_pilot1","3CFJTT4SXTRWM5QDBZTW4V0FPCM7IZ","72","0","DOORWAY","8","BOOKSHELF","0","2830","Doorway","8","2017-10-10 15:25:11","120563"
"A1Q9BT0F1AUUAY","cs_wg_v8_pilot1","31Z0PCVWUKGMVJ6O5BS0I22O0T7T77","2","0","BASKET","9","FOOTBALL","1","4740","football","9","2017-10-10 15:25:14","120564"
"A1Q93M41J566U1","cs_wg_v8_pilot1","3CFJTT4SXTRWM5QDBZTW4V0FPCM7IZ","73","0","TRAFFIC","10","HELICOPTER","1","2148","Helicopter","10","2017-10-10 15:25:25","120565"
"A1Q9BT0F1AUUAY","cs_wg_v8_pilot1","31Z0PCVWUKGMVJ6O5BS0I22O0T7T77","3","0","TRAFFIC","2","MACHINE","1","11221","machine","2","2017-10-10 15:25:35","120566"
"A1Q9BT0F1AUUAY","cs_wg_v8_pilot1","31Z0PCVWUKGMVJ6O5BS0I22O0T7T77","4","0","STOMACH","10","DOORWAY","0","4401","stomach","10","2017-10-10 15:25:49","120567"
"A1Q9BT0F1AUUAY","cs_wg_v8_pilot1","31Z0PCVWUKGMVJ6O5BS0I22O0T7T77","5","0","BASKET","10","LADDER","0","6348","Basket","10","2017-10-10 15:26:06","120568"
"A1Q93M41J566U1","cs_wg_v8_pilot1","3CFJTT4SXTRWM5QDBZTW4V0FPCM7IZ","74","0","KEYBOARD","1","LADDER","1","2229","Ladder","1","2017-10-10 15:26:20","120569"
"A1Q9BT0F1AUUAY","cs_wg_v8_pilot1","31Z0PCVWUKGMVJ6O5BS0I22O0T7T77","6","0","FOOTBALL","9","MACHINE","0","12122","football","9","2017-10-10 15:26:26","120570"
"A1Q93M41J566U1","cs_wg_v8_pilot1","3CFJTT4SXTRWM5QDBZTW4V0FPCM7IZ","75","0","BOOKSHELF","2","KEYBOARD","1","2230","Keyboard","2","2017-10-10 15:26:31","120571"
"A1Q93M41J566U1","cs_wg_v8_pilot1","3CFJTT4SXTRWM5QDBZTW4V0FPCM7IZ","76","0","STRUCTURE","2","TRAFFIC","1","2132","Traffic","2","2017-10-10 15:26:43","120572"
"A1Q9BT0F1AUUAY","cs_wg_v8_pilot1","31Z0PCVWUKGMVJ6O5BS0I22O0T7T77","7","0","STOMACH","0","HELICOPTER","1","3770","helicopter","0","2017-10-10 15:26:45","120573"
"A1Q93M41J566U1","cs_wg_v8_pilot1","3CFJTT4SXTRWM5QDBZTW4V0FPCM7IZ","77","0","HELICOPTER","10","BASKET","0","1763","Helicopter","10","2017-10-10 15:26:53","120574"
"ACDTQNYOT3GG8","cs_wg_v8_pilot1","3L6L49WXW0YNRUDF2HCVCAC0TOQ543","70","0","STRUCTURE","10","HELICOPTER","1","199472","HELICOPTER","10","2017-10-10 15:26:53","120575"
"A1Q9BT0F1AUUAY","cs_wg_v8_pilot1","31Z0PCVWUKGMVJ6O5BS0I22O0T7T77","8","0","FOOTBALL","1","STRUCTURE","1","2720","structure","1","2017-10-10 15:26:58","120576"
"A1Q93M41J566U1","cs_wg_v8_pilot1","3CFJTT4SXTRWM5QDBZTW4V0FPCM7IZ","78","0","WEDDING","9","COMMUNITY","1","2411","Community","9","2017-10-10 15:27:05","120577"
"A1Q9BT0F1AUUAY","cs_wg_v8_pilot1","31Z0PCVWUKGMVJ6O5BS0I22O0T7T77","9","0","BASKET","8","KEYBOARD","1","3789","keyboard","8","2017-10-10 15:27:12","120578"
"A1Q93M41J566U1","cs_wg_v8_pilot1","3CFJTT4SXTRWM5QDBZTW4V0FPCM7IZ","79","0","UMBRELLA","10","STOMACH","1","2063","Stomach","10","2017-10-10 15:27:17","120579"
"A1Q9BT0F1AUUAY","cs_wg_v8_pilot1","31Z0PCVWUKGMVJ6O5BS0I22O0T7T77","10","0","MACHINE","2","BASKET","0","3429","machine","2","2017-10-10 15:27:24","120580"
"A1Q93M41J566U1","cs_wg_v8_pilot1","3CFJTT4SXTRWM5QDBZTW4V0FPCM7IZ","80","0","MACHINE","9","LADDER","0","2184","Machine","9","2017-10-10 15:27:28","120581"
"A1Q93M41J566U1","cs_wg_v8_pilot1","3CFJTT4SXTRWM5QDBZTW4V0FPCM7IZ","81","0","LADDER","2","TRAFFIC","1","2311","Traffic","2","2017-10-10 15:27:39","120582"
"A1Q9BT0F1AUUAY","cs_wg_v8_pilot1","31Z0PCVWUKGMVJ6O5BS0I22O0T7T77","11","0","UMBRELLA","8","KEYBOARD","1","7114","keyboard","8","2017-10-10 15:27:41","120583"
"ACDTQNYOT3GG8","cs_wg_v8_pilot1","3L6L49WXW0YNRUDF2HCVCAC0TOQ543","71","0","LADDER","10","FOOTBALL","1","15778","FOOTBALL","10","2017-10-10 15:27:43","120584"
"A1Q93M41J566U1","cs_wg_v8_pilot1","3CFJTT4SXTRWM5QDBZTW4V0FPCM7IZ","82","0","STOMACH","10","MACHINE","0","2822","Stomach","10","2017-10-10 15:27:51","120585"
"A1Q9BT0F1AUUAY","cs_wg_v8_pilot1","31Z0PCVWUKGMVJ6O5BS0I22O0T7T77","12","0","DOORWAY","8","LADDER","0","8792","doorway","8","2017-10-10 15:28:01","120586"
