"subject","version","assignmentId","trial","trial_type","word","value","alt","value2","choice","rt","resp","resp2","resp3","resp4","used_hint","stamp","id"
"A30YR5TPOKQYXJ","cs_wg_mon_conf_time_pilot1","3I7DHKZYGN1XPAA4MY8E3E9TY085FS","0","0","JULY","12","DECEMBER","1","0","12427",,,,,"1","2018-10-24 20:05:14","302013"
"A30YR5TPOKQYXJ","cs_wg_mon_conf_time_pilot1","3I7DHKZYGN1XPAA4MY8E3E9TY085FS","1","0","MARCH","5","NOVEMBER","2","1","4834",,,,,"0","2018-10-24 20:05:23","302014"
"A30YR5TPOKQYXJ","cs_wg_mon_conf_time_pilot1","3I7DHKZYGN1XPAA4MY8E3E9TY085FS","2","0","JULY","12","MAY","4","0","4528",,,,,"0","2018-10-24 20:05:31","302015"
"A30YR5TPOKQYXJ","cs_wg_mon_conf_time_pilot1","3I7DHKZYGN1XPAA4MY8E3E9TY085FS","3","0","AUGUST","7","DECEMBER","1","0","5017",,,,,"0","2018-10-24 20:05:39","302016"
"A30YR5TPOKQYXJ","cs_wg_mon_conf_time_pilot1","3I7DHKZYGN1XPAA4MY8E3E9TY085FS","4","0","JUNE","3","JULY","12","1","3076",,,,,"0","2018-10-24 20:05:45","302017"
"A30YR5TPOKQYXJ","cs_wg_mon_conf_time_pilot1","3I7DHKZYGN1XPAA4MY8E3E9TY085FS","5","0","OCTOBER","6","JUNE","3","1","2366",,,,,"0","2018-10-24 20:05:50","302018"
"A30YR5TPOKQYXJ","cs_wg_mon_conf_time_pilot1","3I7DHKZYGN1XPAA4MY8E3E9TY085FS","6","0","APRIL","10","JULY","12","1","9515",,,,,"1","2018-10-24 20:06:03","302019"
"A2PC8T3FGQHGK5","cs_wg_mon_conf_time_pilot1","3907X2AHF06HHQGBII2LH1KLGW42PR","0","0","DECEMBER","10","FEBRUARY","11","1","16755",,,,,"1","2018-10-24 20:06:08","302020"
"A30YR5TPOKQYXJ","cs_wg_mon_conf_time_pilot1","3I7DHKZYGN1XPAA4MY8E3E9TY085FS","7","0","APRIL","10","MAY","4","0","4957",,,,,"0","2018-10-24 20:06:10","302021"
"A30YR5TPOKQYXJ","cs_wg_mon_conf_time_pilot1","3I7DHKZYGN1XPAA4MY8E3E9TY085FS","8","0","NOVEMBER","2","SEPTEMBER","9","1","3608",,,,,"0","2018-10-24 20:06:16","302022"
"A2PC8T3FGQHGK5","cs_wg_mon_conf_time_pilot1","3907X2AHF06HHQGBII2LH1KLGW42PR","1","0","MARCH","5","JUNE","1","0","10196",,,,,"0","2018-10-24 20:06:22","302023"
"A30YR5TPOKQYXJ","cs_wg_mon_conf_time_pilot1","3I7DHKZYGN1XPAA4MY8E3E9TY085FS","9","0","MAY","4","FEBRUARY","8","1","6273",,,,,"1","2018-10-24 20:06:25","302024"
"A2PC8T3FGQHGK5","cs_wg_mon_conf_time_pilot1","3907X2AHF06HHQGBII2LH1KLGW42PR","2","0","APRIL","8","JANUARY","12","0","1669",,,,,"0","2018-10-24 20:06:28","302025"
"A30YR5TPOKQYXJ","cs_wg_mon_conf_time_pilot1","3I7DHKZYGN1XPAA4MY8E3E9TY085FS","10","0","JANUARY","11","JUNE","3","0","4337",,,,,"1","2018-10-24 20:06:31","302026"
"A2PC8T3FGQHGK5","cs_wg_mon_conf_time_pilot1","3907X2AHF06HHQGBII2LH1KLGW42PR","3","0","MAY","4","SEPTEMBER","6","0","1692",,,,,"0","2018-10-24 20:06:34","302027"
"A30YR5TPOKQYXJ","cs_wg_mon_conf_time_pilot1","3I7DHKZYGN1XPAA4MY8E3E9TY085FS","11","0","DECEMBER","1","JUNE","3","1","2733",,,,,"0","2018-10-24 20:06:36","302028"
"A30YR5TPOKQYXJ","cs_wg_mon_conf_time_pilot1","3I7DHKZYGN1XPAA4MY8E3E9TY085FS","12","0","DECEMBER","1","JULY","12","1","4231",,,,,"0","2018-10-24 20:06:43","302029"
"A2PC8T3FGQHGK5","cs_wg_mon_conf_time_pilot1","3907X2AHF06HHQGBII2LH1KLGW42PR","4","0","JUNE","1","SEPTEMBER","6","0","10781",,,,,"0","2018-10-24 20:06:49","302030"
"A2PC8T3FGQHGK5","cs_wg_mon_conf_time_pilot1","3907X2AHF06HHQGBII2LH1KLGW42PR","5","0","APRIL","8","DECEMBER","10","0","4927",,,,,"0","2018-10-24 20:06:56","302031"
"A30YR5TPOKQYXJ","cs_wg_mon_conf_time_pilot1","3I7DHKZYGN1XPAA4MY8E3E9TY085FS","13","0","APRIL","10","FEBRUARY","8","0","11620",,,,,"1","2018-10-24 20:06:57","302032"
"A2PC8T3FGQHGK5","cs_wg_mon_conf_time_pilot1","3907X2AHF06HHQGBII2LH1KLGW42PR","6","0","MAY","4","FEBRUARY","11","1","2039",,,,,"0","2018-10-24 20:07:01","302033"
"A30YR5TPOKQYXJ","cs_wg_mon_conf_time_pilot1","3I7DHKZYGN1XPAA4MY8E3E9TY085FS","14","0","MAY","4","OCTOBER","6","1","2997",,,,,"0","2018-10-24 20:07:02","302034"
"A2PC8T3FGQHGK5","cs_wg_mon_conf_time_pilot1","3907X2AHF06HHQGBII2LH1KLGW42PR","7","0","SEPTEMBER","6","APRIL","8","0","2125",,,,,"0","2018-10-24 20:07:06","302035"
"A30YR5TPOKQYXJ","cs_wg_mon_conf_time_pilot1","3I7DHKZYGN1XPAA4MY8E3E9TY085FS","15","0","APRIL","10","MARCH","5","0","3771",,,,,"1","2018-10-24 20:07:08","302036"
"A2PC8T3FGQHGK5","cs_wg_mon_conf_time_pilot1","3907X2AHF06HHQGBII2LH1KLGW42PR","8","0","SEPTEMBER","6","AUGUST","2","0","2563",,,,,"0","2018-10-24 20:07:11","302037"
"A30YR5TPOKQYXJ","cs_wg_mon_conf_time_pilot1","3I7DHKZYGN1XPAA4MY8E3E9TY085FS","16","0","OCTOBER","6","DECEMBER","1","1","2757",,,,,"0","2018-10-24 20:07:13","302038"
"AYGFIU5LDCXW4","cs_wg_mon_conf_time_pilot1","3X0H8UUIT1P06YUAOJVM0D5L7N5SWE","0","0","OCTOBER","3","JULY","6","0","5435",,,,,"0","2018-10-24 20:07:14","302039"
"A2PC8T3FGQHGK5","cs_wg_mon_conf_time_pilot1","3907X2AHF06HHQGBII2LH1KLGW42PR","9","0","OCTOBER","9","JANUARY","12","1","1938",,,,,"0","2018-10-24 20:07:17","302040"
"A30YR5TPOKQYXJ","cs_wg_mon_conf_time_pilot1","3I7DHKZYGN1XPAA4MY8E3E9TY085FS","17","0","DECEMBER","1","FEBRUARY","8","1","4457",,,,,"0","2018-10-24 20:07:20","302041"
"A2PC8T3FGQHGK5","cs_wg_mon_conf_time_pilot1","3907X2AHF06HHQGBII2LH1KLGW42PR","10","0","AUGUST","2","FEBRUARY","11","1","1804",,,,,"0","2018-10-24 20:07:21","302042"
"AYGFIU5LDCXW4","cs_wg_mon_conf_time_pilot1","3X0H8UUIT1P06YUAOJVM0D5L7N5SWE","1","0","MAY","11","DECEMBER","8","1","3346",,,,,"0","2018-10-24 20:07:23","302043"
"A2PTZ50APT1KT3","cs_wg_mon_conf_time_pilot1","3X65QVEQI0O4ONTFNJYKCXKNNDGCLC","0","0","JANUARY","6","MARCH","3","0","9330",,,,,"1","2018-10-24 20:07:24","302044"
"A30YR5TPOKQYXJ","cs_wg_mon_conf_time_pilot1","3I7DHKZYGN1XPAA4MY8E3E9TY085FS","18","0","FEBRUARY","8","MAY","4","0","3736",,,,,"1","2018-10-24 20:07:27","302045"
"A2PC8T3FGQHGK5","cs_wg_mon_conf_time_pilot1","3907X2AHF06HHQGBII2LH1KLGW42PR","11","0","SEPTEMBER","6","FEBRUARY","11","0","3264",,,,,"0","2018-10-24 20:07:28","302046"
"AYGFIU5LDCXW4","cs_wg_mon_conf_time_pilot1","3X0H8UUIT1P06YUAOJVM0D5L7N5SWE","2","0","NOVEMBER","9","FEBRUARY","2","0","3996",,,,,"0","2018-10-24 20:07:29","302047"
"A2PC8T3FGQHGK5","cs_wg_mon_conf_time_pilot1","3907X2AHF06HHQGBII2LH1KLGW42PR","12","0","JULY","3","FEBRUARY","11","1","1580",,,,,"0","2018-10-24 20:07:32","302048"
"A30YR5TPOKQYXJ","cs_wg_mon_conf_time_pilot1","3I7DHKZYGN1XPAA4MY8E3E9TY085FS","19","0","AUGUST","7","OCTOBER","6","0","4060",,,,,"1","2018-10-24 20:07:33","302049"
"AYGFIU5LDCXW4","cs_wg_mon_conf_time_pilot1","3X0H8UUIT1P06YUAOJVM0D5L7N5SWE","3","0","JANUARY","7","MARCH","10","0","2516",,,,,"0","2018-10-24 20:07:34","302050"
"A2PTZ50APT1KT3","cs_wg_mon_conf_time_pilot1","3X65QVEQI0O4ONTFNJYKCXKNNDGCLC","1","0","MAY","1","MARCH","3","0","5754",,,,,"0","2018-10-24 20:07:35","302051"
"A2PC8T3FGQHGK5","cs_wg_mon_conf_time_pilot1","3907X2AHF06HHQGBII2LH1KLGW42PR","13","0","AUGUST","2","JULY","3","0","1998",,,,,"0","2018-10-24 20:07:36","302052"
"A30YR5TPOKQYXJ","cs_wg_mon_conf_time_pilot1","3I7DHKZYGN1XPAA4MY8E3E9TY085FS","20","0","MAY","4","JUNE","3","1","2369",,,,,"0","2018-10-24 20:07:37","302053"
"A30YR5TPOKQYXJ","cs_wg_mon_conf_time_pilot1","3I7DHKZYGN1XPAA4MY8E3E9TY085FS","21","0","SEPTEMBER","9","JULY","12","1","2393",,,,,"0","2018-10-24 20:07:42","302054"
"A2PC8T3FGQHGK5","cs_wg_mon_conf_time_pilot1","3907X2AHF06HHQGBII2LH1KLGW42PR","14","0","FEBRUARY","11","AUGUST","2","0","2029",,,,,"0","2018-10-24 20:07:42","302055"
"AYGFIU5LDCXW4","cs_wg_mon_conf_time_pilot1","3X0H8UUIT1P06YUAOJVM0D5L7N5SWE","4","0","JULY","6","NOVEMBER","9","0","3732",,,,,"0","2018-10-24 20:07:43","302056"
"A2PTZ50APT1KT3","cs_wg_mon_conf_time_pilot1","3X65QVEQI0O4ONTFNJYKCXKNNDGCLC","2","0","JUNE","2","AUGUST","5","1","6823",,,,,"1","2018-10-24 20:07:44","302057"
"A2PC8T3FGQHGK5","cs_wg_mon_conf_time_pilot1","3907X2AHF06HHQGBII2LH1KLGW42PR","15","0","FEBRUARY","11","JULY","3","0","1418",,,,,"0","2018-10-24 20:07:46","302058"
"A30YR5TPOKQYXJ","cs_wg_mon_conf_time_pilot1","3I7DHKZYGN1XPAA4MY8E3E9TY085FS","22","0","JUNE","3","MAY","4","0","2575",,,,,"0","2018-10-24 20:07:46","302059"
"A2PC8T3FGQHGK5","cs_wg_mon_conf_time_pilot1","3907X2AHF06HHQGBII2LH1KLGW42PR","16","0","SEPTEMBER","6","MAY","4","0","987",,,,,"0","2018-10-24 20:07:49","302060"
"AYGFIU5LDCXW4","cs_wg_mon_conf_time_pilot1","3X0H8UUIT1P06YUAOJVM0D5L7N5SWE","5","0","MARCH","10","MAY","11","1","3675",,,,,"0","2018-10-24 20:07:50","302061"
"A30YR5TPOKQYXJ","cs_wg_mon_conf_time_pilot1","3I7DHKZYGN1XPAA4MY8E3E9TY085FS","23","0","AUGUST","7","FEBRUARY","8","0","2978",,,,,"0","2018-10-24 20:07:51","302062"
"A2PTZ50APT1KT3","cs_wg_mon_conf_time_pilot1","3X65QVEQI0O4ONTFNJYKCXKNNDGCLC","3","0","JULY","4","MAY","1","0","5560",,,,,"1","2018-10-24 20:07:52","302063"
"A2PC8T3FGQHGK5","cs_wg_mon_conf_time_pilot1","3907X2AHF06HHQGBII2LH1KLGW42PR","17","0","AUGUST","2","MAY","4","1","2824",,,,,"0","2018-10-24 20:07:54","302064"
"AYGFIU5LDCXW4","cs_wg_mon_conf_time_pilot1","3X0H8UUIT1P06YUAOJVM0D5L7N5SWE","6","0","DECEMBER","8","JULY","6","1","4396",,,,,"0","2018-10-24 20:07:57","302065"
"A30YR5TPOKQYXJ","cs_wg_mon_conf_time_pilot1","3I7DHKZYGN1XPAA4MY8E3E9TY085FS","24","0","DECEMBER","1","MAY","4","1","4171",,,,,"1","2018-10-24 20:07:57","302066"
"A2PC8T3FGQHGK5","cs_wg_mon_conf_time_pilot1","3907X2AHF06HHQGBII2LH1KLGW42PR","18","0","NOVEMBER","7","MAY","4","1","1818",,,,,"0","2018-10-24 20:07:58","302067"
"A2PTZ50APT1KT3","cs_wg_mon_conf_time_pilot1","3X65QVEQI0O4ONTFNJYKCXKNNDGCLC","4","0","NOVEMBER","12","MAY","1","0","3486",,,,,"0","2018-10-24 20:07:58","302068"
"AYGFIU5LDCXW4","cs_wg_mon_conf_time_pilot1","3X0H8UUIT1P06YUAOJVM0D5L7N5SWE","7","0","MAY","11","FEBRUARY","2","0","3596",,,,,"0","2018-10-24 20:08:04","302069"
"A2PTZ50APT1KT3","cs_wg_mon_conf_time_pilot1","3X65QVEQI0O4ONTFNJYKCXKNNDGCLC","5","0","APRIL","10","AUGUST","5","1","3268",,,,,"0","2018-10-24 20:08:05","302070"
"A2PC8T3FGQHGK5","cs_wg_mon_conf_time_pilot1","3907X2AHF06HHQGBII2LH1KLGW42PR","19","0","MAY","4","MARCH","5","0","5331",,,,,"0","2018-10-24 20:08:05","302071"
"A30YR5TPOKQYXJ","cs_wg_mon_conf_time_pilot1","3I7DHKZYGN1XPAA4MY8E3E9TY085FS","25","0","JULY","12","FEBRUARY","8","0","8366",,,,,"1","2018-10-24 20:08:08","302072"
"AYGFIU5LDCXW4","cs_wg_mon_conf_time_pilot1","3X0H8UUIT1P06YUAOJVM0D5L7N5SWE","8","0","FEBRUARY","2","MAY","11","1","3284",,,,,"0","2018-10-24 20:08:10","302073"
"A2PC8T3FGQHGK5","cs_wg_mon_conf_time_pilot1","3907X2AHF06HHQGBII2LH1KLGW42PR","20","0","JUNE","1","JULY","3","1","2413",,,,,"0","2018-10-24 20:08:10","302074"
"A30YR5TPOKQYXJ","cs_wg_mon_conf_time_pilot1","3I7DHKZYGN1XPAA4MY8E3E9TY085FS","26","0","OCTOBER","6","SEPTEMBER","9","0","2060",,,,,"0","2018-10-24 20:08:12","302075"
"AYGFIU5LDCXW4","cs_wg_mon_conf_time_pilot1","3X0H8UUIT1P06YUAOJVM0D5L7N5SWE","9","0","OCTOBER","3","NOVEMBER","9","0","1675",,,,,"0","2018-10-24 20:08:14","302076"
"A2PC8T3FGQHGK5","cs_wg_mon_conf_time_pilot1","3907X2AHF06HHQGBII2LH1KLGW42PR","21","0","MAY","4","JULY","3","1","2595",,,,,"0","2018-10-24 20:08:15","302077"
"A2PTZ50APT1KT3","cs_wg_mon_conf_time_pilot1","3X65QVEQI0O4ONTFNJYKCXKNNDGCLC","6","0","AUGUST","5","SEPTEMBER","11","0","4328",,,,,"0","2018-10-24 20:08:15","302078"
"A30YR5TPOKQYXJ","cs_wg_mon_conf_time_pilot1","3I7DHKZYGN1XPAA4MY8E3E9TY085FS","27","0","JULY","12","JUNE","3","0","2421",,,,,"1","2018-10-24 20:08:16","302079"
"A2PC8T3FGQHGK5","cs_wg_mon_conf_time_pilot1","3907X2AHF06HHQGBII2LH1KLGW42PR","22","0","FEBRUARY","11","NOVEMBER","7","0","1015",,,,,"0","2018-10-24 20:08:18","302080"
"AYGFIU5LDCXW4","cs_wg_mon_conf_time_pilot1","3X0H8UUIT1P06YUAOJVM0D5L7N5SWE","10","0","OCTOBER","3","APRIL","4","0","3468",,,,,"0","2018-10-24 20:08:20","302081"
"A2PC8T3FGQHGK5","cs_wg_mon_conf_time_pilot1","3907X2AHF06HHQGBII2LH1KLGW42PR","23","0","NOVEMBER","7","JULY","3","0","2614",,,,,"0","2018-10-24 20:08:23","302082"
"A30YR5TPOKQYXJ","cs_wg_mon_conf_time_pilot1","3I7DHKZYGN1XPAA4MY8E3E9TY085FS","28","0","JANUARY","11","JULY","12","1","4083",,,,,"1","2018-10-24 20:08:23","302083"
"A2PTZ50APT1KT3","cs_wg_mon_conf_time_pilot1","3X65QVEQI0O4ONTFNJYKCXKNNDGCLC","7","0","JUNE","2","SEPTEMBER","11","1","4905",,,,,"1","2018-10-24 20:08:23","302084"
"AYGFIU5LDCXW4","cs_wg_mon_conf_time_pilot1","3X0H8UUIT1P06YUAOJVM0D5L7N5SWE","11","0","AUGUST","5","NOVEMBER","9","0","2621",,,,,"0","2018-10-24 20:08:26","302085"
"A30YR5TPOKQYXJ","cs_wg_mon_conf_time_pilot1","3I7DHKZYGN1XPAA4MY8E3E9TY085FS","29","0","JANUARY","11","MAY","4","0","2984",,,,,"1","2018-10-24 20:08:28","302086"
"A2PTZ50APT1KT3","cs_wg_mon_conf_time_pilot1","3X65QVEQI0O4ONTFNJYKCXKNNDGCLC","8","0","MARCH","3","SEPTEMBER","11","1","3104",,,,,"0","2018-10-24 20:08:28","302087"
"A2PC8T3FGQHGK5","cs_wg_mon_conf_time_pilot1","3907X2AHF06HHQGBII2LH1KLGW42PR","24","0","JULY","3","MARCH","5","0","4084",,,,,"0","2018-10-24 20:08:29","302088"
"A30YR5TPOKQYXJ","cs_wg_mon_conf_time_pilot1","3I7DHKZYGN1XPAA4MY8E3E9TY085FS","30","0","NOVEMBER","2","FEBRUARY","8","0","2016",,,,,"0","2018-10-24 20:08:32","302089"
"AYGFIU5LDCXW4","cs_wg_mon_conf_time_pilot1","3X0H8UUIT1P06YUAOJVM0D5L7N5SWE","12","0","NOVEMBER","9","AUGUST","5","0","3300",,,,,"0","2018-10-24 20:08:32","302090"
"A2PC8T3FGQHGK5","cs_wg_mon_conf_time_pilot1","3907X2AHF06HHQGBII2LH1KLGW42PR","25","0","FEBRUARY","11","APRIL","8","0","1293",,,,,"0","2018-10-24 20:08:32","302091"
"A2PTZ50APT1KT3","cs_wg_mon_conf_time_pilot1","3X65QVEQI0O4ONTFNJYKCXKNNDGCLC","9","0","DECEMBER","7","FEBRUARY","8","0","2866",,,,,"0","2018-10-24 20:08:35","302092"
"A2PC8T3FGQHGK5","cs_wg_mon_conf_time_pilot1","3907X2AHF06HHQGBII2LH1KLGW42PR","26","0","MARCH","5","SEPTEMBER","6","1","2534",,,,,"0","2018-10-24 20:08:36","302093"
"AYGFIU5LDCXW4","cs_wg_mon_conf_time_pilot1","3X0H8UUIT1P06YUAOJVM0D5L7N5SWE","13","0","SEPTEMBER","12","APRIL","4","0","2134",,,,,"0","2018-10-24 20:08:36","302094"
"A30YR5TPOKQYXJ","cs_wg_mon_conf_time_pilot1","3I7DHKZYGN1XPAA4MY8E3E9TY085FS","31","0","MARCH","5","DECEMBER","1","1","3154",,,,,"0","2018-10-24 20:08:37","302095"
"A2PTZ50APT1KT3","cs_wg_mon_conf_time_pilot1","3X65QVEQI0O4ONTFNJYKCXKNNDGCLC","10","0","NOVEMBER","12","SEPTEMBER","11","0","3556",,,,,"0","2018-10-24 20:08:41","302096"
"A2PC8T3FGQHGK5","cs_wg_mon_conf_time_pilot1","3907X2AHF06HHQGBII2LH1KLGW42PR","27","0","APRIL","8","FEBRUARY","11","0","1130",,,,,"0","2018-10-24 20:08:41","302097"
"AYGFIU5LDCXW4","cs_wg_mon_conf_time_pilot1","3X0H8UUIT1P06YUAOJVM0D5L7N5SWE","14","0","FEBRUARY","2","JUNE","1","0","2558",,,,,"0","2018-10-24 20:08:42","302098"
"A30YR5TPOKQYXJ","cs_wg_mon_conf_time_pilot1","3I7DHKZYGN1XPAA4MY8E3E9TY085FS","32","0","APRIL","10","OCTOBER","6","0","2599",,,,,"0","2018-10-24 20:08:42","302099"
"A30YR5TPOKQYXJ","cs_wg_mon_conf_time_pilot1","3I7DHKZYGN1XPAA4MY8E3E9TY085FS","33","0","MAY","4","JANUARY","11","0","1416",,,,,"0","2018-10-24 20:08:45","302100"
"A2PTZ50APT1KT3","cs_wg_mon_conf_time_pilot1","3X65QVEQI0O4ONTFNJYKCXKNNDGCLC","11","0","MAY","1","NOVEMBER","12","1","1819",,,,,"0","2018-10-24 20:08:45","302101"
"AYGFIU5LDCXW4","cs_wg_mon_conf_time_pilot1","3X0H8UUIT1P06YUAOJVM0D5L7N5SWE","15","0","JULY","6","SEPTEMBER","12","1","1893",,,,,"0","2018-10-24 20:08:46","302102"
"A2PC8T3FGQHGK5","cs_wg_mon_conf_time_pilot1","3907X2AHF06HHQGBII2LH1KLGW42PR","28","0","FEBRUARY","11","DECEMBER","10","0","1315",,,,,"0","2018-10-24 20:08:48","302103"
"AYGFIU5LDCXW4","cs_wg_mon_conf_time_pilot1","3X0H8UUIT1P06YUAOJVM0D5L7N5SWE","16","0","DECEMBER","8","AUGUST","5","0","1701",,,,,"0","2018-10-24 20:08:50","302104"
"A30YR5TPOKQYXJ","cs_wg_mon_conf_time_pilot1","3I7DHKZYGN1XPAA4MY8E3E9TY085FS","34","0","SEPTEMBER","9","JANUARY","11","1","3399",,,,,"0","2018-10-24 20:08:51","302105"
"A2PTZ50APT1KT3","cs_wg_mon_conf_time_pilot1","3X65QVEQI0O4ONTFNJYKCXKNNDGCLC","12","0","MARCH","3","JUNE","2","1","3242",,,,,"0","2018-10-24 20:08:51","302106"
"A2PC8T3FGQHGK5","cs_wg_mon_conf_time_pilot1","3907X2AHF06HHQGBII2LH1KLGW42PR","29","0","MAY","4","APRIL","8","0","1876",,,,,"0","2018-10-24 20:08:52","302107"
"A30YR5TPOKQYXJ","cs_wg_mon_conf_time_pilot1","3I7DHKZYGN1XPAA4MY8E3E9TY085FS","35","0","MARCH","5","SEPTEMBER","9","0","1703",,,,,"0","2018-10-24 20:08:55","302108"
"AYGFIU5LDCXW4","cs_wg_mon_conf_time_pilot1","3X0H8UUIT1P06YUAOJVM0D5L7N5SWE","17","0","NOVEMBER","9","APRIL","4","0","3020",,,,,"0","2018-10-24 20:08:55","302109"
"A2PTZ50APT1KT3","cs_wg_mon_conf_time_pilot1","3X65QVEQI0O4ONTFNJYKCXKNNDGCLC","13","0","AUGUST","5","MARCH","3","0","2585",,,,,"0","2018-10-24 20:08:55","302110"
"A2PC8T3FGQHGK5","cs_wg_mon_conf_time_pilot1","3907X2AHF06HHQGBII2LH1KLGW42PR","30","0","MARCH","5","JANUARY","12","1","2766",,,,,"0","2018-10-24 20:08:57","302111"
"AYGFIU5LDCXW4","cs_wg_mon_conf_time_pilot1","3X0H8UUIT1P06YUAOJVM0D5L7N5SWE","18","0","OCTOBER","3","DECEMBER","8","1","2541",,,,,"0","2018-10-24 20:09:00","302112"
"A2PTZ50APT1KT3","cs_wg_mon_conf_time_pilot1","3X65QVEQI0O4ONTFNJYKCXKNNDGCLC","14","0","MARCH","3","FEBRUARY","8","1","2863",,,,,"0","2018-10-24 20:09:00","302113"
"A21XVZ0Q2DJKEN","cs_wg_mon_conf_time_pilot1","38SKSKU7R1YV1QFFFTU6N0II0I0LIN","0","0","JANUARY","4","MAY","8","0","20428",,,,,"1","2018-10-24 20:09:01","302114"
"A30YR5TPOKQYXJ","cs_wg_mon_conf_time_pilot1","3I7DHKZYGN1XPAA4MY8E3E9TY085FS","36","0","SEPTEMBER","9","OCTOBER","6","0","3623",,,,,"1","2018-10-24 20:09:01","302115"
"A2PC8T3FGQHGK5","cs_wg_mon_conf_time_pilot1","3907X2AHF06HHQGBII2LH1KLGW42PR","31","0","MARCH","5","OCTOBER","9","0","2659",,,,,"0","2018-10-24 20:09:02","302116"
"AYGFIU5LDCXW4","cs_wg_mon_conf_time_pilot1","3X0H8UUIT1P06YUAOJVM0D5L7N5SWE","19","0","AUGUST","5","JUNE","1","0","1723",,,,,"0","2018-10-24 20:09:05","302117"
"A2PTZ50APT1KT3","cs_wg_mon_conf_time_pilot1","3X65QVEQI0O4ONTFNJYKCXKNNDGCLC","15","0","AUGUST","5","JULY","4","1","2192",,,,,"0","2018-10-24 20:09:05","302118"
"A2PC8T3FGQHGK5","cs_wg_mon_conf_time_pilot1","3907X2AHF06HHQGBII2LH1KLGW42PR","32","0","JULY","3","AUGUST","2","0","1755",,,,,"0","2018-10-24 20:09:06","302119"
"A30YR5TPOKQYXJ","cs_wg_mon_conf_time_pilot1","3I7DHKZYGN1XPAA4MY8E3E9TY085FS","37","0","NOVEMBER","2","APRIL","10","1","4212",,,,,"1","2018-10-24 20:09:07","302120"
"AYGFIU5LDCXW4","cs_wg_mon_conf_time_pilot1","3X0H8UUIT1P06YUAOJVM0D5L7N5SWE","20","0","JULY","6","MAY","11","0","2511",,,,,"0","2018-10-24 20:09:10","302121"
"A2PTZ50APT1KT3","cs_wg_mon_conf_time_pilot1","3X65QVEQI0O4ONTFNJYKCXKNNDGCLC","16","0","NOVEMBER","12","APRIL","10","0","2325",,,,,"0","2018-10-24 20:09:10","302122"
"A21XVZ0Q2DJKEN","cs_wg_mon_conf_time_pilot1","38SKSKU7R1YV1QFFFTU6N0II0I0LIN","1","0","AUGUST","11","APRIL","6","0","7393",,,,,"1","2018-10-24 20:09:11","302123"
"A2PC8T3FGQHGK5","cs_wg_mon_conf_time_pilot1","3907X2AHF06HHQGBII2LH1KLGW42PR","33","0","JUNE","1","AUGUST","2","0","3791",,,,,"0","2018-10-24 20:09:12","302124"
"A30YR5TPOKQYXJ","cs_wg_mon_conf_time_pilot1","3I7DHKZYGN1XPAA4MY8E3E9TY085FS","38","0","JULY","12","APRIL","10","0","4261",,,,,"1","2018-10-24 20:09:13","302125"
"AYGFIU5LDCXW4","cs_wg_mon_conf_time_pilot1","3X0H8UUIT1P06YUAOJVM0D5L7N5SWE","21","0","MAY","11","JANUARY","7","0","1965",,,,,"0","2018-10-24 20:09:14","302126"
"A2PTZ50APT1KT3","cs_wg_mon_conf_time_pilot1","3X65QVEQI0O4ONTFNJYKCXKNNDGCLC","17","0","JUNE","2","APRIL","10","1","2904",,,,,"0","2018-10-24 20:09:15","302127"
"A2PC8T3FGQHGK5","cs_wg_mon_conf_time_pilot1","3907X2AHF06HHQGBII2LH1KLGW42PR","34","0","MAY","4","JUNE","1","0","2565",,,,,"0","2018-10-24 20:09:16","302128"
"A21XVZ0Q2DJKEN","cs_wg_mon_conf_time_pilot1","38SKSKU7R1YV1QFFFTU6N0II0I0LIN","2","0","FEBRUARY","7","APRIL","6","1","2917",,,,,"0","2018-10-24 20:09:18","302129"
"AYGFIU5LDCXW4","cs_wg_mon_conf_time_pilot1","3X0H8UUIT1P06YUAOJVM0D5L7N5SWE","22","0","DECEMBER","8","OCTOBER","3","1","1933",,,,,"0","2018-10-24 20:09:18","302130"
"A30YR5TPOKQYXJ","cs_wg_mon_conf_time_pilot1","3I7DHKZYGN1XPAA4MY8E3E9TY085FS","39","0","JANUARY","11","DECEMBER","1","0","2709",,,,,"1","2018-10-24 20:09:19","302131"
"A2PC8T3FGQHGK5","cs_wg_mon_conf_time_pilot1","3907X2AHF06HHQGBII2LH1KLGW42PR","35","0","JANUARY","12","NOVEMBER","7","0","1868",,,,,"0","2018-10-24 20:09:20","302132"
"A2PTZ50APT1KT3","cs_wg_mon_conf_time_pilot1","3X65QVEQI0O4ONTFNJYKCXKNNDGCLC","18","0","AUGUST","5","APRIL","10","1","4020",,,,,"0","2018-10-24 20:09:21","302133"
"A21XVZ0Q2DJKEN","cs_wg_mon_conf_time_pilot1","38SKSKU7R1YV1QFFFTU6N0II0I0LIN","3","0","JULY","10","SEPTEMBER","1","1","853",,,,,"0","2018-10-24 20:09:21","302134"
"A30YR5TPOKQYXJ","cs_wg_mon_conf_time_pilot1","3I7DHKZYGN1XPAA4MY8E3E9TY085FS","40","0","OCTOBER","6","JULY","12","1","3840",,,,,"1","2018-10-24 20:09:24","302135"
"A2PC8T3FGQHGK5","cs_wg_mon_conf_time_pilot1","3907X2AHF06HHQGBII2LH1KLGW42PR","36","0","AUGUST","2","JUNE","1","1","2478",,,,,"0","2018-10-24 20:09:24","302136"
"AYGFIU5LDCXW4","cs_wg_mon_conf_time_pilot1","3X0H8UUIT1P06YUAOJVM0D5L7N5SWE","23","0","JANUARY","7","NOVEMBER","9","0","5821",,,,,"0","2018-10-24 20:09:26","302137"
"A2PTZ50APT1KT3","cs_wg_mon_conf_time_pilot1","3X65QVEQI0O4ONTFNJYKCXKNNDGCLC","19","0","APRIL","10","SEPTEMBER","11","1","2721",,,,,"0","2018-10-24 20:09:26","302138"
"A2PC8T3FGQHGK5","cs_wg_mon_conf_time_pilot1","3907X2AHF06HHQGBII2LH1KLGW42PR","37","0","JANUARY","12","JUNE","1","0","1464",,,,,"0","2018-10-24 20:09:28","302139"
"A21XVZ0Q2DJKEN","cs_wg_mon_conf_time_pilot1","38SKSKU7R1YV1QFFFTU6N0II0I0LIN","4","0","NOVEMBER","5","JUNE","3","0","3038",,,,,"0","2018-10-24 20:09:28","302140"
"A30YR5TPOKQYXJ","cs_wg_mon_conf_time_pilot1","3I7DHKZYGN1XPAA4MY8E3E9TY085FS","41","0","JANUARY","11","APRIL","10","0","3800",,,,,"1","2018-10-24 20:09:30","302141"
"AYGFIU5LDCXW4","cs_wg_mon_conf_time_pilot1","3X0H8UUIT1P06YUAOJVM0D5L7N5SWE","24","0","JANUARY","7","OCTOBER","3","0","2460",,,,,"0","2018-10-24 20:09:31","302142"
"A2PC8T3FGQHGK5","cs_wg_mon_conf_time_pilot1","3907X2AHF06HHQGBII2LH1KLGW42PR","38","0","JULY","3","SEPTEMBER","6","1","2067",,,,,"0","2018-10-24 20:09:31","302143"
"A21XVZ0Q2DJKEN","cs_wg_mon_conf_time_pilot1","38SKSKU7R1YV1QFFFTU6N0II0I0LIN","5","0","AUGUST","11","JULY","10","0","1783",,,,,"0","2018-10-24 20:09:32","302144"
"A30YR5TPOKQYXJ","cs_wg_mon_conf_time_pilot1","3I7DHKZYGN1XPAA4MY8E3E9TY085FS","42","0","FEBRUARY","8","AUGUST","7","0","2900",,,,,"1","2018-10-24 20:09:35","302145"
"A2PC8T3FGQHGK5","cs_wg_mon_conf_time_pilot1","3907X2AHF06HHQGBII2LH1KLGW42PR","39","0","JANUARY","12","AUGUST","2","0","2332",,,,,"0","2018-10-24 20:09:35","302146"
"AYGFIU5LDCXW4","cs_wg_mon_conf_time_pilot1","3X0H8UUIT1P06YUAOJVM0D5L7N5SWE","25","0","AUGUST","5","JULY","6","1","2318",,,,,"0","2018-10-24 20:09:35","302147"
"A2PTZ50APT1KT3","cs_wg_mon_conf_time_pilot1","3X65QVEQI0O4ONTFNJYKCXKNNDGCLC","20","0","JUNE","2","OCTOBER","9","1","8816",,,,,"0","2018-10-24 20:09:37","302148"
"A21XVZ0Q2DJKEN","cs_wg_mon_conf_time_pilot1","38SKSKU7R1YV1QFFFTU6N0II0I0LIN","6","0","MARCH","2","MAY","8","0","1534",,,,,"0","2018-10-24 20:09:38","302149"
"A2PC8T3FGQHGK5","cs_wg_mon_conf_time_pilot1","3907X2AHF06HHQGBII2LH1KLGW42PR","40","0","MAY","4","OCTOBER","9","1","2732",,,,,"0","2018-10-24 20:09:40","302150"
"AYGFIU5LDCXW4","cs_wg_mon_conf_time_pilot1","3X0H8UUIT1P06YUAOJVM0D5L7N5SWE","26","0","OCTOBER","3","SEPTEMBER","12","1","2653",,,,,"0","2018-10-24 20:09:40","302151"
"A2PTZ50APT1KT3","cs_wg_mon_conf_time_pilot1","3X65QVEQI0O4ONTFNJYKCXKNNDGCLC","21","0","APRIL","10","JANUARY","6","0","3431",,,,,"0","2018-10-24 20:09:43","302152"
"A30YR5TPOKQYXJ","cs_wg_mon_conf_time_pilot1","3I7DHKZYGN1XPAA4MY8E3E9TY085FS","43","0","NOVEMBER","2","AUGUST","7","1","6116",,,,,"1","2018-10-24 20:09:43","302153"
"A2PC8T3FGQHGK5","cs_wg_mon_conf_time_pilot1","3907X2AHF06HHQGBII2LH1KLGW42PR","41","0","DECEMBER","10","APRIL","8","0","2017",,,,,"0","2018-10-24 20:09:45","302154"
"A21XVZ0Q2DJKEN","cs_wg_mon_conf_time_pilot1","38SKSKU7R1YV1QFFFTU6N0II0I0LIN","7","0","SEPTEMBER","1","JULY","10","1","4407",,,,,"0","2018-10-24 20:09:45","302155"
"AYGFIU5LDCXW4","cs_wg_mon_conf_time_pilot1","3X0H8UUIT1P06YUAOJVM0D5L7N5SWE","27","0","DECEMBER","8","MARCH","10","0","3203",,,,,"0","2018-10-24 20:09:46","302156"
"A2PTZ50APT1KT3","cs_wg_mon_conf_time_pilot1","3X65QVEQI0O4ONTFNJYKCXKNNDGCLC","22","0","JULY","4","AUGUST","5","1","1616",,,,,"0","2018-10-24 20:09:46","302157"
"A21XVZ0Q2DJKEN","cs_wg_mon_conf_time_pilot1","38SKSKU7R1YV1QFFFTU6N0II0I0LIN","8","0","OCTOBER","12","SEPTEMBER","1","1","734",,,,,"0","2018-10-24 20:09:48","302158"
"A30YR5TPOKQYXJ","cs_wg_mon_conf_time_pilot1","3I7DHKZYGN1XPAA4MY8E3E9TY085FS","44","0","APRIL","10","JANUARY","11","0","4219",,,,,"0","2018-10-24 20:09:50","302159"
"A2PTZ50APT1KT3","cs_wg_mon_conf_time_pilot1","3X65QVEQI0O4ONTFNJYKCXKNNDGCLC","23","0","JUNE","2","JULY","4","0","1574",,,,,"0","2018-10-24 20:09:50","302160"
"A21XVZ0Q2DJKEN","cs_wg_mon_conf_time_pilot1","38SKSKU7R1YV1QFFFTU6N0II0I0LIN","9","0","JANUARY","4","SEPTEMBER","1","0","1261",,,,,"0","2018-10-24 20:09:52","302161"
"AYGFIU5LDCXW4","cs_wg_mon_conf_time_pilot1","3X0H8UUIT1P06YUAOJVM0D5L7N5SWE","28","0","JUNE","1","OCTOBER","3","1","5973",,,,,"0","2018-10-24 20:09:54","302162"
"A21XVZ0Q2DJKEN","cs_wg_mon_conf_time_pilot1","38SKSKU7R1YV1QFFFTU6N0II0I0LIN","10","0","MARCH","2","SEPTEMBER","1","1","788",,,,,"0","2018-10-24 20:09:55","302163"
"A2PTZ50APT1KT3","cs_wg_mon_conf_time_pilot1","3X65QVEQI0O4ONTFNJYKCXKNNDGCLC","24","0","SEPTEMBER","11","DECEMBER","7","1","3007",,,,,"0","2018-10-24 20:09:55","302164"
"A2PC8T3FGQHGK5","cs_wg_mon_conf_time_pilot1","3907X2AHF06HHQGBII2LH1KLGW42PR","42","0","MARCH","5","NOVEMBER","7","0","8755",,,,,"0","2018-10-24 20:09:56","302165"
"A30YR5TPOKQYXJ","cs_wg_mon_conf_time_pilot1","3I7DHKZYGN1XPAA4MY8E3E9TY085FS","45","0","AUGUST","7","JULY","12","1","4008",,,,,"0","2018-10-24 20:09:56","302166"
"A21XVZ0Q2DJKEN","cs_wg_mon_conf_time_pilot1","38SKSKU7R1YV1QFFFTU6N0II0I0LIN","11","0","FEBRUARY","7","MARCH","2","0","1230",,,,,"0","2018-10-24 20:09:58","302167"
"AYGFIU5LDCXW4","cs_wg_mon_conf_time_pilot1","3X0H8UUIT1P06YUAOJVM0D5L7N5SWE","29","0","AUGUST","5","JANUARY","7","0","3709",,,,,"0","2018-10-24 20:10:00","302168"
"A30YR5TPOKQYXJ","cs_wg_mon_conf_time_pilot1","3I7DHKZYGN1XPAA4MY8E3E9TY085FS","46","0","MAY","4","SEPTEMBER","9","0","2306",,,,,"0","2018-10-24 20:10:00","302169"
"A2PTZ50APT1KT3","cs_wg_mon_conf_time_pilot1","3X65QVEQI0O4ONTFNJYKCXKNNDGCLC","25","0","OCTOBER","9","SEPTEMBER","11","1","3399",,,,,"0","2018-10-24 20:10:01","302170"
"A2PC8T3FGQHGK5","cs_wg_mon_conf_time_pilot1","3907X2AHF06HHQGBII2LH1KLGW42PR","43","0","SEPTEMBER","6","DECEMBER","10","0","3420",,,,,"0","2018-10-24 20:10:01","302171"
"A21XVZ0Q2DJKEN","cs_wg_mon_conf_time_pilot1","38SKSKU7R1YV1QFFFTU6N0II0I0LIN","12","0","OCTOBER","12","JULY","10","0","749",,,,,"0","2018-10-24 20:10:02","302172"
"A30YR5TPOKQYXJ","cs_wg_mon_conf_time_pilot1","3I7DHKZYGN1XPAA4MY8E3E9TY085FS","47","0","NOVEMBER","2","JANUARY","11","1","2333",,,,,"0","2018-10-24 20:10:05","302173"
"A2PC8T3FGQHGK5","cs_wg_mon_conf_time_pilot1","3907X2AHF06HHQGBII2LH1KLGW42PR","44","0","JUNE","1","APRIL","8","1","2214",,,,,"0","2018-10-24 20:10:05","302174"
"A21XVZ0Q2DJKEN","cs_wg_mon_conf_time_pilot1","38SKSKU7R1YV1QFFFTU6N0II0I0LIN","13","0","JUNE","3","NOVEMBER","5","0","1214",,,,,"0","2018-10-24 20:10:06","302175"
"A2PTZ50APT1KT3","cs_wg_mon_conf_time_pilot1","3X65QVEQI0O4ONTFNJYKCXKNNDGCLC","26","0","AUGUST","5","JANUARY","6","1","4268",,,,,"0","2018-10-24 20:10:07","302176"
"AYGFIU5LDCXW4","cs_wg_mon_conf_time_pilot1","3X0H8UUIT1P06YUAOJVM0D5L7N5SWE","30","0","MARCH","10","FEBRUARY","2","1","5533",,,,,"0","2018-10-24 20:10:08","302177"
"A30YR5TPOKQYXJ","cs_wg_mon_conf_time_pilot1","3I7DHKZYGN1XPAA4MY8E3E9TY085FS","48","0","DECEMBER","1","JANUARY","11","1","2039",,,,,"0","2018-10-24 20:10:09","302178"
"A21XVZ0Q2DJKEN","cs_wg_mon_conf_time_pilot1","38SKSKU7R1YV1QFFFTU6N0II0I0LIN","14","0","APRIL","6","NOVEMBER","5","0","1062",,,,,"0","2018-10-24 20:10:09","302179"
"A2PTZ50APT1KT3","cs_wg_mon_conf_time_pilot1","3X65QVEQI0O4ONTFNJYKCXKNNDGCLC","27","0","APRIL","10","MARCH","3","0","2167",,,,,"0","2018-10-24 20:10:11","302180"
"AYGFIU5LDCXW4","cs_wg_mon_conf_time_pilot1","3X0H8UUIT1P06YUAOJVM0D5L7N5SWE","31","0","NOVEMBER","9","JUNE","1","0","2500",,,,,"0","2018-10-24 20:10:12","302181"
"A30YR5TPOKQYXJ","cs_wg_mon_conf_time_pilot1","3I7DHKZYGN1XPAA4MY8E3E9TY085FS","49","0","AUGUST","7","NOVEMBER","2","0","1731",,,,,"0","2018-10-24 20:10:13","302182"
"A21XVZ0Q2DJKEN","cs_wg_mon_conf_time_pilot1","38SKSKU7R1YV1QFFFTU6N0II0I0LIN","15","0","FEBRUARY","7","JANUARY","4","0","1447",,,,,"0","2018-10-24 20:10:13","302183"
"A2PC8T3FGQHGK5","cs_wg_mon_conf_time_pilot1","3907X2AHF06HHQGBII2LH1KLGW42PR","45","0","JANUARY","12","DECEMBER","10","1","3945",,,,,"0","2018-10-24 20:10:14","302184"
"A2PTZ50APT1KT3","cs_wg_mon_conf_time_pilot1","3X65QVEQI0O4ONTFNJYKCXKNNDGCLC","28","0","JUNE","2","FEBRUARY","8","1","2858",,,,,"0","2018-10-24 20:10:15","302185"
"A21XVZ0Q2DJKEN","cs_wg_mon_conf_time_pilot1","38SKSKU7R1YV1QFFFTU6N0II0I0LIN","16","0","APRIL","6","AUGUST","11","1","1157",,,,,"0","2018-10-24 20:10:16","302186"
"A30YR5TPOKQYXJ","cs_wg_mon_conf_time_pilot1","3I7DHKZYGN1XPAA4MY8E3E9TY085FS","50","0","FEBRUARY","8","OCTOBER","6","0","1777",,,,,"0","2018-10-24 20:10:17","302187"
"AYGFIU5LDCXW4","cs_wg_mon_conf_time_pilot1","3X0H8UUIT1P06YUAOJVM0D5L7N5SWE","32","0","MARCH","10","JANUARY","7","0","2458",,,,,"0","2018-10-24 20:10:17","302188"
"A2PC8T3FGQHGK5","cs_wg_mon_conf_time_pilot1","3907X2AHF06HHQGBII2LH1KLGW42PR","46","0","MARCH","5","DECEMBER","10","1","1810",,,,,"0","2018-10-24 20:10:18","302189"
"A2PTZ50APT1KT3","cs_wg_mon_conf_time_pilot1","3X65QVEQI0O4ONTFNJYKCXKNNDGCLC","29","0","NOVEMBER","12","AUGUST","5","0","2215",,,,,"0","2018-10-24 20:10:19","302190"
"A21XVZ0Q2DJKEN","cs_wg_mon_conf_time_pilot1","38SKSKU7R1YV1QFFFTU6N0II0I0LIN","17","0","NOVEMBER","5","APRIL","6","0","1158",,,,,"0","2018-10-24 20:10:20","302191"
"A30YR5TPOKQYXJ","cs_wg_mon_conf_time_pilot1","3I7DHKZYGN1XPAA4MY8E3E9TY085FS","51","0","FEBRUARY","8","JANUARY","11","1","1993",,,,,"0","2018-10-24 20:10:20","302192"
"A2PC8T3FGQHGK5","cs_wg_mon_conf_time_pilot1","3907X2AHF06HHQGBII2LH1KLGW42PR","47","0","AUGUST","2","JANUARY","12","1","1639",,,,,"0","2018-10-24 20:10:21","302193"
"AYGFIU5LDCXW4","cs_wg_mon_conf_time_pilot1","3X0H8UUIT1P06YUAOJVM0D5L7N5SWE","33","0","APRIL","4","OCTOBER","3","0","2917",,,,,"0","2018-10-24 20:10:22","302194"
"A2PTZ50APT1KT3","cs_wg_mon_conf_time_pilot1","3X65QVEQI0O4ONTFNJYKCXKNNDGCLC","30","0","JULY","4","JANUARY","6","1","2112",,,,,"0","2018-10-24 20:10:23","302195"
"A21XVZ0Q2DJKEN","cs_wg_mon_conf_time_pilot1","38SKSKU7R1YV1QFFFTU6N0II0I0LIN","18","0","SEPTEMBER","1","MARCH","2","1","878",,,,,"0","2018-10-24 20:10:23","302196"
"A30YR5TPOKQYXJ","cs_wg_mon_conf_time_pilot1","3I7DHKZYGN1XPAA4MY8E3E9TY085FS","52","0","JUNE","3","APRIL","10","1","1532",,,,,"0","2018-10-24 20:10:24","302197"
"A2PC8T3FGQHGK5","cs_wg_mon_conf_time_pilot1","3907X2AHF06HHQGBII2LH1KLGW42PR","48","0","MARCH","5","MAY","4","1","3164",,,,,"0","2018-10-24 20:10:26","302198"
"A30YR5TPOKQYXJ","cs_wg_mon_conf_time_pilot1","3I7DHKZYGN1XPAA4MY8E3E9TY085FS","53","0","MAY","4","NOVEMBER","2","0","1226",,,,,"0","2018-10-24 20:10:27","302199"
"A2PTZ50APT1KT3","cs_wg_mon_conf_time_pilot1","3X65QVEQI0O4ONTFNJYKCXKNNDGCLC","31","0","SEPTEMBER","11","AUGUST","5","0","2564",,,,,"0","2018-10-24 20:10:27","302200"
"A2PTZ50APT1KT3","cs_wg_mon_conf_time_pilot1","3X65QVEQI0O4ONTFNJYKCXKNNDGCLC","32","0","OCTOBER","9","MAY","1","0","1408",,,,,"0","2018-10-24 20:10:30","302201"
"A21XVZ0Q2DJKEN","cs_wg_mon_conf_time_pilot1","38SKSKU7R1YV1QFFFTU6N0II0I0LIN","19","0","FEBRUARY","7","MAY","8","0","5086",,,,,"0","2018-10-24 20:10:30","302202"
"AYGFIU5LDCXW4","cs_wg_mon_conf_time_pilot1","3X0H8UUIT1P06YUAOJVM0D5L7N5SWE","34","0","FEBRUARY","2","JULY","6","0","6405",,,,,"0","2018-10-24 20:10:30","302203"
"A30YR5TPOKQYXJ","cs_wg_mon_conf_time_pilot1","3I7DHKZYGN1XPAA4MY8E3E9TY085FS","54","0","AUGUST","7","APRIL","10","1","1445",,,,,"0","2018-10-24 20:10:30","302204"
"A21XVZ0Q2DJKEN","cs_wg_mon_conf_time_pilot1","38SKSKU7R1YV1QFFFTU6N0II0I0LIN","20","0","MAY","8","OCTOBER","12","1","1159",,,,,"0","2018-10-24 20:10:33","302205"
"A30YR5TPOKQYXJ","cs_wg_mon_conf_time_pilot1","3I7DHKZYGN1XPAA4MY8E3E9TY085FS","55","0","MARCH","5","JANUARY","11","1","1287",,,,,"0","2018-10-24 20:10:34","302206"
"A2PTZ50APT1KT3","cs_wg_mon_conf_time_pilot1","3X65QVEQI0O4ONTFNJYKCXKNNDGCLC","33","0","MARCH","3","JULY","4","1","2802",,,,,"0","2018-10-24 20:10:34","302207"
"AYGFIU5LDCXW4","cs_wg_mon_conf_time_pilot1","3X0H8UUIT1P06YUAOJVM0D5L7N5SWE","35","0","JULY","6","JANUARY","7","1","2414",,,,,"0","2018-10-24 20:10:35","302208"
"A30YR5TPOKQYXJ","cs_wg_mon_conf_time_pilot1","3I7DHKZYGN1XPAA4MY8E3E9TY085FS","56","0","FEBRUARY","8","APRIL","10","0","1770",,,,,"0","2018-10-24 20:10:38","302209"
"A2PTZ50APT1KT3","cs_wg_mon_conf_time_pilot1","3X65QVEQI0O4ONTFNJYKCXKNNDGCLC","34","0","JANUARY","6","SEPTEMBER","11","1","2058",,,,,"0","2018-10-24 20:10:38","302210"
"A2PC8T3FGQHGK5","cs_wg_mon_conf_time_pilot1","3907X2AHF06HHQGBII2LH1KLGW42PR","49","0","SEPTEMBER","6","NOVEMBER","7","1","6799",,,,,"0","2018-10-24 20:10:39","302211"
"AYGFIU5LDCXW4","cs_wg_mon_conf_time_pilot1","3X0H8UUIT1P06YUAOJVM0D5L7N5SWE","36","0","JULY","6","OCTOBER","3","0","2468",,,,,"0","2018-10-24 20:10:39","302212"
"A21XVZ0Q2DJKEN","cs_wg_mon_conf_time_pilot1","38SKSKU7R1YV1QFFFTU6N0II0I0LIN","21","0","NOVEMBER","5","DECEMBER","9","1","5037",,,,,"0","2018-10-24 20:10:40","302213"
"A2PTZ50APT1KT3","cs_wg_mon_conf_time_pilot1","3X65QVEQI0O4ONTFNJYKCXKNNDGCLC","35","0","JANUARY","6","MAY","1","0","1037",,,,,"0","2018-10-24 20:10:40","302214"
"A30YR5TPOKQYXJ","cs_wg_mon_conf_time_pilot1","3I7DHKZYGN1XPAA4MY8E3E9TY085FS","57","0","APRIL","10","AUGUST","7","0","1770",,,,,"0","2018-10-24 20:10:42","302215"
"A21XVZ0Q2DJKEN","cs_wg_mon_conf_time_pilot1","38SKSKU7R1YV1QFFFTU6N0II0I0LIN","22","0","JUNE","3","JANUARY","4","1","511",,,,,"0","2018-10-24 20:10:42","302216"
"A2PC8T3FGQHGK5","cs_wg_mon_conf_time_pilot1","3907X2AHF06HHQGBII2LH1KLGW42PR","50","0","JANUARY","12","JULY","3","0","3649",,,,,"0","2018-10-24 20:10:45","302217"
"A2PTZ50APT1KT3","cs_wg_mon_conf_time_pilot1","3X65QVEQI0O4ONTFNJYKCXKNNDGCLC","36","0","JUNE","2","JANUARY","6","1","3151",,,,,"0","2018-10-24 20:10:45","302218"
"A21XVZ0Q2DJKEN","cs_wg_mon_conf_time_pilot1","38SKSKU7R1YV1QFFFTU6N0II0I0LIN","23","0","DECEMBER","9","OCTOBER","12","1","782",,,,,"0","2018-10-24 20:10:45","302219"
"A30YR5TPOKQYXJ","cs_wg_mon_conf_time_pilot1","3I7DHKZYGN1XPAA4MY8E3E9TY085FS","58","0","JUNE","3","SEPTEMBER","9","0","1777",,,,,"0","2018-10-24 20:10:46","302220"
"AYGFIU5LDCXW4","cs_wg_mon_conf_time_pilot1","3X0H8UUIT1P06YUAOJVM0D5L7N5SWE","37","0","JUNE","1","JULY","6","1","4796",,,,,"0","2018-10-24 20:10:47","302221"
"A21XVZ0Q2DJKEN","cs_wg_mon_conf_time_pilot1","38SKSKU7R1YV1QFFFTU6N0II0I0LIN","24","0","JULY","10","NOVEMBER","5","1","447",,,,,"0","2018-10-24 20:10:47","302222"
"A2PTZ50APT1KT3","cs_wg_mon_conf_time_pilot1","3X65QVEQI0O4ONTFNJYKCXKNNDGCLC","37","0","FEBRUARY","8","AUGUST","5","1","2022",,,,,"0","2018-10-24 20:10:49","302223"
"A2PC8T3FGQHGK5","cs_wg_mon_conf_time_pilot1","3907X2AHF06HHQGBII2LH1KLGW42PR","51","0","JULY","3","NOVEMBER","7","1","2727",,,,,"0","2018-10-24 20:10:49","302224"
"A30YR5TPOKQYXJ","cs_wg_mon_conf_time_pilot1","3I7DHKZYGN1XPAA4MY8E3E9TY085FS","59","0","JANUARY","11","MARCH","5","0","1458",,,,,"0","2018-10-24 20:10:49","302225"
"A21XVZ0Q2DJKEN","cs_wg_mon_conf_time_pilot1","38SKSKU7R1YV1QFFFTU6N0II0I0LIN","25","0","DECEMBER","9","JUNE","3","1","806",,,,,"0","2018-10-24 20:10:50","302226"
"AYGFIU5LDCXW4","cs_wg_mon_conf_time_pilot1","3X0H8UUIT1P06YUAOJVM0D5L7N5SWE","38","0","JUNE","1","DECEMBER","8","1","2331",,,,,"0","2018-10-24 20:10:51","302227"
"A30YR5TPOKQYXJ","cs_wg_mon_conf_time_pilot1","3I7DHKZYGN1XPAA4MY8E3E9TY085FS","60","0","JUNE","3","NOVEMBER","2","0","1091",,,,,"0","2018-10-24 20:10:52","302228"
"A2PC8T3FGQHGK5","cs_wg_mon_conf_time_pilot1","3907X2AHF06HHQGBII2LH1KLGW42PR","52","0","JULY","3","APRIL","8","1","2343",,,,,"0","2018-10-24 20:10:53","302229"
"A21XVZ0Q2DJKEN","cs_wg_mon_conf_time_pilot1","38SKSKU7R1YV1QFFFTU6N0II0I0LIN","26","0","SEPTEMBER","1","MAY","8","1","630",,,,,"0","2018-10-24 20:10:53","302230"
"A2PTZ50APT1KT3","cs_wg_mon_conf_time_pilot1","3X65QVEQI0O4ONTFNJYKCXKNNDGCLC","38","0","FEBRUARY","8","APRIL","10","0","2855",,,,,"0","2018-10-24 20:10:53","302231"
"A30YR5TPOKQYXJ","cs_wg_mon_conf_time_pilot1","3I7DHKZYGN1XPAA4MY8E3E9TY085FS","61","0","MAY","4","JULY","12","1","1652",,,,,"0","2018-10-24 20:10:56","302232"
"A21XVZ0Q2DJKEN","cs_wg_mon_conf_time_pilot1","38SKSKU7R1YV1QFFFTU6N0II0I0LIN","27","0","JUNE","3","DECEMBER","9","1","934",,,,,"0","2018-10-24 20:10:56","302233"
"A2PTZ50APT1KT3","cs_wg_mon_conf_time_pilot1","3X65QVEQI0O4ONTFNJYKCXKNNDGCLC","39","0","OCTOBER","9","NOVEMBER","12","1","1758",,,,,"0","2018-10-24 20:10:57","302234"
"AYGFIU5LDCXW4","cs_wg_mon_conf_time_pilot1","3X0H8UUIT1P06YUAOJVM0D5L7N5SWE","39","0","NOVEMBER","9","DECEMBER","8","1","3372",,,,,"0","2018-10-24 20:10:57","302235"
"A2PC8T3FGQHGK5","cs_wg_mon_conf_time_pilot1","3907X2AHF06HHQGBII2LH1KLGW42PR","53","0","JULY","3","JUNE","1","0","2657",,,,,"0","2018-10-24 20:10:57","302236"
"A21XVZ0Q2DJKEN","cs_wg_mon_conf_time_pilot1","38SKSKU7R1YV1QFFFTU6N0II0I0LIN","28","0","NOVEMBER","5","JULY","10","1","852",,,,,"0","2018-10-24 20:10:59","302237"
"A30YR5TPOKQYXJ","cs_wg_mon_conf_time_pilot1","3I7DHKZYGN1XPAA4MY8E3E9TY085FS","62","0","JUNE","3","OCTOBER","6","0","1373",,,,,"0","2018-10-24 20:10:59","302238"
"A21XVZ0Q2DJKEN","cs_wg_mon_conf_time_pilot1","38SKSKU7R1YV1QFFFTU6N0II0I0LIN","29","0","NOVEMBER","5","FEBRUARY","7","1","284",,,,,"0","2018-10-24 20:11:01","302239"
"A2PTZ50APT1KT3","cs_wg_mon_conf_time_pilot1","3X65QVEQI0O4ONTFNJYKCXKNNDGCLC","40","0","JULY","4","SEPTEMBER","11","1","2798",,,,,"0","2018-10-24 20:11:01","302240"
"A2PC8T3FGQHGK5","cs_wg_mon_conf_time_pilot1","3907X2AHF06HHQGBII2LH1KLGW42PR","54","0","JULY","3","JANUARY","12","1","1380",,,,,"0","2018-10-24 20:11:02","302241"
"A21XVZ0Q2DJKEN","cs_wg_mon_conf_time_pilot1","38SKSKU7R1YV1QFFFTU6N0II0I0LIN","30","0","OCTOBER","12","AUGUST","11","1","342",,,,,"0","2018-10-24 20:11:03","302242"
"AYGFIU5LDCXW4","cs_wg_mon_conf_time_pilot1","3X0H8UUIT1P06YUAOJVM0D5L7N5SWE","40","0","AUGUST","5","MARCH","10","1","3467",,,,,"0","2018-10-24 20:11:03","302243"
"A30YR5TPOKQYXJ","cs_wg_mon_conf_time_pilot1","3I7DHKZYGN1XPAA4MY8E3E9TY085FS","63","0","MAY","4","MARCH","5","0","1936",,,,,"0","2018-10-24 20:11:03","302244"
"A2PTZ50APT1KT3","cs_wg_mon_conf_time_pilot1","3X65QVEQI0O4ONTFNJYKCXKNNDGCLC","41","0","MAY","1","AUGUST","5","1","1127",,,,,"0","2018-10-24 20:11:04","302245"
"A21XVZ0Q2DJKEN","cs_wg_mon_conf_time_pilot1","38SKSKU7R1YV1QFFFTU6N0II0I0LIN","31","0","FEBRUARY","7","OCTOBER","12","0","531",,,,,"0","2018-10-24 20:11:06","302246"
"A2PC8T3FGQHGK5","cs_wg_mon_conf_time_pilot1","3907X2AHF06HHQGBII2LH1KLGW42PR","55","0","MAY","4","JANUARY","12","1","1620",,,,,"0","2018-10-24 20:11:07","302247"
"A30YR5TPOKQYXJ","cs_wg_mon_conf_time_pilot1","3I7DHKZYGN1XPAA4MY8E3E9TY085FS","64","0","JUNE","3","MARCH","5","1","1822",,,,,"0","2018-10-24 20:11:07","302248"
"A2PTZ50APT1KT3","cs_wg_mon_conf_time_pilot1","3X65QVEQI0O4ONTFNJYKCXKNNDGCLC","42","0","MARCH","3","AUGUST","5","1","1566",,,,,"0","2018-10-24 20:11:07","302249"
"A21XVZ0Q2DJKEN","cs_wg_mon_conf_time_pilot1","38SKSKU7R1YV1QFFFTU6N0II0I0LIN","32","0","MARCH","2","OCTOBER","12","1","358",,,,,"0","2018-10-24 20:11:07","302250"
"A2PC8T3FGQHGK5","cs_wg_mon_conf_time_pilot1","3907X2AHF06HHQGBII2LH1KLGW42PR","56","0","OCTOBER","9","AUGUST","2","0","1617",,,,,"0","2018-10-24 20:11:09","302251"
"A21XVZ0Q2DJKEN","cs_wg_mon_conf_time_pilot1","38SKSKU7R1YV1QFFFTU6N0II0I0LIN","33","0","JULY","10","FEBRUARY","7","1","407",,,,,"0","2018-10-24 20:11:10","302252"
"AYGFIU5LDCXW4","cs_wg_mon_conf_time_pilot1","3X0H8UUIT1P06YUAOJVM0D5L7N5SWE","41","0","APRIL","4","NOVEMBER","9","0","4109",,,,,"0","2018-10-24 20:11:10","302253"
"A30YR5TPOKQYXJ","cs_wg_mon_conf_time_pilot1","3I7DHKZYGN1XPAA4MY8E3E9TY085FS","65","0","DECEMBER","1","OCTOBER","6","1","1917",,,,,"0","2018-10-24 20:11:11","302254"
"A2PTZ50APT1KT3","cs_wg_mon_conf_time_pilot1","3X65QVEQI0O4ONTFNJYKCXKNNDGCLC","43","0","OCTOBER","9","FEBRUARY","8","0","2506",,,,,"0","2018-10-24 20:11:11","302255"
"AO2DBBYXARSIQ","cs_wg_mon_conf_time_pilot1","3BWI6RSP7GAK60ORFG35JG2PD5P7ES","0","0","JULY","11","JANUARY","4","0","14688",,,,,"1","2018-10-24 20:11:11","302256"
"A2PC8T3FGQHGK5","cs_wg_mon_conf_time_pilot1","3907X2AHF06HHQGBII2LH1KLGW42PR","57","0","NOVEMBER","7","MARCH","5","0","859",,,,,"0","2018-10-24 20:11:11","302257"
"A21XVZ0Q2DJKEN","cs_wg_mon_conf_time_pilot1","38SKSKU7R1YV1QFFFTU6N0II0I0LIN","34","0","NOVEMBER","5","SEPTEMBER","1","0","701",,,,,"0","2018-10-24 20:11:12","302258"
"A2PC8T3FGQHGK5","cs_wg_mon_conf_time_pilot1","3907X2AHF06HHQGBII2LH1KLGW42PR","58","0","MARCH","5","JULY","3","0","880",,,,,"0","2018-10-24 20:11:14","302259"
"A30YR5TPOKQYXJ","cs_wg_mon_conf_time_pilot1","3I7DHKZYGN1XPAA4MY8E3E9TY085FS","66","0","AUGUST","7","JUNE","3","1","1399",,,,,"0","2018-10-24 20:11:14","302260"
"A2PTZ50APT1KT3","cs_wg_mon_conf_time_pilot1","3X65QVEQI0O4ONTFNJYKCXKNNDGCLC","44","0","OCTOBER","9","AUGUST","5","0","1871",,,,,"0","2018-10-24 20:11:14","302261"
"A21XVZ0Q2DJKEN","cs_wg_mon_conf_time_pilot1","38SKSKU7R1YV1QFFFTU6N0II0I0LIN","35","0","SEPTEMBER","1","FEBRUARY","7","1","614",,,,,"0","2018-10-24 20:11:15","302262"
"AYGFIU5LDCXW4","cs_wg_mon_conf_time_pilot1","3X0H8UUIT1P06YUAOJVM0D5L7N5SWE","42","0","DECEMBER","8","JANUARY","7","0","4140",,,,,"0","2018-10-24 20:11:17","302263"
"A21XVZ0Q2DJKEN","cs_wg_mon_conf_time_pilot1","38SKSKU7R1YV1QFFFTU6N0II0I0LIN","36","0","NOVEMBER","5","MARCH","2","1","493",,,,,"0","2018-10-24 20:11:17","302264"
"A2PC8T3FGQHGK5","cs_wg_mon_conf_time_pilot1","3907X2AHF06HHQGBII2LH1KLGW42PR","59","0","OCTOBER","9","DECEMBER","10","1","1576",,,,,"0","2018-10-24 20:11:18","302265"
"A30YR5TPOKQYXJ","cs_wg_mon_conf_time_pilot1","3I7DHKZYGN1XPAA4MY8E3E9TY085FS","67","0","JANUARY","11","NOVEMBER","2","0","1341",,,,,"0","2018-10-24 20:11:18","302266"
"A2PTZ50APT1KT3","cs_wg_mon_conf_time_pilot1","3X65QVEQI0O4ONTFNJYKCXKNNDGCLC","45","0","DECEMBER","7","MARCH","3","0","3489",,,,,"0","2018-10-24 20:11:20","302267"
"A2PC8T3FGQHGK5","cs_wg_mon_conf_time_pilot1","3907X2AHF06HHQGBII2LH1KLGW42PR","60","0","AUGUST","2","MARCH","5","1","1844",,,,,"0","2018-10-24 20:11:21","302268"
"A21XVZ0Q2DJKEN","cs_wg_mon_conf_time_pilot1","38SKSKU7R1YV1QFFFTU6N0II0I0LIN","37","0","FEBRUARY","7","DECEMBER","9","1","2158",,,,,"0","2018-10-24 20:11:21","302269"
"A30YR5TPOKQYXJ","cs_wg_mon_conf_time_pilot1","3I7DHKZYGN1XPAA4MY8E3E9TY085FS","68","0","NOVEMBER","2","MARCH","5","1","1389",,,,,"0","2018-10-24 20:11:21","302270"
"AYGFIU5LDCXW4","cs_wg_mon_conf_time_pilot1","3X0H8UUIT1P06YUAOJVM0D5L7N5SWE","43","0","OCTOBER","3","JUNE","1","1","2406",,,,,"0","2018-10-24 20:11:22","302271"
"A2PTZ50APT1KT3","cs_wg_mon_conf_time_pilot1","3X65QVEQI0O4ONTFNJYKCXKNNDGCLC","46","0","FEBRUARY","8","SEPTEMBER","11","1","2345",,,,,"0","2018-10-24 20:11:24","302272"
"A2PC8T3FGQHGK5","cs_wg_mon_conf_time_pilot1","3907X2AHF06HHQGBII2LH1KLGW42PR","61","0","AUGUST","2","APRIL","8","1","1231",,,,,"0","2018-10-24 20:11:24","302273"
"A30YR5TPOKQYXJ","cs_wg_mon_conf_time_pilot1","3I7DHKZYGN1XPAA4MY8E3E9TY085FS","69","0","DECEMBER","1","NOVEMBER","2","1","1476",,,,,"0","2018-10-24 20:11:25","302274"
"AO2DBBYXARSIQ","cs_wg_mon_conf_time_pilot1","3BWI6RSP7GAK60ORFG35JG2PD5P7ES","1","0","APRIL","1","DECEMBER","2","1","9703",,,,,"1","2018-10-24 20:11:25","302275"
"A21XVZ0Q2DJKEN","cs_wg_mon_conf_time_pilot1","38SKSKU7R1YV1QFFFTU6N0II0I0LIN","38","0","FEBRUARY","7","AUGUST","11","1","3519",,,,,"1","2018-10-24 20:11:27","302276"
"A2PTZ50APT1KT3","cs_wg_mon_conf_time_pilot1","3X65QVEQI0O4ONTFNJYKCXKNNDGCLC","47","0","JULY","4","APRIL","10","1","1672",,,,,"0","2018-10-24 20:11:27","302277"
"AYGFIU5LDCXW4","cs_wg_mon_conf_time_pilot1","3X0H8UUIT1P06YUAOJVM0D5L7N5SWE","44","0","AUGUST","5","OCTOBER","3","0","3197",,,,,"0","2018-10-24 20:11:27","302278"
"A2PC8T3FGQHGK5","cs_wg_mon_conf_time_pilot1","3907X2AHF06HHQGBII2LH1KLGW42PR","62","0","JUNE","1","OCTOBER","9","1","1802",,,,,"0","2018-10-24 20:11:27","302279"
"A30YR5TPOKQYXJ","cs_wg_mon_conf_time_pilot1","3I7DHKZYGN1XPAA4MY8E3E9TY085FS","70","0","SEPTEMBER","9","APRIL","10","1","1297",,,,,"0","2018-10-24 20:11:28","302280"
"A2PTZ50APT1KT3","cs_wg_mon_conf_time_pilot1","3X65QVEQI0O4ONTFNJYKCXKNNDGCLC","48","0","FEBRUARY","8","OCTOBER","9","1","1742",,,,,"0","2018-10-24 20:11:30","302281"
"A2PC8T3FGQHGK5","cs_wg_mon_conf_time_pilot1","3907X2AHF06HHQGBII2LH1KLGW42PR","63","0","JUNE","1","JANUARY","12","0","1049",,,,,"0","2018-10-24 20:11:31","302282"
"A30YR5TPOKQYXJ","cs_wg_mon_conf_time_pilot1","3I7DHKZYGN1XPAA4MY8E3E9TY085FS","71","0","JULY","12","JANUARY","11","1","1842",,,,,"0","2018-10-24 20:11:32","302283"
"AYGFIU5LDCXW4","cs_wg_mon_conf_time_pilot1","3X0H8UUIT1P06YUAOJVM0D5L7N5SWE","45","0","MARCH","10","SEPTEMBER","12","1","3004",,,,,"0","2018-10-24 20:11:32","302284"
"A2PTZ50APT1KT3","cs_wg_mon_conf_time_pilot1","3X65QVEQI0O4ONTFNJYKCXKNNDGCLC","49","0","OCTOBER","9","APRIL","10","0","1345",,,,,"0","2018-10-24 20:11:33","302285"
"A21XVZ0Q2DJKEN","cs_wg_mon_conf_time_pilot1","38SKSKU7R1YV1QFFFTU6N0II0I0LIN","39","0","APRIL","6","JULY","10","1","5644",,,,,"0","2018-10-24 20:11:34","302286"
"A30YR5TPOKQYXJ","cs_wg_mon_conf_time_pilot1","3I7DHKZYGN1XPAA4MY8E3E9TY085FS","72","0","JUNE","3","AUGUST","7","0","1205",,,,,"0","2018-10-24 20:11:35","302287"
"A2PTZ50APT1KT3","cs_wg_mon_conf_time_pilot1","3X65QVEQI0O4ONTFNJYKCXKNNDGCLC","50","0","MAY","1","APRIL","10","1","1545",,,,,"0","2018-10-24 20:11:36","302288"
"AYGFIU5LDCXW4","cs_wg_mon_conf_time_pilot1","3X0H8UUIT1P06YUAOJVM0D5L7N5SWE","46","0","JULY","6","DECEMBER","8","1","2036",,,,,"0","2018-10-24 20:11:37","302289"
"A2PC8T3FGQHGK5","cs_wg_mon_conf_time_pilot1","3907X2AHF06HHQGBII2LH1KLGW42PR","64","0","OCTOBER","9","APRIL","8","1","2535",,,,,"0","2018-10-24 20:11:37","302290"
"A30YR5TPOKQYXJ","cs_wg_mon_conf_time_pilot1","3I7DHKZYGN1XPAA4MY8E3E9TY085FS","73","0","DECEMBER","1","AUGUST","7","1","1210",,,,,"0","2018-10-24 20:11:38","302291"
"A21XVZ0Q2DJKEN","cs_wg_mon_conf_time_pilot1","38SKSKU7R1YV1QFFFTU6N0II0I0LIN","40","0","MAY","8","JANUARY","4","0","2751",,,,,"1","2018-10-24 20:11:40","302292"
"AYGFIU5LDCXW4","cs_wg_mon_conf_time_pilot1","3X0H8UUIT1P06YUAOJVM0D5L7N5SWE","47","0","JUNE","1","SEPTEMBER","12","1","1661",,,,,"0","2018-10-24 20:11:40","302293"
"A2PC8T3FGQHGK5","cs_wg_mon_conf_time_pilot1","3907X2AHF06HHQGBII2LH1KLGW42PR","65","0","JANUARY","12","OCTOBER","9","0","2113",,,,,"0","2018-10-24 20:11:41","302294"
"A2PTZ50APT1KT3","cs_wg_mon_conf_time_pilot1","3X65QVEQI0O4ONTFNJYKCXKNNDGCLC","51","0","JULY","4","MARCH","3","1","3416",,,,,"0","2018-10-24 20:11:41","302295"
"A30YR5TPOKQYXJ","cs_wg_mon_conf_time_pilot1","3I7DHKZYGN1XPAA4MY8E3E9TY085FS","74","0","MARCH","5","AUGUST","7","0","1504",,,,,"0","2018-10-24 20:11:41","302296"
"A21XVZ0Q2DJKEN","cs_wg_mon_conf_time_pilot1","38SKSKU7R1YV1QFFFTU6N0II0I0LIN","41","0","DECEMBER","9","MARCH","2","1","871",,,,,"0","2018-10-24 20:11:43","302297"
"A2PTZ50APT1KT3","cs_wg_mon_conf_time_pilot1","3X65QVEQI0O4ONTFNJYKCXKNNDGCLC","52","0","DECEMBER","7","APRIL","10","0","1597",,,,,"0","2018-10-24 20:11:44","302298"
"A2PC8T3FGQHGK5","cs_wg_mon_conf_time_pilot1","3907X2AHF06HHQGBII2LH1KLGW42PR","66","0","SEPTEMBER","6","JANUARY","12","1","1936",,,,,"0","2018-10-24 20:11:44","302299"
"A30YR5TPOKQYXJ","cs_wg_mon_conf_time_pilot1","3I7DHKZYGN1XPAA4MY8E3E9TY085FS","75","0","OCTOBER","6","MAY","4","1","1208",,,,,"0","2018-10-24 20:11:44","302300"
"AYGFIU5LDCXW4","cs_wg_mon_conf_time_pilot1","3X0H8UUIT1P06YUAOJVM0D5L7N5SWE","48","0","OCTOBER","3","FEBRUARY","2","1","3368",,,,,"0","2018-10-24 20:11:46","302301"
"A2PTZ50APT1KT3","cs_wg_mon_conf_time_pilot1","3X65QVEQI0O4ONTFNJYKCXKNNDGCLC","53","0","JULY","4","OCTOBER","9","1","1724",,,,,"0","2018-10-24 20:11:47","302302"
"A2PC8T3FGQHGK5","cs_wg_mon_conf_time_pilot1","3907X2AHF06HHQGBII2LH1KLGW42PR","67","0","FEBRUARY","11","JANUARY","12","0","1849",,,,,"0","2018-10-24 20:11:48","302303"
"A21XVZ0Q2DJKEN","cs_wg_mon_conf_time_pilot1","38SKSKU7R1YV1QFFFTU6N0II0I0LIN","42","0","JUNE","3","SEPTEMBER","1","0","3485",,,,,"1","2018-10-24 20:11:49","302304"
"A30YR5TPOKQYXJ","cs_wg_mon_conf_time_pilot1","3I7DHKZYGN1XPAA4MY8E3E9TY085FS","76","0","JULY","12","OCTOBER","6","0","2944",,,,,"0","2018-10-24 20:11:49","302305"
"A2PC8T3FGQHGK5","cs_wg_mon_conf_time_pilot1","3907X2AHF06HHQGBII2LH1KLGW42PR","68","0","JANUARY","12","APRIL","8","0","1007",,,,,"0","2018-10-24 20:11:51","302306"
"A2PTZ50APT1KT3","cs_wg_mon_conf_time_pilot1","3X65QVEQI0O4ONTFNJYKCXKNNDGCLC","54","0","JANUARY","6","JUNE","2","0","2703",,,,,"0","2018-10-24 20:11:52","302307"
"A30YR5TPOKQYXJ","cs_wg_mon_conf_time_pilot1","3I7DHKZYGN1XPAA4MY8E3E9TY085FS","77","0","APRIL","10","SEPTEMBER","9","0","1531",,,,,"0","2018-10-24 20:11:53","302308"
"AYGFIU5LDCXW4","cs_wg_mon_conf_time_pilot1","3X0H8UUIT1P06YUAOJVM0D5L7N5SWE","49","0","OCTOBER","3","JANUARY","7","1","4093",,,,,"0","2018-10-24 20:11:53","302309"
"A21XVZ0Q2DJKEN","cs_wg_mon_conf_time_pilot1","38SKSKU7R1YV1QFFFTU6N0II0I0LIN","43","0","MARCH","2","JUNE","3","0","2300",,,,,"0","2018-10-24 20:11:53","302310"
"A2PC8T3FGQHGK5","cs_wg_mon_conf_time_pilot1","3907X2AHF06HHQGBII2LH1KLGW42PR","69","0","DECEMBER","10","OCTOBER","9","0","1071",,,,,"0","2018-10-24 20:11:54","302311"
"A2PTZ50APT1KT3","cs_wg_mon_conf_time_pilot1","3X65QVEQI0O4ONTFNJYKCXKNNDGCLC","55","0","JULY","4","JUNE","2","0","2201",,,,,"0","2018-10-24 20:11:56","302312"
"A30YR5TPOKQYXJ","cs_wg_mon_conf_time_pilot1","3I7DHKZYGN1XPAA4MY8E3E9TY085FS","78","0","AUGUST","7","SEPTEMBER","9","0","1728",,,,,"0","2018-10-24 20:11:56","302313"
"A2PC8T3FGQHGK5","cs_wg_mon_conf_time_pilot1","3907X2AHF06HHQGBII2LH1KLGW42PR","70","0","OCTOBER","9","JUNE","1","0","1936",,,,,"0","2018-10-24 20:11:57","302314"
"AYGFIU5LDCXW4","cs_wg_mon_conf_time_pilot1","3X0H8UUIT1P06YUAOJVM0D5L7N5SWE","50","0","JANUARY","7","APRIL","4","1","4564",,,,,"0","2018-10-24 20:12:00","302315"
"A2PTZ50APT1KT3","cs_wg_mon_conf_time_pilot1","3X65QVEQI0O4ONTFNJYKCXKNNDGCLC","56","0","AUGUST","5","DECEMBER","7","1","3394",,,,,"0","2018-10-24 20:12:01","302316"
"A2PC8T3FGQHGK5","cs_wg_mon_conf_time_pilot1","3907X2AHF06HHQGBII2LH1KLGW42PR","71","0","FEBRUARY","11","OCTOBER","9","0","2282",,,,,"0","2018-10-24 20:12:01","302317"
"A30YR5TPOKQYXJ","cs_wg_mon_conf_time_pilot1","3I7DHKZYGN1XPAA4MY8E3E9TY085FS","79","0","SEPTEMBER","9","AUGUST","7","0","3109",,,,,"0","2018-10-24 20:12:01","302318"
"AYGFIU5LDCXW4","cs_wg_mon_conf_time_pilot1","3X0H8UUIT1P06YUAOJVM0D5L7N5SWE","51","0","FEBRUARY","2","APRIL","4","0","1919",,,,,"0","2018-10-24 20:12:03","302319"
"A2PC8T3FGQHGK5","cs_wg_mon_conf_time_pilot1","3907X2AHF06HHQGBII2LH1KLGW42PR","72","0","DECEMBER","10","AUGUST","2","0","1439",,,,,"0","2018-10-24 20:12:04","302320"
"A2PTZ50APT1KT3","cs_wg_mon_conf_time_pilot1","3X65QVEQI0O4ONTFNJYKCXKNNDGCLC","57","0","MARCH","3","OCTOBER","9","1","2279",,,,,"0","2018-10-24 20:12:05","302321"
"A30YR5TPOKQYXJ","cs_wg_mon_conf_time_pilot1","3I7DHKZYGN1XPAA4MY8E3E9TY085FS","80","0","JUNE","3","DECEMBER","1","0","1417",,,,,"0","2018-10-24 20:12:05","302322"
"A2PC8T3FGQHGK5","cs_wg_mon_conf_time_pilot1","3907X2AHF06HHQGBII2LH1KLGW42PR","73","0","JULY","3","OCTOBER","9","1","944",,,,,"0","2018-10-24 20:12:07","302323"
"A30YR5TPOKQYXJ","cs_wg_mon_conf_time_pilot1","3I7DHKZYGN1XPAA4MY8E3E9TY085FS","81","0","OCTOBER","6","NOVEMBER","2","0","1253",,,,,"0","2018-10-24 20:12:08","302324"
"A2PTZ50APT1KT3","cs_wg_mon_conf_time_pilot1","3X65QVEQI0O4ONTFNJYKCXKNNDGCLC","58","0","SEPTEMBER","11","JULY","4","0","1656",,,,,"0","2018-10-24 20:12:08","302325"
"AYGFIU5LDCXW4","cs_wg_mon_conf_time_pilot1","3X0H8UUIT1P06YUAOJVM0D5L7N5SWE","52","0","OCTOBER","3","MARCH","10","1","3334",,,,,"0","2018-10-24 20:12:10","302326"
"A2PC8T3FGQHGK5","cs_wg_mon_conf_time_pilot1","3907X2AHF06HHQGBII2LH1KLGW42PR","74","0","DECEMBER","10","MARCH","5","0","1022",,,,,"0","2018-10-24 20:12:10","302327"
"A2PTZ50APT1KT3","cs_wg_mon_conf_time_pilot1","3X65QVEQI0O4ONTFNJYKCXKNNDGCLC","59","0","MAY","1","JANUARY","6","1","1149",,,,,"0","2018-10-24 20:12:11","302328"
"A30YR5TPOKQYXJ","cs_wg_mon_conf_time_pilot1","3I7DHKZYGN1XPAA4MY8E3E9TY085FS","82","0","SEPTEMBER","9","FEBRUARY","8","1","2227",,,,,"0","2018-10-24 20:12:12","302329"
"AYGFIU5LDCXW4","cs_wg_mon_conf_time_pilot1","3X0H8UUIT1P06YUAOJVM0D5L7N5SWE","53","0","AUGUST","5","MAY","11","1","1798",,,,,"0","2018-10-24 20:12:14","302330"
"A2PC8T3FGQHGK5","cs_wg_mon_conf_time_pilot1","3907X2AHF06HHQGBII2LH1KLGW42PR","75","0","JUNE","1","MARCH","5","1","2247",,,,,"0","2018-10-24 20:12:14","302331"
"A2PTZ50APT1KT3","cs_wg_mon_conf_time_pilot1","3X65QVEQI0O4ONTFNJYKCXKNNDGCLC","60","0","DECEMBER","7","JULY","4","0","1902",,,,,"0","2018-10-24 20:12:14","302332"
"A30YR5TPOKQYXJ","cs_wg_mon_conf_time_pilot1","3I7DHKZYGN1XPAA4MY8E3E9TY085FS","83","0","JULY","12","AUGUST","7","0","1461",,,,,"0","2018-10-24 20:12:15","302333"
"A2PC8T3FGQHGK5","cs_wg_mon_conf_time_pilot1","3907X2AHF06HHQGBII2LH1KLGW42PR","76","0","JUNE","1","MAY","4","1","1321",,,,,"0","2018-10-24 20:12:17","302334"
"A2PTZ50APT1KT3","cs_wg_mon_conf_time_pilot1","3X65QVEQI0O4ONTFNJYKCXKNNDGCLC","61","0","NOVEMBER","12","JANUARY","6","0","2232",,,,,"0","2018-10-24 20:12:18","302335"
"A30YR5TPOKQYXJ","cs_wg_mon_conf_time_pilot1","3I7DHKZYGN1XPAA4MY8E3E9TY085FS","84","0","NOVEMBER","2","DECEMBER","1","0","1212",,,,,"0","2018-10-24 20:12:19","302336"
"AYGFIU5LDCXW4","cs_wg_mon_conf_time_pilot1","3X0H8UUIT1P06YUAOJVM0D5L7N5SWE","54","0","FEBRUARY","2","MARCH","10","1","3541",,,,,"0","2018-10-24 20:12:19","302337"
"A2PTZ50APT1KT3","cs_wg_mon_conf_time_pilot1","3X65QVEQI0O4ONTFNJYKCXKNNDGCLC","62","0","DECEMBER","7","JUNE","2","0","2064",,,,,"0","2018-10-24 20:12:22","302338"
"A30YR5TPOKQYXJ","cs_wg_mon_conf_time_pilot1","3I7DHKZYGN1XPAA4MY8E3E9TY085FS","85","0","JUNE","3","JANUARY","11","1","1464",,,,,"0","2018-10-24 20:12:22","302339"
"A2PC8T3FGQHGK5","cs_wg_mon_conf_time_pilot1","3907X2AHF06HHQGBII2LH1KLGW42PR","77","0","MAY","4","NOVEMBER","7","1","3392",,,,,"0","2018-10-24 20:12:22","302340"
"AZBY9DS8VTPUK","cs_wg_mon_conf_time_pilot1","3ZAZR5XV01JOTCAJ2KPTKCVL2MPZCJ","0","0","OCTOBER","12","DECEMBER","9","0","6450",,,,,"1","2018-10-24 20:12:22","302341"
"AYGFIU5LDCXW4","cs_wg_mon_conf_time_pilot1","3X0H8UUIT1P06YUAOJVM0D5L7N5SWE","55","0","MARCH","10","NOVEMBER","9","0","1340",,,,,"0","2018-10-24 20:12:23","302342"
"A2PC8T3FGQHGK5","cs_wg_mon_conf_time_pilot1","3907X2AHF06HHQGBII2LH1KLGW42PR","78","0","APRIL","8","AUGUST","2","0","1257",,,,,"0","2018-10-24 20:12:25","302343"
"A30YR5TPOKQYXJ","cs_wg_mon_conf_time_pilot1","3I7DHKZYGN1XPAA4MY8E3E9TY085FS","86","0","JANUARY","11","OCTOBER","6","0","1394",,,,,"0","2018-10-24 20:12:26","302344"
"A2PTZ50APT1KT3","cs_wg_mon_conf_time_pilot1","3X65QVEQI0O4ONTFNJYKCXKNNDGCLC","63","0","NOVEMBER","12","OCTOBER","9","0","2555",,,,,"0","2018-10-24 20:12:26","302345"
"A30YR5TPOKQYXJ","cs_wg_mon_conf_time_pilot1","3I7DHKZYGN1XPAA4MY8E3E9TY085FS","87","0","JANUARY","11","FEBRUARY","8","0","1171",,,,,"0","2018-10-24 20:12:29","302346"
"A2PC8T3FGQHGK5","cs_wg_mon_conf_time_pilot1","3907X2AHF06HHQGBII2LH1KLGW42PR","79","0","APRIL","8","OCTOBER","9","1","1913",,,,,"0","2018-10-24 20:12:29","302347"
"A2PTZ50APT1KT3","cs_wg_mon_conf_time_pilot1","3X65QVEQI0O4ONTFNJYKCXKNNDGCLC","64","0","DECEMBER","7","JANUARY","6","0","2147",,,,,"0","2018-10-24 20:12:29","302348"
"AZBY9DS8VTPUK","cs_wg_mon_conf_time_pilot1","3ZAZR5XV01JOTCAJ2KPTKCVL2MPZCJ","1","0","MARCH","5","SEPTEMBER","3","0","4841",,,,,"1","2018-10-24 20:12:30","302349"
"A30YR5TPOKQYXJ","cs_wg_mon_conf_time_pilot1","3I7DHKZYGN1XPAA4MY8E3E9TY085FS","88","0","MAY","4","APRIL","10","1","1330",,,,,"0","2018-10-24 20:12:33","302350"
"AYGFIU5LDCXW4","cs_wg_mon_conf_time_pilot1","3X0H8UUIT1P06YUAOJVM0D5L7N5SWE","56","0","JANUARY","7","JULY","6","0","7469",,,,,"0","2018-10-24 20:12:33","302351"
"A2PTZ50APT1KT3","cs_wg_mon_conf_time_pilot1","3X65QVEQI0O4ONTFNJYKCXKNNDGCLC","65","0","APRIL","10","NOVEMBER","12","1","1613",,,,,"0","2018-10-24 20:12:33","302352"
"A2PC8T3FGQHGK5","cs_wg_mon_conf_time_pilot1","3907X2AHF06HHQGBII2LH1KLGW42PR","80","0","OCTOBER","9","FEBRUARY","11","1","2335",,,,,"0","2018-10-24 20:12:33","302353"
"AZBY9DS8VTPUK","cs_wg_mon_conf_time_pilot1","3ZAZR5XV01JOTCAJ2KPTKCVL2MPZCJ","2","0","JANUARY","8","APRIL","2","0","3061",,,,,"1","2018-10-24 20:12:36","302354"
"A2PTZ50APT1KT3","cs_wg_mon_conf_time_pilot1","3X65QVEQI0O4ONTFNJYKCXKNNDGCLC","66","0","NOVEMBER","12","JUNE","2","0","1726",,,,,"0","2018-10-24 20:12:36","302355"
"A30YR5TPOKQYXJ","cs_wg_mon_conf_time_pilot1","3I7DHKZYGN1XPAA4MY8E3E9TY085FS","89","0","SEPTEMBER","9","MAY","4","0","1691",,,,,"0","2018-10-24 20:12:36","302356"
"A2PC8T3FGQHGK5","cs_wg_mon_conf_time_pilot1","3907X2AHF06HHQGBII2LH1KLGW42PR","81","0","MARCH","5","AUGUST","2","0","2796",,,,,"0","2018-10-24 20:12:37","302357"
"AYGFIU5LDCXW4","cs_wg_mon_conf_time_pilot1","3X0H8UUIT1P06YUAOJVM0D5L7N5SWE","57","0","FEBRUARY","2","JANUARY","7","1","3462",,,,,"0","2018-10-24 20:12:38","302358"
"A2PTZ50APT1KT3","cs_wg_mon_conf_time_pilot1","3X65QVEQI0O4ONTFNJYKCXKNNDGCLC","67","0","SEPTEMBER","11","JUNE","2","0","1903",,,,,"0","2018-10-24 20:12:39","302359"
"A2PC8T3FGQHGK5","cs_wg_mon_conf_time_pilot1","3907X2AHF06HHQGBII2LH1KLGW42PR","82","0","NOVEMBER","7","JUNE","1","0","1000",,,,,"0","2018-10-24 20:12:40","302360"
"A30YR5TPOKQYXJ","cs_wg_mon_conf_time_pilot1","3I7DHKZYGN1XPAA4MY8E3E9TY085FS","90","0","NOVEMBER","2","OCTOBER","6","1","1444",,,,,"0","2018-10-24 20:12:40","302361"
"A21XVZ0Q2DJKEN","cs_wg_mon_conf_time_pilot1","38SKSKU7R1YV1QFFFTU6N0II0I0LIN","44","0","FEBRUARY","7","SEPTEMBER","1","0","44233",,,,,"0","2018-10-24 20:12:42","302362"
"AYGFIU5LDCXW4","cs_wg_mon_conf_time_pilot1","3X0H8UUIT1P06YUAOJVM0D5L7N5SWE","58","0","JANUARY","7","JUNE","1","0","1373",,,,,"0","2018-10-24 20:12:42","302363"
"A2PC8T3FGQHGK5","cs_wg_mon_conf_time_pilot1","3907X2AHF06HHQGBII2LH1KLGW42PR","83","0","AUGUST","2","OCTOBER","9","1","802",,,,,"0","2018-10-24 20:12:42","302364"
"A30YR5TPOKQYXJ","cs_wg_mon_conf_time_pilot1","3I7DHKZYGN1XPAA4MY8E3E9TY085FS","91","0","OCTOBER","6","AUGUST","7","0","1158",,,,,"0","2018-10-24 20:12:43","302365"
"A2PTZ50APT1KT3","cs_wg_mon_conf_time_pilot1","3X65QVEQI0O4ONTFNJYKCXKNNDGCLC","68","0","DECEMBER","7","MAY","1","0","2360",,,,,"0","2018-10-24 20:12:43","302366"
"A21XVZ0Q2DJKEN","cs_wg_mon_conf_time_pilot1","38SKSKU7R1YV1QFFFTU6N0II0I0LIN","45","0","FEBRUARY","7","JULY","10","1","508",,,,,"0","2018-10-24 20:12:44","302367"
"A2PC8T3FGQHGK5","cs_wg_mon_conf_time_pilot1","3907X2AHF06HHQGBII2LH1KLGW42PR","84","0","MAY","4","AUGUST","2","0","1030",,,,,"0","2018-10-24 20:12:44","302368"
"AYGFIU5LDCXW4","cs_wg_mon_conf_time_pilot1","3X0H8UUIT1P06YUAOJVM0D5L7N5SWE","59","0","MARCH","10","OCTOBER","3","0","1436",,,,,"0","2018-10-24 20:12:45","302369"
"A30YR5TPOKQYXJ","cs_wg_mon_conf_time_pilot1","3I7DHKZYGN1XPAA4MY8E3E9TY085FS","92","0","DECEMBER","1","APRIL","10","1","1294",,,,,"0","2018-10-24 20:12:46","302370"
"A2PTZ50APT1KT3","cs_wg_mon_conf_time_pilot1","3X65QVEQI0O4ONTFNJYKCXKNNDGCLC","69","0","APRIL","10","OCTOBER","9","1","1733",,,,,"0","2018-10-24 20:12:47","302371"
"AZBY9DS8VTPUK","cs_wg_mon_conf_time_pilot1","3ZAZR5XV01JOTCAJ2KPTKCVL2MPZCJ","3","0","DECEMBER","9","FEBRUARY","7","0","5921",,,,,"1","2018-10-24 20:12:47","302372"
"A2PC8T3FGQHGK5","cs_wg_mon_conf_time_pilot1","3907X2AHF06HHQGBII2LH1KLGW42PR","85","0","JANUARY","12","MAY","4","0","2048",,,,,"0","2018-10-24 20:12:48","302373"
"A30YR5TPOKQYXJ","cs_wg_mon_conf_time_pilot1","3I7DHKZYGN1XPAA4MY8E3E9TY085FS","93","0","NOVEMBER","2","MAY","4","1","1549",,,,,"0","2018-10-24 20:12:50","302374"
"A2PC8T3FGQHGK5","cs_wg_mon_conf_time_pilot1","3907X2AHF06HHQGBII2LH1KLGW42PR","86","0","APRIL","8","SEPTEMBER","6","1","864",,,,,"0","2018-10-24 20:12:50","302375"
"A21XVZ0Q2DJKEN","cs_wg_mon_conf_time_pilot1","38SKSKU7R1YV1QFFFTU6N0II0I0LIN","46","0","SEPTEMBER","1","JANUARY","4","0","4259",,,,,"0","2018-10-24 20:12:50","302376"
"A2PTZ50APT1KT3","cs_wg_mon_conf_time_pilot1","3X65QVEQI0O4ONTFNJYKCXKNNDGCLC","70","0","FEBRUARY","8","MARCH","3","0","2960",,,,,"0","2018-10-24 20:12:51","302377"
"AYGFIU5LDCXW4","cs_wg_mon_conf_time_pilot1","3X0H8UUIT1P06YUAOJVM0D5L7N5SWE","60","0","JUNE","1","AUGUST","5","1","5453",,,,,"0","2018-10-24 20:12:53","302378"
"A21XVZ0Q2DJKEN","cs_wg_mon_conf_time_pilot1","38SKSKU7R1YV1QFFFTU6N0II0I0LIN","47","0","AUGUST","11","JUNE","3","1","1262",,,,,"0","2018-10-24 20:12:53","302379"
"A30YR5TPOKQYXJ","cs_wg_mon_conf_time_pilot1","3I7DHKZYGN1XPAA4MY8E3E9TY085FS","94","0","DECEMBER","1","SEPTEMBER","9","1","1678",,,,,"0","2018-10-24 20:12:53","302380"
"A2PC8T3FGQHGK5","cs_wg_mon_conf_time_pilot1","3907X2AHF06HHQGBII2LH1KLGW42PR","87","0","SEPTEMBER","6","MARCH","5","0","1723",,,,,"0","2018-10-24 20:12:54","302381"
"A2PTZ50APT1KT3","cs_wg_mon_conf_time_pilot1","3X65QVEQI0O4ONTFNJYKCXKNNDGCLC","71","0","JULY","4","DECEMBER","7","1","2039",,,,,"0","2018-10-24 20:12:55","302382"
"A21XVZ0Q2DJKEN","cs_wg_mon_conf_time_pilot1","38SKSKU7R1YV1QFFFTU6N0II0I0LIN","48","0","OCTOBER","12","DECEMBER","9","0","503",,,,,"0","2018-10-24 20:12:56","302383"
"A2PC8T3FGQHGK5","cs_wg_mon_conf_time_pilot1","3907X2AHF06HHQGBII2LH1KLGW42PR","88","0","DECEMBER","10","JULY","3","0","1199",,,,,"0","2018-10-24 20:12:56","302384"
"A30YR5TPOKQYXJ","cs_wg_mon_conf_time_pilot1","3I7DHKZYGN1XPAA4MY8E3E9TY085FS","95","0","FEBRUARY","8","NOVEMBER","2","0","1443",,,,,"0","2018-10-24 20:12:57","302385"
"AZBY9DS8VTPUK","cs_wg_mon_conf_time_pilot1","3ZAZR5XV01JOTCAJ2KPTKCVL2MPZCJ","4","0","MAY","11","JULY","6","0","7674",,,,,"1","2018-10-24 20:12:57","302386"
"A21XVZ0Q2DJKEN","cs_wg_mon_conf_time_pilot1","38SKSKU7R1YV1QFFFTU6N0II0I0LIN","49","0","MAY","8","MARCH","2","1","670",,,,,"0","2018-10-24 20:12:58","302387"
"A2PTZ50APT1KT3","cs_wg_mon_conf_time_pilot1","3X65QVEQI0O4ONTFNJYKCXKNNDGCLC","72","0","JANUARY","6","APRIL","10","0","1716",,,,,"0","2018-10-24 20:12:58","302388"
"A2PC8T3FGQHGK5","cs_wg_mon_conf_time_pilot1","3907X2AHF06HHQGBII2LH1KLGW42PR","89","0","JULY","3","DECEMBER","10","1","999",,,,,"0","2018-10-24 20:12:58","302389"
"A30YR5TPOKQYXJ","cs_wg_mon_conf_time_pilot1","3I7DHKZYGN1XPAA4MY8E3E9TY085FS","96","0","JANUARY","11","SEPTEMBER","9","0","1404",,,,,"0","2018-10-24 20:13:00","302390"
"A21XVZ0Q2DJKEN","cs_wg_mon_conf_time_pilot1","38SKSKU7R1YV1QFFFTU6N0II0I0LIN","50","0","JANUARY","4","AUGUST","11","0","391",,,,,"0","2018-10-24 20:13:00","302391"
"AYGFIU5LDCXW4","cs_wg_mon_conf_time_pilot1","3X0H8UUIT1P06YUAOJVM0D5L7N5SWE","61","0","NOVEMBER","9","JULY","6","1","4773",,,,,"0","2018-10-24 20:13:00","302392"
"A21XVZ0Q2DJKEN","cs_wg_mon_conf_time_pilot1","38SKSKU7R1YV1QFFFTU6N0II0I0LIN","51","0","AUGUST","11","JANUARY","4","1","352",,,,,"0","2018-10-24 20:13:02","302393"
"A2PTZ50APT1KT3","cs_wg_mon_conf_time_pilot1","3X65QVEQI0O4ONTFNJYKCXKNNDGCLC","73","0","DECEMBER","7","OCTOBER","9","1","2579",,,,,"0","2018-10-24 20:13:02","302394"
"A2PC8T3FGQHGK5","cs_wg_mon_conf_time_pilot1","3907X2AHF06HHQGBII2LH1KLGW42PR","90","0","MARCH","5","APRIL","8","1","2264",,,,,"0","2018-10-24 20:13:03","302395"
"A30YR5TPOKQYXJ","cs_wg_mon_conf_time_pilot1","3I7DHKZYGN1XPAA4MY8E3E9TY085FS","97","0","NOVEMBER","2","JULY","12","1","1233",,,,,"0","2018-10-24 20:13:03","302396"
"AYGFIU5LDCXW4","cs_wg_mon_conf_time_pilot1","3X0H8UUIT1P06YUAOJVM0D5L7N5SWE","62","0","DECEMBER","8","NOVEMBER","9","0","1902",,,,,"0","2018-10-24 20:13:04","302397"
"A2PTZ50APT1KT3","cs_wg_mon_conf_time_pilot1","3X65QVEQI0O4ONTFNJYKCXKNNDGCLC","74","0","APRIL","10","DECEMBER","7","0","2315",,,,,"0","2018-10-24 20:13:06","302398"
"A30YR5TPOKQYXJ","cs_wg_mon_conf_time_pilot1","3I7DHKZYGN1XPAA4MY8E3E9TY085FS","98","0","AUGUST","7","JANUARY","11","1","1438",,,,,"0","2018-10-24 20:13:07","302399"
"A2PC8T3FGQHGK5","cs_wg_mon_conf_time_pilot1","3907X2AHF06HHQGBII2LH1KLGW42PR","91","0","NOVEMBER","7","FEBRUARY","11","1","2466",,,,,"0","2018-10-24 20:13:07","302400"
"A21XVZ0Q2DJKEN","cs_wg_mon_conf_time_pilot1","38SKSKU7R1YV1QFFFTU6N0II0I0LIN","52","0","JANUARY","4","JUNE","3","0","4286",,,,,"0","2018-10-24 20:13:09","302401"
"A30YR5TPOKQYXJ","cs_wg_mon_conf_time_pilot1","3I7DHKZYGN1XPAA4MY8E3E9TY085FS","99","0","SEPTEMBER","9","JUNE","3","0","1266",,,,,"0","2018-10-24 20:13:10","302402"
"AYGFIU5LDCXW4","cs_wg_mon_conf_time_pilot1","3X0H8UUIT1P06YUAOJVM0D5L7N5SWE","63","0","AUGUST","5","APRIL","4","0","3796",,,,,"0","2018-10-24 20:13:11","302403"
"A2PC8T3FGQHGK5","cs_wg_mon_conf_time_pilot1","3907X2AHF06HHQGBII2LH1KLGW42PR","92","0","NOVEMBER","7","APRIL","8","0","2504",,,,,"0","2018-10-24 20:13:13","302404"
"A21XVZ0Q2DJKEN","cs_wg_mon_conf_time_pilot1","38SKSKU7R1YV1QFFFTU6N0II0I0LIN","53","0","SEPTEMBER","1","JUNE","3","1","960",,,,,"0","2018-10-24 20:13:13","302405"
"A2PTZ50APT1KT3","cs_wg_mon_conf_time_pilot1","3X65QVEQI0O4ONTFNJYKCXKNNDGCLC","75","0","AUGUST","5","MAY","1","0","2572",,,,,"0","2018-10-24 20:13:14","302406"
"A30YR5TPOKQYXJ","cs_wg_mon_conf_time_pilot1","3I7DHKZYGN1XPAA4MY8E3E9TY085FS","100","0","SEPTEMBER","9","MARCH","5","1","1536",,,,,"0","2018-10-24 20:13:14","302407"
"A21XVZ0Q2DJKEN","cs_wg_mon_conf_time_pilot1","38SKSKU7R1YV1QFFFTU6N0II0I0LIN","54","0","APRIL","6","OCTOBER","12","1","752",,,,,"0","2018-10-24 20:13:15","302408"
"AYGFIU5LDCXW4","cs_wg_mon_conf_time_pilot1","3X0H8UUIT1P06YUAOJVM0D5L7N5SWE","64","0","MAY","11","SEPTEMBER","12","1","2406",,,,,"0","2018-10-24 20:13:15","302409"
"A30YR5TPOKQYXJ","cs_wg_mon_conf_time_pilot1","3I7DHKZYGN1XPAA4MY8E3E9TY085FS","101","0","SEPTEMBER","9","DECEMBER","1","0","1378",,,,,"0","2018-10-24 20:13:17","302410"
"A2PTZ50APT1KT3","cs_wg_mon_conf_time_pilot1","3X65QVEQI0O4ONTFNJYKCXKNNDGCLC","76","0","FEBRUARY","8","DECEMBER","7","0","2460",,,,,"0","2018-10-24 20:13:17","302411"
"A2PC8T3FGQHGK5","cs_wg_mon_conf_time_pilot1","3907X2AHF06HHQGBII2LH1KLGW42PR","93","0","NOVEMBER","7","DECEMBER","10","1","4112",,,,,"0","2018-10-24 20:13:17","302412"
"AYGFIU5LDCXW4","cs_wg_mon_conf_time_pilot1","3X0H8UUIT1P06YUAOJVM0D5L7N5SWE","65","0","JULY","6","MARCH","10","1","2077",,,,,"0","2018-10-24 20:13:19","302413"
"A2PC8T3FGQHGK5","cs_wg_mon_conf_time_pilot1","3907X2AHF06HHQGBII2LH1KLGW42PR","94","0","OCTOBER","9","JULY","3","0","1091",,,,,"0","2018-10-24 20:13:20","302414"
"A30YR5TPOKQYXJ","cs_wg_mon_conf_time_pilot1","3I7DHKZYGN1XPAA4MY8E3E9TY085FS","102","0","MARCH","5","JUNE","3","1","1241",,,,,"0","2018-10-24 20:13:20","302415"
"A21XVZ0Q2DJKEN","cs_wg_mon_conf_time_pilot1","38SKSKU7R1YV1QFFFTU6N0II0I0LIN","55","0","JANUARY","4","DECEMBER","9","0","3334",,,,,"0","2018-10-24 20:13:20","302416"
"A2PTZ50APT1KT3","cs_wg_mon_conf_time_pilot1","3X65QVEQI0O4ONTFNJYKCXKNNDGCLC","77","0","MAY","1","SEPTEMBER","11","1","2200",,,,,"0","2018-10-24 20:13:21","302417"
"A21XVZ0Q2DJKEN","cs_wg_mon_conf_time_pilot1","38SKSKU7R1YV1QFFFTU6N0II0I0LIN","56","0","MAY","8","JUNE","3","1","710",,,,,"0","2018-10-24 20:13:23","302418"
"AZBY9DS8VTPUK","cs_wg_mon_conf_time_pilot1","3ZAZR5XV01JOTCAJ2KPTKCVL2MPZCJ","5","0","SEPTEMBER","3","AUGUST","1","0","14133",,,,,"1","2018-10-24 20:13:23","302419"
"A2PC8T3FGQHGK5","cs_wg_mon_conf_time_pilot1","3907X2AHF06HHQGBII2LH1KLGW42PR","95","0","NOVEMBER","7","OCTOBER","9","0","2159",,,,,"0","2018-10-24 20:13:23","302420"
"A2PTZ50APT1KT3","cs_wg_mon_conf_time_pilot1","3X65QVEQI0O4ONTFNJYKCXKNNDGCLC","78","0","SEPTEMBER","11","MAY","1","0","1604",,,,,"0","2018-10-24 20:13:24","302421"
"A30YR5TPOKQYXJ","cs_wg_mon_conf_time_pilot1","3I7DHKZYGN1XPAA4MY8E3E9TY085FS","103","0","FEBRUARY","8","SEPTEMBER","9","0","1986",,,,,"0","2018-10-24 20:13:24","302422"
"AYGFIU5LDCXW4","cs_wg_mon_conf_time_pilot1","3X0H8UUIT1P06YUAOJVM0D5L7N5SWE","66","0","JUNE","1","JANUARY","7","1","3638",,,,,"0","2018-10-24 20:13:25","302423"
"A30YR5TPOKQYXJ","cs_wg_mon_conf_time_pilot1","3I7DHKZYGN1XPAA4MY8E3E9TY085FS","104","0","MAY","4","DECEMBER","1","0","1883",,,,,"0","2018-10-24 20:13:28","302424"
"A2PTZ50APT1KT3","cs_wg_mon_conf_time_pilot1","3X65QVEQI0O4ONTFNJYKCXKNNDGCLC","79","0","JANUARY","6","FEBRUARY","8","0","2563",,,,,"0","2018-10-24 20:13:28","302425"
"A2PC8T3FGQHGK5","cs_wg_mon_conf_time_pilot1","3907X2AHF06HHQGBII2LH1KLGW42PR","96","0","APRIL","8","MAY","4","0","4307",,,,,"0","2018-10-24 20:13:29","302426"
"AYGFIU5LDCXW4","cs_wg_mon_conf_time_pilot1","3X0H8UUIT1P06YUAOJVM0D5L7N5SWE","67","0","JUNE","1","MAY","11","1","2150",,,,,"0","2018-10-24 20:13:30","302427"
"A21XVZ0Q2DJKEN","cs_wg_mon_conf_time_pilot1","38SKSKU7R1YV1QFFFTU6N0II0I0LIN","57","0","JULY","10","MARCH","2","0","6675",,,,,"0","2018-10-24 20:13:31","302428"
"A30YR5TPOKQYXJ","cs_wg_mon_conf_time_pilot1","3I7DHKZYGN1XPAA4MY8E3E9TY085FS","105","0","FEBRUARY","8","MARCH","5","0","1357",,,,,"0","2018-10-24 20:13:32","302429"
"A2PC8T3FGQHGK5","cs_wg_mon_conf_time_pilot1","3907X2AHF06HHQGBII2LH1KLGW42PR","97","0","AUGUST","2","NOVEMBER","7","1","1027",,,,,"0","2018-10-24 20:13:32","302430"
"A30YR5TPOKQYXJ","cs_wg_mon_conf_time_pilot1","3I7DHKZYGN1XPAA4MY8E3E9TY085FS","106","0","MARCH","5","OCTOBER","6","1","1631",,,,,"0","2018-10-24 20:13:35","302431"
"AYGFIU5LDCXW4","cs_wg_mon_conf_time_pilot1","3X0H8UUIT1P06YUAOJVM0D5L7N5SWE","68","0","NOVEMBER","9","MARCH","10","1","2653",,,,,"0","2018-10-24 20:13:35","302432"
"A2PC8T3FGQHGK5","cs_wg_mon_conf_time_pilot1","3907X2AHF06HHQGBII2LH1KLGW42PR","98","0","JANUARY","12","FEBRUARY","11","0","1588",,,,,"0","2018-10-24 20:13:35","302433"
"A2PTZ50APT1KT3","cs_wg_mon_conf_time_pilot1","3X65QVEQI0O4ONTFNJYKCXKNNDGCLC","80","0","SEPTEMBER","11","MARCH","3","0","5737",,,,,"0","2018-10-24 20:13:36","302434"
"A2PC8T3FGQHGK5","cs_wg_mon_conf_time_pilot1","3907X2AHF06HHQGBII2LH1KLGW42PR","99","0","FEBRUARY","11","MAY","4","0","824",,,,,"0","2018-10-24 20:13:37","302435"
"A30YR5TPOKQYXJ","cs_wg_mon_conf_time_pilot1","3I7DHKZYGN1XPAA4MY8E3E9TY085FS","107","0","OCTOBER","6","JANUARY","11","1","1391",,,,,"0","2018-10-24 20:13:38","302436"
"AYGFIU5LDCXW4","cs_wg_mon_conf_time_pilot1","3X0H8UUIT1P06YUAOJVM0D5L7N5SWE","69","0","SEPTEMBER","12","FEBRUARY","2","0","1446",,,,,"0","2018-10-24 20:13:38","302437"
"A21XVZ0Q2DJKEN","cs_wg_mon_conf_time_pilot1","38SKSKU7R1YV1QFFFTU6N0II0I0LIN","58","0","NOVEMBER","5","OCTOBER","12","0","6142",,,,,"0","2018-10-24 20:13:39","302438"
"AZBY9DS8VTPUK","cs_wg_mon_conf_time_pilot1","3ZAZR5XV01JOTCAJ2KPTKCVL2MPZCJ","6","0","OCTOBER","12","JUNE","4","0","5430",,,,,"1","2018-10-24 20:13:40","302439"
"A2PTZ50APT1KT3","cs_wg_mon_conf_time_pilot1","3X65QVEQI0O4ONTFNJYKCXKNNDGCLC","81","0","MARCH","3","APRIL","10","1","3274",,,,,"0","2018-10-24 20:13:40","302440"
"A2PC8T3FGQHGK5","cs_wg_mon_conf_time_pilot1","3907X2AHF06HHQGBII2LH1KLGW42PR","100","0","DECEMBER","10","JANUARY","12","1","2067",,,,,"0","2018-10-24 20:13:41","302441"
"A30YR5TPOKQYXJ","cs_wg_mon_conf_time_pilot1","3I7DHKZYGN1XPAA4MY8E3E9TY085FS","108","0","MARCH","5","MAY","4","0","1575",,,,,"0","2018-10-24 20:13:42","302442"
"A21XVZ0Q2DJKEN","cs_wg_mon_conf_time_pilot1","38SKSKU7R1YV1QFFFTU6N0II0I0LIN","59","0","JUNE","3","MARCH","2","1","1262",,,,,"0","2018-10-24 20:13:42","302443"
"AYGFIU5LDCXW4","cs_wg_mon_conf_time_pilot1","3X0H8UUIT1P06YUAOJVM0D5L7N5SWE","70","0","JULY","6","APRIL","4","0","2548",,,,,"0","2018-10-24 20:13:43","302444"
"A2PC8T3FGQHGK5","cs_wg_mon_conf_time_pilot1","3907X2AHF06HHQGBII2LH1KLGW42PR","101","0","MAY","4","DECEMBER","10","1","1212",,,,,"0","2018-10-24 20:13:44","302445"
"A30YR5TPOKQYXJ","cs_wg_mon_conf_time_pilot1","3I7DHKZYGN1XPAA4MY8E3E9TY085FS","109","0","MARCH","5","JULY","12","1","1115",,,,,"0","2018-10-24 20:13:45","302446"
"A2PTZ50APT1KT3","cs_wg_mon_conf_time_pilot1","3X65QVEQI0O4ONTFNJYKCXKNNDGCLC","82","0","MARCH","3","JANUARY","6","1","2887",,,,,"0","2018-10-24 20:13:45","302447"
"A21XVZ0Q2DJKEN","cs_wg_mon_conf_time_pilot1","38SKSKU7R1YV1QFFFTU6N0II0I0LIN","60","0","APRIL","6","FEBRUARY","7","1","656",,,,,"0","2018-10-24 20:13:45","302448"
"A30YR5TPOKQYXJ","cs_wg_mon_conf_time_pilot1","3I7DHKZYGN1XPAA4MY8E3E9TY085FS","110","0","FEBRUARY","8","JULY","12","1","1036",,,,,"0","2018-10-24 20:13:47","302449"
"AYGFIU5LDCXW4","cs_wg_mon_conf_time_pilot1","3X0H8UUIT1P06YUAOJVM0D5L7N5SWE","71","0","AUGUST","5","DECEMBER","8","0","3180",,,,,"0","2018-10-24 20:13:48","302450"
"A21XVZ0Q2DJKEN","cs_wg_mon_conf_time_pilot1","38SKSKU7R1YV1QFFFTU6N0II0I0LIN","61","0","AUGUST","11","FEBRUARY","7","1","1030",,,,,"0","2018-10-24 20:13:48","302451"
"A2PC8T3FGQHGK5","cs_wg_mon_conf_time_pilot1","3907X2AHF06HHQGBII2LH1KLGW42PR","102","0","APRIL","8","NOVEMBER","7","0","2791",,,,,"0","2018-10-24 20:13:48","302452"
"A2PTZ50APT1KT3","cs_wg_mon_conf_time_pilot1","3X65QVEQI0O4ONTFNJYKCXKNNDGCLC","83","0","AUGUST","5","FEBRUARY","8","0","2229",,,,,"0","2018-10-24 20:13:49","302453"
"A1CYSGVB90E67S","cs_wg_mon_conf_time_pilot1","3COPXFW7XBDCY6K17O8PHX6FXWPKPU","0","0","MAY","12","OCTOBER","6","1","7241",,,,,"0","2018-10-24 20:13:50","302454"
"A21XVZ0Q2DJKEN","cs_wg_mon_conf_time_pilot1","38SKSKU7R1YV1QFFFTU6N0II0I0LIN","62","0","DECEMBER","9","AUGUST","11","0","415",,,,,"0","2018-10-24 20:13:51","302455"
"A2PTZ50APT1KT3","cs_wg_mon_conf_time_pilot1","3X65QVEQI0O4ONTFNJYKCXKNNDGCLC","84","0","FEBRUARY","8","MAY","1","0","1283",,,,,"0","2018-10-24 20:13:51","302456"
"A2PC8T3FGQHGK5","cs_wg_mon_conf_time_pilot1","3907X2AHF06HHQGBII2LH1KLGW42PR","103","0","JUNE","1","DECEMBER","10","1","1736",,,,,"0","2018-10-24 20:13:52","302457"
"A30YR5TPOKQYXJ","cs_wg_mon_conf_time_pilot1","3I7DHKZYGN1XPAA4MY8E3E9TY085FS","111","0","MARCH","5","FEBRUARY","8","1","1897",,,,,"0","2018-10-24 20:13:52","302458"
"AZBY9DS8VTPUK","cs_wg_mon_conf_time_pilot1","3ZAZR5XV01JOTCAJ2KPTKCVL2MPZCJ","7","0","AUGUST","1","JUNE","4","1","6449",,,,,"1","2018-10-24 20:13:53","302459"
"A21XVZ0Q2DJKEN","cs_wg_mon_conf_time_pilot1","38SKSKU7R1YV1QFFFTU6N0II0I0LIN","63","0","JANUARY","4","APRIL","6","1","511",,,,,"0","2018-10-24 20:13:53","302460"
"AYGFIU5LDCXW4","cs_wg_mon_conf_time_pilot1","3X0H8UUIT1P06YUAOJVM0D5L7N5SWE","72","0","APRIL","4","AUGUST","5","0","3852",,,,,"0","2018-10-24 20:13:54","302461"
"A1CYSGVB90E67S","cs_wg_mon_conf_time_pilot1","3COPXFW7XBDCY6K17O8PHX6FXWPKPU","1","0","JUNE","1","NOVEMBER","11","0","2368",,,,,"0","2018-10-24 20:13:54","302462"
"A2PTZ50APT1KT3","cs_wg_mon_conf_time_pilot1","3X65QVEQI0O4ONTFNJYKCXKNNDGCLC","85","0","FEBRUARY","8","JULY","4","1","1446",,,,,"0","2018-10-24 20:13:54","302463"
"A30YR5TPOKQYXJ","cs_wg_mon_conf_time_pilot1","3I7DHKZYGN1XPAA4MY8E3E9TY085FS","112","0","FEBRUARY","8","JUNE","3","0","1520",,,,,"0","2018-10-24 20:13:55","302464"
"A2PC8T3FGQHGK5","cs_wg_mon_conf_time_pilot1","3907X2AHF06HHQGBII2LH1KLGW42PR","104","0","JULY","3","MAY","4","1","2883",,,,,"0","2018-10-24 20:13:56","302465"
"A21XVZ0Q2DJKEN","cs_wg_mon_conf_time_pilot1","38SKSKU7R1YV1QFFFTU6N0II0I0LIN","64","0","FEBRUARY","7","JUNE","3","0","1381",,,,,"0","2018-10-24 20:13:56","302466"
"AYGFIU5LDCXW4","cs_wg_mon_conf_time_pilot1","3X0H8UUIT1P06YUAOJVM0D5L7N5SWE","73","0","SEPTEMBER","12","JULY","6","0","1106",,,,,"0","2018-10-24 20:13:57","302467"
"A2PTZ50APT1KT3","cs_wg_mon_conf_time_pilot1","3X65QVEQI0O4ONTFNJYKCXKNNDGCLC","86","0","JUNE","2","MAY","1","0","1234",,,,,"0","2018-10-24 20:13:57","302468"
"A1CYSGVB90E67S","cs_wg_mon_conf_time_pilot1","3COPXFW7XBDCY6K17O8PHX6FXWPKPU","2","0","JUNE","1","MAY","12","1","726",,,,,"0","2018-10-24 20:13:57","302469"
"A2PC8T3FGQHGK5","cs_wg_mon_conf_time_pilot1","3907X2AHF06HHQGBII2LH1KLGW42PR","105","0","JANUARY","12","MARCH","5","0","1331",,,,,"0","2018-10-24 20:13:59","302470"
"A30YR5TPOKQYXJ","cs_wg_mon_conf_time_pilot1","3I7DHKZYGN1XPAA4MY8E3E9TY085FS","113","0","MARCH","5","APRIL","10","1","1746",,,,,"0","2018-10-24 20:13:59","302471"
"A21XVZ0Q2DJKEN","cs_wg_mon_conf_time_pilot1","38SKSKU7R1YV1QFFFTU6N0II0I0LIN","65","0","MARCH","2","AUGUST","11","1","1823",,,,,"0","2018-10-24 20:14:00","302472"
"A1CYSGVB90E67S","cs_wg_mon_conf_time_pilot1","3COPXFW7XBDCY6K17O8PHX6FXWPKPU","3","0","OCTOBER","6","MARCH","9","1","2230",,,,,"0","2018-10-24 20:14:02","302473"
"A2PC8T3FGQHGK5","cs_wg_mon_conf_time_pilot1","3907X2AHF06HHQGBII2LH1KLGW42PR","106","0","FEBRUARY","11","SEPTEMBER","6","0","1065",,,,,"0","2018-10-24 20:14:02","302474"
"AYGFIU5LDCXW4","cs_wg_mon_conf_time_pilot1","3X0H8UUIT1P06YUAOJVM0D5L7N5SWE","74","0","DECEMBER","8","MAY","11","1","3070",,,,,"0","2018-10-24 20:14:02","302475"
"A2PTZ50APT1KT3","cs_wg_mon_conf_time_pilot1","3X65QVEQI0O4ONTFNJYKCXKNNDGCLC","87","0","DECEMBER","7","SEPTEMBER","11","1","3377",,,,,"0","2018-10-24 20:14:02","302476"
"A21XVZ0Q2DJKEN","cs_wg_mon_conf_time_pilot1","38SKSKU7R1YV1QFFFTU6N0II0I0LIN","66","0","AUGUST","11","MAY","8","0","904",,,,,"0","2018-10-24 20:14:02","302477"
"A30YR5TPOKQYXJ","cs_wg_mon_conf_time_pilot1","3I7DHKZYGN1XPAA4MY8E3E9TY085FS","114","0","APRIL","10","JUNE","3","0","1546",,,,,"0","2018-10-24 20:14:02","302478"
"AYGFIU5LDCXW4","cs_wg_mon_conf_time_pilot1","3X0H8UUIT1P06YUAOJVM0D5L7N5SWE","75","0","SEPTEMBER","12","MARCH","10","0","1261",,,,,"0","2018-10-24 20:14:05","302479"
"A2PC8T3FGQHGK5","cs_wg_mon_conf_time_pilot1","3907X2AHF06HHQGBII2LH1KLGW42PR","107","0","DECEMBER","10","JUNE","1","0","1275",,,,,"0","2018-10-24 20:14:05","302480"
"A2PTZ50APT1KT3","cs_wg_mon_conf_time_pilot1","3X65QVEQI0O4ONTFNJYKCXKNNDGCLC","88","0","NOVEMBER","12","DECEMBER","7","0","1568",,,,,"0","2018-10-24 20:14:05","302481"
"A21XVZ0Q2DJKEN","cs_wg_mon_conf_time_pilot1","38SKSKU7R1YV1QFFFTU6N0II0I0LIN","67","0","APRIL","6","JANUARY","4","1","1095",,,,,"0","2018-10-24 20:14:06","302482"
"A1CYSGVB90E67S","cs_wg_mon_conf_time_pilot1","3COPXFW7XBDCY6K17O8PHX6FXWPKPU","4","0","FEBRUARY","5","JULY","8","1","2300",,,,,"0","2018-10-24 20:14:06","302483"
"A30YR5TPOKQYXJ","cs_wg_mon_conf_time_pilot1","3I7DHKZYGN1XPAA4MY8E3E9TY085FS","115","0","AUGUST","7","MAY","4","1","1710",,,,,"0","2018-10-24 20:14:06","302484"
"A21XVZ0Q2DJKEN","cs_wg_mon_conf_time_pilot1","38SKSKU7R1YV1QFFFTU6N0II0I0LIN","68","0","NOVEMBER","5","AUGUST","11","0","774",,,,,"0","2018-10-24 20:14:08","302485"
"AYGFIU5LDCXW4","cs_wg_mon_conf_time_pilot1","3X0H8UUIT1P06YUAOJVM0D5L7N5SWE","76","0","OCTOBER","3","MAY","11","1","1820",,,,,"0","2018-10-24 20:14:09","302486"
"A2PC8T3FGQHGK5","cs_wg_mon_conf_time_pilot1","3907X2AHF06HHQGBII2LH1KLGW42PR","108","0","SEPTEMBER","6","OCTOBER","9","1","2490",,,,,"0","2018-10-24 20:14:09","302487"
"A2PTZ50APT1KT3","cs_wg_mon_conf_time_pilot1","3X65QVEQI0O4ONTFNJYKCXKNNDGCLC","89","0","FEBRUARY","8","JUNE","2","0","2041",,,,,"0","2018-10-24 20:14:09","302488"
"AZBY9DS8VTPUK","cs_wg_mon_conf_time_pilot1","3ZAZR5XV01JOTCAJ2KPTKCVL2MPZCJ","8","0","JULY","6","MAY","11","1","14543",,,,,"1","2018-10-24 20:14:09","302489"
"A21XVZ0Q2DJKEN","cs_wg_mon_conf_time_pilot1","38SKSKU7R1YV1QFFFTU6N0II0I0LIN","69","0","MAY","8","AUGUST","11","1","639",,,,,"0","2018-10-24 20:14:10","302490"
"A1CYSGVB90E67S","cs_wg_mon_conf_time_pilot1","3COPXFW7XBDCY6K17O8PHX6FXWPKPU","5","0","SEPTEMBER","4","MAY","12","1","2405",,,,,"0","2018-10-24 20:14:11","302491"
"A30YR5TPOKQYXJ","cs_wg_mon_conf_time_pilot1","3I7DHKZYGN1XPAA4MY8E3E9TY085FS","116","0","NOVEMBER","2","JUNE","3","1","2924",,,,,"0","2018-10-24 20:14:11","302492"
"A2PC8T3FGQHGK5","cs_wg_mon_conf_time_pilot1","3907X2AHF06HHQGBII2LH1KLGW42PR","109","0","JUNE","1","NOVEMBER","7","1","1572",,,,,"0","2018-10-24 20:14:13","302493"
"AYGFIU5LDCXW4","cs_wg_mon_conf_time_pilot1","3X0H8UUIT1P06YUAOJVM0D5L7N5SWE","77","0","JUNE","1","NOVEMBER","9","1","2381",,,,,"0","2018-10-24 20:14:13","302494"
"A2PTZ50APT1KT3","cs_wg_mon_conf_time_pilot1","3X65QVEQI0O4ONTFNJYKCXKNNDGCLC","90","0","MAY","1","JUNE","2","1","2172",,,,,"0","2018-10-24 20:14:13","302495"
"A21XVZ0Q2DJKEN","cs_wg_mon_conf_time_pilot1","38SKSKU7R1YV1QFFFTU6N0II0I0LIN","70","0","APRIL","6","DECEMBER","9","1","1183",,,,,"0","2018-10-24 20:14:13","302496"
"A30YR5TPOKQYXJ","cs_wg_mon_conf_time_pilot1","3I7DHKZYGN1XPAA4MY8E3E9TY085FS","117","0","APRIL","10","DECEMBER","1","0","1655",,,,,"0","2018-10-24 20:14:15","302497"
"A2PC8T3FGQHGK5","cs_wg_mon_conf_time_pilot1","3907X2AHF06HHQGBII2LH1KLGW42PR","110","0","JUNE","1","FEBRUARY","11","1","2104",,,,,"0","2018-10-24 20:14:16","302498"
"A1CYSGVB90E67S","cs_wg_mon_conf_time_pilot1","3COPXFW7XBDCY6K17O8PHX6FXWPKPU","6","0","OCTOBER","6","AUGUST","10","1","3443",,,,,"1","2018-10-24 20:14:17","302499"
"A21XVZ0Q2DJKEN","cs_wg_mon_conf_time_pilot1","38SKSKU7R1YV1QFFFTU6N0II0I0LIN","71","0","DECEMBER","9","JULY","10","1","1839",,,,,"0","2018-10-24 20:14:17","302500"
"AYGFIU5LDCXW4","cs_wg_mon_conf_time_pilot1","3X0H8UUIT1P06YUAOJVM0D5L7N5SWE","78","0","DECEMBER","8","FEBRUARY","2","0","2253",,,,,"0","2018-10-24 20:14:17","302501"
"A2PTZ50APT1KT3","cs_wg_mon_conf_time_pilot1","3X65QVEQI0O4ONTFNJYKCXKNNDGCLC","91","0","MARCH","3","DECEMBER","7","1","2462",,,,,"0","2018-10-24 20:14:17","302502"
"A30YR5TPOKQYXJ","cs_wg_mon_conf_time_pilot1","3I7DHKZYGN1XPAA4MY8E3E9TY085FS","118","0","FEBRUARY","8","DECEMBER","1","0","1228",,,,,"0","2018-10-24 20:14:17","302503"
"A21XVZ0Q2DJKEN","cs_wg_mon_conf_time_pilot1","38SKSKU7R1YV1QFFFTU6N0II0I0LIN","72","0","SEPTEMBER","1","AUGUST","11","0","1087",,,,,"0","2018-10-24 20:14:20","302504"
"A2PC8T3FGQHGK5","cs_wg_mon_conf_time_pilot1","3907X2AHF06HHQGBII2LH1KLGW42PR","111","0","FEBRUARY","11","MARCH","5","0","1764",,,,,"0","2018-10-24 20:14:20","302505"
"A30YR5TPOKQYXJ","cs_wg_mon_conf_time_pilot1","3I7DHKZYGN1XPAA4MY8E3E9TY085FS","119","0","OCTOBER","6","FEBRUARY","8","1","1686",,,,,"0","2018-10-24 20:14:21","302506"
"A2PTZ50APT1KT3","cs_wg_mon_conf_time_pilot1","3X65QVEQI0O4ONTFNJYKCXKNNDGCLC","92","0","AUGUST","5","OCTOBER","9","1","2197",,,,,"0","2018-10-24 20:14:21","302507"
"A1CYSGVB90E67S","cs_wg_mon_conf_time_pilot1","3COPXFW7XBDCY6K17O8PHX6FXWPKPU","7","0","DECEMBER","7","OCTOBER","6","0","2784",,,,,"1","2018-10-24 20:14:21","302508"
"A21XVZ0Q2DJKEN","cs_wg_mon_conf_time_pilot1","38SKSKU7R1YV1QFFFTU6N0II0I0LIN","73","0","JUNE","3","AUGUST","11","1","311",,,,,"0","2018-10-24 20:14:22","302509"
"AYGFIU5LDCXW4","cs_wg_mon_conf_time_pilot1","3X0H8UUIT1P06YUAOJVM0D5L7N5SWE","79","0","JUNE","1","FEBRUARY","2","1","2614",,,,,"0","2018-10-24 20:14:22","302510"
"A2PC8T3FGQHGK5","cs_wg_mon_conf_time_pilot1","3907X2AHF06HHQGBII2LH1KLGW42PR","112","0","NOVEMBER","7","SEPTEMBER","6","0","1883",,,,,"0","2018-10-24 20:14:23","302511"
"A21XVZ0Q2DJKEN","cs_wg_mon_conf_time_pilot1","38SKSKU7R1YV1QFFFTU6N0II0I0LIN","74","0","AUGUST","11","SEPTEMBER","1","1","591",,,,,"0","2018-10-24 20:14:24","302512"
"A2PTZ50APT1KT3","cs_wg_mon_conf_time_pilot1","3X65QVEQI0O4ONTFNJYKCXKNNDGCLC","93","0","SEPTEMBER","11","OCTOBER","9","0","1255",,,,,"0","2018-10-24 20:14:24","302513"
"A30YR5TPOKQYXJ","cs_wg_mon_conf_time_pilot1","3I7DHKZYGN1XPAA4MY8E3E9TY085FS","120","0","SEPTEMBER","9","NOVEMBER","2","0","1468",,,,,"0","2018-10-24 20:14:24","302514"
"A21XVZ0Q2DJKEN","cs_wg_mon_conf_time_pilot1","38SKSKU7R1YV1QFFFTU6N0II0I0LIN","75","0","APRIL","6","MAY","8","0","589",,,,,"0","2018-10-24 20:14:26","302515"
"AYGFIU5LDCXW4","cs_wg_mon_conf_time_pilot1","3X0H8UUIT1P06YUAOJVM0D5L7N5SWE","80","0","FEBRUARY","2","OCTOBER","3","1","2707",,,,,"0","2018-10-24 20:14:26","302516"
"A2PC8T3FGQHGK5","cs_wg_mon_conf_time_pilot1","3907X2AHF06HHQGBII2LH1KLGW42PR","113","0","MARCH","5","FEBRUARY","11","1","2031",,,,,"0","2018-10-24 20:14:27","302517"
"A2PTZ50APT1KT3","cs_wg_mon_conf_time_pilot1","3X65QVEQI0O4ONTFNJYKCXKNNDGCLC","94","0","MAY","1","FEBRUARY","8","1","1241",,,,,"0","2018-10-24 20:14:27","302518"
"A1CYSGVB90E67S","cs_wg_mon_conf_time_pilot1","3COPXFW7XBDCY6K17O8PHX6FXWPKPU","8","0","FEBRUARY","5","SEPTEMBER","4","0","3713",,,,,"1","2018-10-24 20:14:27","302519"
"A30YR5TPOKQYXJ","cs_wg_mon_conf_time_pilot1","3I7DHKZYGN1XPAA4MY8E3E9TY085FS","121","0","JULY","12","SEPTEMBER","9","0","1172",,,,,"0","2018-10-24 20:14:27","302520"
"A21XVZ0Q2DJKEN","cs_wg_mon_conf_time_pilot1","38SKSKU7R1YV1QFFFTU6N0II0I0LIN","76","0","APRIL","6","JUNE","3","1","622",,,,,"0","2018-10-24 20:14:29","302521"
"A30YR5TPOKQYXJ","cs_wg_mon_conf_time_pilot1","3I7DHKZYGN1XPAA4MY8E3E9TY085FS","122","0","JANUARY","11","AUGUST","7","0","1336",,,,,"0","2018-10-24 20:14:31","302522"
"A2PTZ50APT1KT3","cs_wg_mon_conf_time_pilot1","3X65QVEQI0O4ONTFNJYKCXKNNDGCLC","95","0","JUNE","2","NOVEMBER","12","1","2730",,,,,"0","2018-10-24 20:14:31","302523"
"A1CYSGVB90E67S","cs_wg_mon_conf_time_pilot1","3COPXFW7XBDCY6K17O8PHX6FXWPKPU","9","0","MARCH","9","AUGUST","10","1","2580",,,,,"1","2018-10-24 20:14:32","302524"
"AYGFIU5LDCXW4","cs_wg_mon_conf_time_pilot1","3X0H8UUIT1P06YUAOJVM0D5L7N5SWE","81","0","APRIL","4","JANUARY","7","0","4891",,,,,"0","2018-10-24 20:14:33","302525"
"A2PC8T3FGQHGK5","cs_wg_mon_conf_time_pilot1","3907X2AHF06HHQGBII2LH1KLGW42PR","114","0","DECEMBER","10","MAY","4","0","4799",,,,,"0","2018-10-24 20:14:33","302526"
"A21XVZ0Q2DJKEN","cs_wg_mon_conf_time_pilot1","38SKSKU7R1YV1QFFFTU6N0II0I0LIN","77","0","JUNE","3","FEBRUARY","7","1","3663",,,,,"0","2018-10-24 20:14:34","302527"
"A30YR5TPOKQYXJ","cs_wg_mon_conf_time_pilot1","3I7DHKZYGN1XPAA4MY8E3E9TY085FS","123","0","OCTOBER","6","MARCH","5","1","2018",,,,,"0","2018-10-24 20:14:35","302528"
"A2PTZ50APT1KT3","cs_wg_mon_conf_time_pilot1","3X65QVEQI0O4ONTFNJYKCXKNNDGCLC","96","0","OCTOBER","9","MARCH","3","0","1914",,,,,"0","2018-10-24 20:14:35","302529"
"A21XVZ0Q2DJKEN","cs_wg_mon_conf_time_pilot1","38SKSKU7R1YV1QFFFTU6N0II0I0LIN","78","0","OCTOBER","12","MARCH","2","0","469",,,,,"0","2018-10-24 20:14:36","302530"
"A1CYSGVB90E67S","cs_wg_mon_conf_time_pilot1","3COPXFW7XBDCY6K17O8PHX6FXWPKPU","10","0","MARCH","9","JANUARY","2","0","3205",,,,,"1","2018-10-24 20:14:37","302531"
"AZBY9DS8VTPUK","cs_wg_mon_conf_time_pilot1","3ZAZR5XV01JOTCAJ2KPTKCVL2MPZCJ","9","0","NOVEMBER","10","JANUARY","8","0","25962",,,,,"1","2018-10-24 20:14:38","302532"
"A2PC8T3FGQHGK5","cs_wg_mon_conf_time_pilot1","3907X2AHF06HHQGBII2LH1KLGW42PR","115","0","APRIL","8","JUNE","1","0","2870",,,,,"0","2018-10-24 20:14:38","302533"
"A21XVZ0Q2DJKEN","cs_wg_mon_conf_time_pilot1","38SKSKU7R1YV1QFFFTU6N0II0I0LIN","79","0","MARCH","2","JULY","10","1","576",,,,,"0","2018-10-24 20:14:38","302534"
"A30YR5TPOKQYXJ","cs_wg_mon_conf_time_pilot1","3I7DHKZYGN1XPAA4MY8E3E9TY085FS","124","0","AUGUST","7","MARCH","5","1","2093",,,,,"0","2018-10-24 20:14:39","302535"
"AYGFIU5LDCXW4","cs_wg_mon_conf_time_pilot1","3X0H8UUIT1P06YUAOJVM0D5L7N5SWE","82","0","AUGUST","5","FEBRUARY","2","0","3965",,,,,"0","2018-10-24 20:14:39","302536"
"A2PC8T3FGQHGK5","cs_wg_mon_conf_time_pilot1","3907X2AHF06HHQGBII2LH1KLGW42PR","116","0","APRIL","8","JULY","3","0","564",,,,,"0","2018-10-24 20:14:40","302537"
"A2PTZ50APT1KT3","cs_wg_mon_conf_time_pilot1","3X65QVEQI0O4ONTFNJYKCXKNNDGCLC","97","0","NOVEMBER","12","MARCH","3","0","4160",,,,,"0","2018-10-24 20:14:41","302538"
"A1CYSGVB90E67S","cs_wg_mon_conf_time_pilot1","3COPXFW7XBDCY6K17O8PHX6FXWPKPU","11","0","JUNE","1","SEPTEMBER","4","1","2446",,,,,"1","2018-10-24 20:14:41","302539"
"A21XVZ0Q2DJKEN","cs_wg_mon_conf_time_pilot1","38SKSKU7R1YV1QFFFTU6N0II0I0LIN","80","0","OCTOBER","12","JUNE","3","0","1072",,,,,"0","2018-10-24 20:14:41","302540"
"A2PC8T3FGQHGK5","cs_wg_mon_conf_time_pilot1","3907X2AHF06HHQGBII2LH1KLGW42PR","117","0","AUGUST","2","SEPTEMBER","6","1","914",,,,,"0","2018-10-24 20:14:42","302541"
"A30YR5TPOKQYXJ","cs_wg_mon_conf_time_pilot1","3I7DHKZYGN1XPAA4MY8E3E9TY085FS","125","0","DECEMBER","1","MARCH","5","0","2096",,,,,"0","2018-10-24 20:14:43","302542"
"A2PTZ50APT1KT3","cs_wg_mon_conf_time_pilot1","3X65QVEQI0O4ONTFNJYKCXKNNDGCLC","98","0","AUGUST","5","JUNE","2","0","1372",,,,,"0","2018-10-24 20:14:44","302543"
"A2PC8T3FGQHGK5","cs_wg_mon_conf_time_pilot1","3907X2AHF06HHQGBII2LH1KLGW42PR","118","0","OCTOBER","9","MARCH","5","0","877",,,,,"0","2018-10-24 20:14:45","302544"
"AYGFIU5LDCXW4","cs_wg_mon_conf_time_pilot1","3X0H8UUIT1P06YUAOJVM0D5L7N5SWE","83","0","MAY","11","AUGUST","5","0","3549",,,,,"0","2018-10-24 20:14:45","302545"
"A21XVZ0Q2DJKEN","cs_wg_mon_conf_time_pilot1","38SKSKU7R1YV1QFFFTU6N0II0I0LIN","81","0","AUGUST","11","MARCH","2","1","1591",,,,,"0","2018-10-24 20:14:45","302546"
"A1CYSGVB90E67S","cs_wg_mon_conf_time_pilot1","3COPXFW7XBDCY6K17O8PHX6FXWPKPU","12","0","DECEMBER","7","JULY","8","1","1863",,,,,"1","2018-10-24 20:14:45","302547"
"A2PTZ50APT1KT3","cs_wg_mon_conf_time_pilot1","3X65QVEQI0O4ONTFNJYKCXKNNDGCLC","99","0","APRIL","10","MAY","1","0","1152",,,,,"0","2018-10-24 20:14:46","302548"
"A30YR5TPOKQYXJ","cs_wg_mon_conf_time_pilot1","3I7DHKZYGN1XPAA4MY8E3E9TY085FS","126","0","MAY","4","AUGUST","7","0","1600",,,,,"0","2018-10-24 20:14:46","302549"
"AZBY9DS8VTPUK","cs_wg_mon_conf_time_pilot1","3ZAZR5XV01JOTCAJ2KPTKCVL2MPZCJ","10","0","DECEMBER","9","JULY","6","0","3131",,,,,"1","2018-10-24 20:14:46","302550"
"A21XVZ0Q2DJKEN","cs_wg_mon_conf_time_pilot1","38SKSKU7R1YV1QFFFTU6N0II0I0LIN","82","0","DECEMBER","9","MAY","8","0","663",,,,,"0","2018-10-24 20:14:47","302551"
"A2PC8T3FGQHGK5","cs_wg_mon_conf_time_pilot1","3907X2AHF06HHQGBII2LH1KLGW42PR","119","0","OCTOBER","9","MAY","4","0","1163",,,,,"0","2018-10-24 20:14:48","302552"
"A1CYSGVB90E67S","cs_wg_mon_conf_time_pilot1","3COPXFW7XBDCY6K17O8PHX6FXWPKPU","13","0","JULY","8","JANUARY","2","0","2037",,,,,"1","2018-10-24 20:14:49","302553"
"A21XVZ0Q2DJKEN","cs_wg_mon_conf_time_pilot1","38SKSKU7R1YV1QFFFTU6N0II0I0LIN","83","0","APRIL","6","MARCH","2","1","495",,,,,"0","2018-10-24 20:14:49","302554"
"A30YR5TPOKQYXJ","cs_wg_mon_conf_time_pilot1","3I7DHKZYGN1XPAA4MY8E3E9TY085FS","127","0","JULY","12","MARCH","5","0","1088",,,,,"0","2018-10-24 20:14:49","302555"
"A2PTZ50APT1KT3","cs_wg_mon_conf_time_pilot1","3X65QVEQI0O4ONTFNJYKCXKNNDGCLC","100","0","SEPTEMBER","11","FEBRUARY","8","0","2199",,,,,"0","2018-10-24 20:14:50","302556"
"A2PC8T3FGQHGK5","cs_wg_mon_conf_time_pilot1","3907X2AHF06HHQGBII2LH1KLGW42PR","120","0","JANUARY","12","SEPTEMBER","6","0","1013",,,,,"0","2018-10-24 20:14:51","302557"
"AYGFIU5LDCXW4","cs_wg_mon_conf_time_pilot1","3X0H8UUIT1P06YUAOJVM0D5L7N5SWE","84","0","APRIL","4","DECEMBER","8","1","4629",,,,,"0","2018-10-24 20:14:51","302558"
"A30YR5TPOKQYXJ","cs_wg_mon_conf_time_pilot1","3I7DHKZYGN1XPAA4MY8E3E9TY085FS","128","0","APRIL","10","NOVEMBER","2","0","1297",,,,,"0","2018-10-24 20:14:52","302559"
"A1CYSGVB90E67S","cs_wg_mon_conf_time_pilot1","3COPXFW7XBDCY6K17O8PHX6FXWPKPU","14","0","APRIL","3","DECEMBER","7","1","1970",,,,,"1","2018-10-24 20:14:52","302560"
"A2PC8T3FGQHGK5","cs_wg_mon_conf_time_pilot1","3907X2AHF06HHQGBII2LH1KLGW42PR","121","0","SEPTEMBER","6","JULY","3","0","1072",,,,,"0","2018-10-24 20:14:53","302561"
"A2PTZ50APT1KT3","cs_wg_mon_conf_time_pilot1","3X65QVEQI0O4ONTFNJYKCXKNNDGCLC","101","0","AUGUST","5","NOVEMBER","12","1","2191",,,,,"0","2018-10-24 20:14:54","302562"
"AYGFIU5LDCXW4","cs_wg_mon_conf_time_pilot1","3X0H8UUIT1P06YUAOJVM0D5L7N5SWE","85","0","SEPTEMBER","12","JUNE","1","0","1060",,,,,"0","2018-10-24 20:14:54","302563"
"A21XVZ0Q2DJKEN","cs_wg_mon_conf_time_pilot1","38SKSKU7R1YV1QFFFTU6N0II0I0LIN","84","0","JANUARY","4","FEBRUARY","7","1","3760",,,,,"0","2018-10-24 20:14:55","302564"
"A30YR5TPOKQYXJ","cs_wg_mon_conf_time_pilot1","3I7DHKZYGN1XPAA4MY8E3E9TY085FS","129","0","JULY","12","NOVEMBER","2","0","1028",,,,,"0","2018-10-24 20:14:55","302565"
"A2PC8T3FGQHGK5","cs_wg_mon_conf_time_pilot1","3907X2AHF06HHQGBII2LH1KLGW42PR","122","0","NOVEMBER","7","JANUARY","12","1","1523",,,,,"0","2018-10-24 20:14:57","302566"
"A1CYSGVB90E67S","cs_wg_mon_conf_time_pilot1","3COPXFW7XBDCY6K17O8PHX6FXWPKPU","15","0","MAY","12","APRIL","3","0","2599",,,,,"1","2018-10-24 20:14:57","302567"
"A2PTZ50APT1KT3","cs_wg_mon_conf_time_pilot1","3X65QVEQI0O4ONTFNJYKCXKNNDGCLC","102","0","SEPTEMBER","11","APRIL","10","0","1386",,,,,"0","2018-10-24 20:14:57","302568"
"A21XVZ0Q2DJKEN","cs_wg_mon_conf_time_pilot1","38SKSKU7R1YV1QFFFTU6N0II0I0LIN","85","0","SEPTEMBER","1","NOVEMBER","5","0","679",,,,,"0","2018-10-24 20:14:58","302569"
"A30YR5TPOKQYXJ","cs_wg_mon_conf_time_pilot1","3I7DHKZYGN1XPAA4MY8E3E9TY085FS","130","0","JUNE","3","FEBRUARY","8","1","1304",,,,,"0","2018-10-24 20:14:58","302570"
"AYGFIU5LDCXW4","cs_wg_mon_conf_time_pilot1","3X0H8UUIT1P06YUAOJVM0D5L7N5SWE","86","0","FEBRUARY","2","DECEMBER","8","1","2790",,,,,"0","2018-10-24 20:14:59","302571"
"A2PC8T3FGQHGK5","cs_wg_mon_conf_time_pilot1","3907X2AHF06HHQGBII2LH1KLGW42PR","123","0","AUGUST","2","DECEMBER","10","1","972",,,,,"0","2018-10-24 20:14:59","302572"
"A21XVZ0Q2DJKEN","cs_wg_mon_conf_time_pilot1","38SKSKU7R1YV1QFFFTU6N0II0I0LIN","86","0","MARCH","2","JANUARY","4","1","496",,,,,"0","2018-10-24 20:15:00","302573"
"A1CYSGVB90E67S","cs_wg_mon_conf_time_pilot1","3COPXFW7XBDCY6K17O8PHX6FXWPKPU","16","0","SEPTEMBER","4","DECEMBER","7","1","1945",,,,,"1","2018-10-24 20:15:00","302574"
"A2PTZ50APT1KT3","cs_wg_mon_conf_time_pilot1","3X65QVEQI0O4ONTFNJYKCXKNNDGCLC","103","0","MARCH","3","MAY","1","0","2177",,,,,"0","2018-10-24 20:15:01","302575"
"AYGFIU5LDCXW4","cs_wg_mon_conf_time_pilot1","3X0H8UUIT1P06YUAOJVM0D5L7N5SWE","87","0","SEPTEMBER","12","NOVEMBER","9","0","1107",,,,,"0","2018-10-24 20:15:02","302576"
"A30YR5TPOKQYXJ","cs_wg_mon_conf_time_pilot1","3I7DHKZYGN1XPAA4MY8E3E9TY085FS","131","0","OCTOBER","6","APRIL","10","1","1333",,,,,"0","2018-10-24 20:15:02","302577"
"A21XVZ0Q2DJKEN","cs_wg_mon_conf_time_pilot1","38SKSKU7R1YV1QFFFTU6N0II0I0LIN","87","0","JULY","10","OCTOBER","12","1","631",,,,,"0","2018-10-24 20:15:03","302578"
"A2PC8T3FGQHGK5","cs_wg_mon_conf_time_pilot1","3907X2AHF06HHQGBII2LH1KLGW42PR","124","0","FEBRUARY","11","JUNE","1","0","1626",,,,,"0","2018-10-24 20:15:04","302579"
"A1CYSGVB90E67S","cs_wg_mon_conf_time_pilot1","3COPXFW7XBDCY6K17O8PHX6FXWPKPU","17","0","APRIL","3","SEPTEMBER","4","1","1668",,,,,"1","2018-10-24 20:15:04","302580"
"A21XVZ0Q2DJKEN","cs_wg_mon_conf_time_pilot1","38SKSKU7R1YV1QFFFTU6N0II0I0LIN","88","0","MAY","8","APRIL","6","1","958",,,,,"0","2018-10-24 20:15:05","302581"
"AZBY9DS8VTPUK","cs_wg_mon_conf_time_pilot1","3ZAZR5XV01JOTCAJ2KPTKCVL2MPZCJ","11","0","DECEMBER","9","MAY","11","1","3948",,,,,"1","2018-10-24 20:15:06","302582"
"AYGFIU5LDCXW4","cs_wg_mon_conf_time_pilot1","3X0H8UUIT1P06YUAOJVM0D5L7N5SWE","88","0","MARCH","10","AUGUST","5","1","2893",,,,,"0","2018-10-24 20:15:07","302583"
"A2PC8T3FGQHGK5","cs_wg_mon_conf_time_pilot1","3907X2AHF06HHQGBII2LH1KLGW42PR","125","0","OCTOBER","9","SEPTEMBER","6","0","2523",,,,,"0","2018-10-24 20:15:08","302584"
"A1CYSGVB90E67S","cs_wg_mon_conf_time_pilot1","3COPXFW7XBDCY6K17O8PHX6FXWPKPU","18","0","OCTOBER","6","FEBRUARY","5","0","2641",,,,,"1","2018-10-24 20:15:08","302585"
"A21XVZ0Q2DJKEN","cs_wg_mon_conf_time_pilot1","38SKSKU7R1YV1QFFFTU6N0II0I0LIN","89","0","MAY","8","DECEMBER","9","0","2910",,,,,"0","2018-10-24 20:15:10","302586"
"A2PC8T3FGQHGK5","cs_wg_mon_conf_time_pilot1","3907X2AHF06HHQGBII2LH1KLGW42PR","126","0","NOVEMBER","7","AUGUST","2","0","1968",,,,,"0","2018-10-24 20:15:11","302587"
"A1CYSGVB90E67S","cs_wg_mon_conf_time_pilot1","3COPXFW7XBDCY6K17O8PHX6FXWPKPU","19","0","MARCH","9","NOVEMBER","11","1","2542",,,,,"1","2018-10-24 20:15:12","302588"
"A21XVZ0Q2DJKEN","cs_wg_mon_conf_time_pilot1","38SKSKU7R1YV1QFFFTU6N0II0I0LIN","90","0","JUNE","3","MAY","8","1","774",,,,,"0","2018-10-24 20:15:13","302589"
"AYGFIU5LDCXW4","cs_wg_mon_conf_time_pilot1","3X0H8UUIT1P06YUAOJVM0D5L7N5SWE","89","0","NOVEMBER","9","JANUARY","7","1","4531",,,,,"0","2018-10-24 20:15:13","302590"
"A21XVZ0Q2DJKEN","cs_wg_mon_conf_time_pilot1","38SKSKU7R1YV1QFFFTU6N0II0I0LIN","91","0","OCTOBER","12","JANUARY","4","1","892",,,,,"0","2018-10-24 20:15:16","302591"
"A2PTZ50APT1KT3","cs_wg_mon_conf_time_pilot1","3X65QVEQI0O4ONTFNJYKCXKNNDGCLC","104","0","JANUARY","6","JULY","4","0","13961",,,,,"0","2018-10-24 20:15:16","302592"
"A1CYSGVB90E67S","cs_wg_mon_conf_time_pilot1","3COPXFW7XBDCY6K17O8PHX6FXWPKPU","20","0","OCTOBER","6","JUNE","1","0","2522",,,,,"1","2018-10-24 20:15:17","302593"
"A2PC8T3FGQHGK5","cs_wg_mon_conf_time_pilot1","3907X2AHF06HHQGBII2LH1KLGW42PR","127","0","OCTOBER","9","NOVEMBER","7","0","4137",,,,,"0","2018-10-24 20:15:17","302594"
"AYGFIU5LDCXW4","cs_wg_mon_conf_time_pilot1","3X0H8UUIT1P06YUAOJVM0D5L7N5SWE","90","0","APRIL","4","JUNE","1","0","2837",,,,,"0","2018-10-24 20:15:18","302595"
"A1CYSGVB90E67S","cs_wg_mon_conf_time_pilot1","3COPXFW7XBDCY6K17O8PHX6FXWPKPU","21","0","MARCH","9","SEPTEMBER","4","0","1525",,,,,"1","2018-10-24 20:15:20","302596"
"A21XVZ0Q2DJKEN","cs_wg_mon_conf_time_pilot1","38SKSKU7R1YV1QFFFTU6N0II0I0LIN","92","0","JUNE","3","JULY","10","0","3919",,,,,"0","2018-10-24 20:15:21","302597"
"A2PC8T3FGQHGK5","cs_wg_mon_conf_time_pilot1","3907X2AHF06HHQGBII2LH1KLGW42PR","128","0","SEPTEMBER","6","JUNE","1","0","2874",,,,,"0","2018-10-24 20:15:22","302598"
"AYGFIU5LDCXW4","cs_wg_mon_conf_time_pilot1","3X0H8UUIT1P06YUAOJVM0D5L7N5SWE","91","0","JANUARY","7","SEPTEMBER","12","1","2275",,,,,"0","2018-10-24 20:15:22","302599"
"A1CYSGVB90E67S","cs_wg_mon_conf_time_pilot1","3COPXFW7XBDCY6K17O8PHX6FXWPKPU","22","0","AUGUST","10","SEPTEMBER","4","0","1416",,,,,"1","2018-10-24 20:15:23","302600"
"A21XVZ0Q2DJKEN","cs_wg_mon_conf_time_pilot1","38SKSKU7R1YV1QFFFTU6N0II0I0LIN","93","0","JUNE","3","APRIL","6","1","991",,,,,"0","2018-10-24 20:15:24","302601"
"AYGFIU5LDCXW4","cs_wg_mon_conf_time_pilot1","3X0H8UUIT1P06YUAOJVM0D5L7N5SWE","92","0","AUGUST","5","SEPTEMBER","12","1","1963",,,,,"0","2018-10-24 20:15:26","302602"
"A2PC8T3FGQHGK5","cs_wg_mon_conf_time_pilot1","3907X2AHF06HHQGBII2LH1KLGW42PR","129","0","DECEMBER","10","NOVEMBER","7","1","2496",,,,,"0","2018-10-24 20:15:26","302603"
"A1CYSGVB90E67S","cs_wg_mon_conf_time_pilot1","3COPXFW7XBDCY6K17O8PHX6FXWPKPU","23","0","JULY","8","SEPTEMBER","4","0","1831",,,,,"1","2018-10-24 20:15:27","302604"
"A21XVZ0Q2DJKEN","cs_wg_mon_conf_time_pilot1","38SKSKU7R1YV1QFFFTU6N0II0I0LIN","94","0","MAY","8","FEBRUARY","7","1","646",,,,,"0","2018-10-24 20:15:28","302605"
"A2PTZ50APT1KT3","cs_wg_mon_conf_time_pilot1","3X65QVEQI0O4ONTFNJYKCXKNNDGCLC","105","0","NOVEMBER","12","JULY","4","0","10904",,,,,"0","2018-10-24 20:15:29","302606"
"A2PC8T3FGQHGK5","cs_wg_mon_conf_time_pilot1","3907X2AHF06HHQGBII2LH1KLGW42PR","130","0","APRIL","8","MARCH","5","0","1939",,,,,"0","2018-10-24 20:15:30","302607"
"AZBY9DS8VTPUK","cs_wg_mon_conf_time_pilot1","3ZAZR5XV01JOTCAJ2KPTKCVL2MPZCJ","12","0","SEPTEMBER","3","APRIL","2","0","22198",,,,,"1","2018-10-24 20:15:30","302608"
"AYGFIU5LDCXW4","cs_wg_mon_conf_time_pilot1","3X0H8UUIT1P06YUAOJVM0D5L7N5SWE","93","0","DECEMBER","8","JUNE","1","0","2450",,,,,"0","2018-10-24 20:15:30","302609"
"A1CYSGVB90E67S","cs_wg_mon_conf_time_pilot1","3COPXFW7XBDCY6K17O8PHX6FXWPKPU","24","0","SEPTEMBER","4","NOVEMBER","11","1","2784",,,,,"1","2018-10-24 20:15:31","302610"
"A21XVZ0Q2DJKEN","cs_wg_mon_conf_time_pilot1","38SKSKU7R1YV1QFFFTU6N0II0I0LIN","95","0","DECEMBER","9","APRIL","6","1","879",,,,,"0","2018-10-24 20:15:31","302611"
"A2PTZ50APT1KT3","cs_wg_mon_conf_time_pilot1","3X65QVEQI0O4ONTFNJYKCXKNNDGCLC","106","0","OCTOBER","9","JUNE","2","0","1632",,,,,"0","2018-10-24 20:15:32","302612"
"A2PC8T3FGQHGK5","cs_wg_mon_conf_time_pilot1","3907X2AHF06HHQGBII2LH1KLGW42PR","131","0","DECEMBER","10","SEPTEMBER","6","0","1778",,,,,"0","2018-10-24 20:15:34","302613"
"A21XVZ0Q2DJKEN","cs_wg_mon_conf_time_pilot1","38SKSKU7R1YV1QFFFTU6N0II0I0LIN","96","0","JANUARY","4","JULY","10","1","750",,,,,"0","2018-10-24 20:15:34","302614"
"A2PTZ50APT1KT3","cs_wg_mon_conf_time_pilot1","3X65QVEQI0O4ONTFNJYKCXKNNDGCLC","107","0","APRIL","10","JUNE","2","0","934",,,,,"0","2018-10-24 20:15:34","302615"
"AYGFIU5LDCXW4","cs_wg_mon_conf_time_pilot1","3X0H8UUIT1P06YUAOJVM0D5L7N5SWE","94","0","SEPTEMBER","12","MAY","11","1","1820",,,,,"0","2018-10-24 20:15:34","302616"
"A1CYSGVB90E67S","cs_wg_mon_conf_time_pilot1","3COPXFW7XBDCY6K17O8PHX6FXWPKPU","25","0","JUNE","1","APRIL","3","1","1886",,,,,"1","2018-10-24 20:15:35","302617"
"A21XVZ0Q2DJKEN","cs_wg_mon_conf_time_pilot1","38SKSKU7R1YV1QFFFTU6N0II0I0LIN","97","0","MAY","8","JULY","10","0","558",,,,,"0","2018-10-24 20:15:36","302618"
