"subject","version","assignmentId","trial","trial_type","word","value","alt","value2","choice","rt","resp","resp2","resp3","resp4","used_hint","stamp","id"
"A2E3LKD3ELOED6","cs_wg_rev_conf_v2_pilot1","3JRJSWSMQHM25HN4D40F6ZQ91UQ3EH","0","0","TOMATO","7","HOCKEY","15","1","4753",,,,,"0","2018-10-04 20:22:23","263741"
"A2E3LKD3ELOED6","cs_wg_rev_conf_v2_pilot1","3JRJSWSMQHM25HN4D40F6ZQ91UQ3EH","1","0","HOCKEY","15","TOMATO","7","0","2013",,,,,"0","2018-10-04 20:22:28","263742"
"A2E3LKD3ELOED6","cs_wg_rev_conf_v2_pilot1","3JRJSWSMQHM25HN4D40F6ZQ91UQ3EH","2","0","TOMATO","7","BAKER","1","1","4475",,,,,"0","2018-10-04 20:22:37","263743"
"A2E3LKD3ELOED6","cs_wg_rev_conf_v2_pilot1","3JRJSWSMQHM25HN4D40F6ZQ91UQ3EH","3","0","HOCKEY","15","ADULT","8","0","2978",,,,,"0","2018-10-04 20:22:44","263744"
"A2E3LKD3ELOED6","cs_wg_rev_conf_v2_pilot1","3JRJSWSMQHM25HN4D40F6ZQ91UQ3EH","4","0","BAKER","1","HOCKEY","15","1","2537",,,,,"0","2018-10-04 20:22:49","263745"
"A2E3LKD3ELOED6","cs_wg_rev_conf_v2_pilot1","3JRJSWSMQHM25HN4D40F6ZQ91UQ3EH","5","0","NAPKIN","8","ADULT","8","0","4048",,,,,"0","2018-10-04 20:22:56","263746"
"A2E3LKD3ELOED6","cs_wg_rev_conf_v2_pilot1","3JRJSWSMQHM25HN4D40F6ZQ91UQ3EH","6","0","BAKER","1","ADULT","8","1","2301",,,,,"0","2018-10-04 20:23:02","263747"
"A2E3LKD3ELOED6","cs_wg_rev_conf_v2_pilot1","3JRJSWSMQHM25HN4D40F6ZQ91UQ3EH","7","0","HOCKEY","15","TOMATO","7","0","869",,,,,"0","2018-10-04 20:23:05","263748"
"A2E3LKD3ELOED6","cs_wg_rev_conf_v2_pilot1","3JRJSWSMQHM25HN4D40F6ZQ91UQ3EH","8","0","NAPKIN","8","ADULT","8","1","3099",,,,,"0","2018-10-04 20:23:11","263749"
"A2E3LKD3ELOED6","cs_wg_rev_conf_v2_pilot1","3JRJSWSMQHM25HN4D40F6ZQ91UQ3EH","9","0","ADULT","8","NAPKIN","8","0","1750",,,,,"0","2018-10-04 20:23:14","263750"
"A2E3LKD3ELOED6","cs_wg_rev_conf_v2_pilot1","3JRJSWSMQHM25HN4D40F6ZQ91UQ3EH","10","0","TOMATO","7","NAPKIN","8","1","2497",,,,,"0","2018-10-04 20:23:20","263751"
"A2E3LKD3ELOED6","cs_wg_rev_conf_v2_pilot1","3JRJSWSMQHM25HN4D40F6ZQ91UQ3EH","11","0","TOMATO","7","ADULT","8","1","2650",,,,,"0","2018-10-04 20:23:25","263752"
"A2E3LKD3ELOED6","cs_wg_rev_conf_v2_pilot1","3JRJSWSMQHM25HN4D40F6ZQ91UQ3EH","12","0","BAKER","1","NAPKIN","8","1","2061",,,,,"0","2018-10-04 20:23:29","263753"
"A2E3LKD3ELOED6","cs_wg_rev_conf_v2_pilot1","3JRJSWSMQHM25HN4D40F6ZQ91UQ3EH","13","0","NAPKIN","8","BAKER","1","0","1619",,,,,"0","2018-10-04 20:23:33","263754"
"A2E3LKD3ELOED6","cs_wg_rev_conf_v2_pilot1","3JRJSWSMQHM25HN4D40F6ZQ91UQ3EH","14","0","TOMATO","7","HOCKEY","15","1","846",,,,,"0","2018-10-04 20:23:38","263755"
"A2E3LKD3ELOED6","cs_wg_rev_conf_v2_pilot1","3JRJSWSMQHM25HN4D40F6ZQ91UQ3EH","15","0","ADULT","8","HOCKEY","15","1","1335",,,,,"0","2018-10-04 20:23:40","263756"
"A2E3LKD3ELOED6","cs_wg_rev_conf_v2_pilot1","3JRJSWSMQHM25HN4D40F6ZQ91UQ3EH","16","0","HOCKEY","15","BAKER","1","0","720",,,,,"0","2018-10-04 20:23:42","263757"
"A2E3LKD3ELOED6","cs_wg_rev_conf_v2_pilot1","3JRJSWSMQHM25HN4D40F6ZQ91UQ3EH","17","0","NAPKIN","8","TOMATO","7","0","1746",,,,,"0","2018-10-04 20:23:46","263758"
"A2E3LKD3ELOED6","cs_wg_rev_conf_v2_pilot1","3JRJSWSMQHM25HN4D40F6ZQ91UQ3EH","18","0","NAPKIN","8","ADULT","8","1","2616",,,,,"0","2018-10-04 20:23:52","263759"
"A2E3LKD3ELOED6","cs_wg_rev_conf_v2_pilot1","3JRJSWSMQHM25HN4D40F6ZQ91UQ3EH","19","0","BAKER","1","TOMATO","7","1","1034",,,,,"0","2018-10-04 20:23:55","263760"
"A2E3LKD3ELOED6","cs_wg_rev_conf_v2_pilot1","3JRJSWSMQHM25HN4D40F6ZQ91UQ3EH","20","0","NAPKIN","8","HOCKEY","15","1","908",,,,,"0","2018-10-04 20:23:58","263761"
"A2E3LKD3ELOED6","cs_wg_rev_conf_v2_pilot1","3JRJSWSMQHM25HN4D40F6ZQ91UQ3EH","21","0","TOMATO","7","BAKER","1","0","1169",,,,,"0","2018-10-04 20:24:01","263762"
"A2E3LKD3ELOED6","cs_wg_rev_conf_v2_pilot1","3JRJSWSMQHM25HN4D40F6ZQ91UQ3EH","22","0","BAKER","1","NAPKIN","8","1","1211",,,,,"0","2018-10-04 20:24:05","263763"
"A2E3LKD3ELOED6","cs_wg_rev_conf_v2_pilot1","3JRJSWSMQHM25HN4D40F6ZQ91UQ3EH","23","0","BAKER","1","ADULT","8","1","1129",,,,,"0","2018-10-04 20:24:08","263764"
"A2E3LKD3ELOED6","cs_wg_rev_conf_v2_pilot1","3JRJSWSMQHM25HN4D40F6ZQ91UQ3EH","24","0","BAKER","1","TOMATO","7","1","1189",,,,,"0","2018-10-04 20:24:11","263765"
"A2E3LKD3ELOED6","cs_wg_rev_conf_v2_pilot1","3JRJSWSMQHM25HN4D40F6ZQ91UQ3EH","25","0","TOMATO","7","BAKER","1","0","1428",,,,,"0","2018-10-04 20:24:15","263766"
"A2E3LKD3ELOED6","cs_wg_rev_conf_v2_pilot1","3JRJSWSMQHM25HN4D40F6ZQ91UQ3EH","26","0","NAPKIN","8","HOCKEY","15","1","948",,,,,"0","2018-10-04 20:24:18","263767"
"A2E3LKD3ELOED6","cs_wg_rev_conf_v2_pilot1","3JRJSWSMQHM25HN4D40F6ZQ91UQ3EH","27","0","ADULT","8","HOCKEY","15","1","1980",,,,,"0","2018-10-04 20:24:23","263768"
"A2E3LKD3ELOED6","cs_wg_rev_conf_v2_pilot1","3JRJSWSMQHM25HN4D40F6ZQ91UQ3EH","28","0","ADULT","8","BAKER","1","0","1393",,,,,"0","2018-10-04 20:24:28","263769"
"A2E3LKD3ELOED6","cs_wg_rev_conf_v2_pilot1","3JRJSWSMQHM25HN4D40F6ZQ91UQ3EH","29","0","BAKER","1","HOCKEY","15","1","740",,,,,"0","2018-10-04 20:24:31","263770"
"A2E3LKD3ELOED6","cs_wg_rev_conf_v2_pilot1","3JRJSWSMQHM25HN4D40F6ZQ91UQ3EH","30","0","TOMATO","7","ADULT","8","1","1878",,,,,"0","2018-10-04 20:24:35","263771"
"A2E3LKD3ELOED6","cs_wg_rev_conf_v2_pilot1","3JRJSWSMQHM25HN4D40F6ZQ91UQ3EH","31","0","TOMATO","7","NAPKIN","8","1","2852",,,,,"0","2018-10-04 20:24:40","263772"
"A2E3LKD3ELOED6","cs_wg_rev_conf_v2_pilot1","3JRJSWSMQHM25HN4D40F6ZQ91UQ3EH","32","0","HOCKEY","15","BAKER","1","0","851",,,,,"0","2018-10-04 20:24:44","263773"
"A2E3LKD3ELOED6","cs_wg_rev_conf_v2_pilot1","3JRJSWSMQHM25HN4D40F6ZQ91UQ3EH","33","0","NAPKIN","8","BAKER","1","0","1550",,,,,"0","2018-10-04 20:24:48","263774"
"A2E3LKD3ELOED6","cs_wg_rev_conf_v2_pilot1","3JRJSWSMQHM25HN4D40F6ZQ91UQ3EH","34","0","NAPKIN","8","TOMATO","7","0","2634",,,,,"0","2018-10-04 20:24:52","263775"
"A2E3LKD3ELOED6","cs_wg_rev_conf_v2_pilot1","3JRJSWSMQHM25HN4D40F6ZQ91UQ3EH","35","0","ADULT","8","TOMATO","7","0","2681",,,,,"0","2018-10-04 20:24:58","263776"
"A2E3LKD3ELOED6","cs_wg_rev_conf_v2_pilot1","3JRJSWSMQHM25HN4D40F6ZQ91UQ3EH","36","0","NAPKIN","8","TOMATO","7","0","10830",,,,,"0","2018-10-04 20:25:11","263777"
"A2E3LKD3ELOED6","cs_wg_rev_conf_v2_pilot1","3JRJSWSMQHM25HN4D40F6ZQ91UQ3EH","37","0","HOCKEY","15","NAPKIN","8","0","698",,,,,"0","2018-10-04 20:25:14","263778"
"A2E3LKD3ELOED6","cs_wg_rev_conf_v2_pilot1","3JRJSWSMQHM25HN4D40F6ZQ91UQ3EH","38","0","NAPKIN","8","HOCKEY","15","1","1022",,,,,"0","2018-10-04 20:25:17","263779"
"A2E3LKD3ELOED6","cs_wg_rev_conf_v2_pilot1","3JRJSWSMQHM25HN4D40F6ZQ91UQ3EH","39","0","ADULT","8","BAKER","1","0","1155",,,,,"0","2018-10-04 20:25:21","263780"
"A2E3LKD3ELOED6","cs_wg_rev_conf_v2_pilot1","3JRJSWSMQHM25HN4D40F6ZQ91UQ3EH","40","0","ADULT","8","HOCKEY","15","1","1007",,,,,"0","2018-10-04 20:25:24","263781"
"A2E3LKD3ELOED6","cs_wg_rev_conf_v2_pilot1","3JRJSWSMQHM25HN4D40F6ZQ91UQ3EH","41","0","ADULT","8","NAPKIN","8","0","1594",,,,,"0","2018-10-04 20:25:27","263782"
"A2E3LKD3ELOED6","cs_wg_rev_conf_v2_pilot1","3JRJSWSMQHM25HN4D40F6ZQ91UQ3EH","42","0","ADULT","8","NAPKIN","8","0","992",,,,,"0","2018-10-04 20:25:31","263783"
"A2E3LKD3ELOED6","cs_wg_rev_conf_v2_pilot1","3JRJSWSMQHM25HN4D40F6ZQ91UQ3EH","43","0","HOCKEY","15","TOMATO","7","0","712",,,,,"0","2018-10-04 20:25:34","263784"
"A2E3LKD3ELOED6","cs_wg_rev_conf_v2_pilot1","3JRJSWSMQHM25HN4D40F6ZQ91UQ3EH","44","0","TOMATO","7","ADULT","8","1","1368",,,,,"0","2018-10-04 20:25:37","263785"
"A2E3LKD3ELOED6","cs_wg_rev_conf_v2_pilot1","3JRJSWSMQHM25HN4D40F6ZQ91UQ3EH","45","0","BAKER","1","HOCKEY","15","1","1186",,,,,"0","2018-10-04 20:25:40","263786"
"A2E3LKD3ELOED6","cs_wg_rev_conf_v2_pilot1","3JRJSWSMQHM25HN4D40F6ZQ91UQ3EH","46","0","HOCKEY","15","BAKER","1","0","986",,,,,"0","2018-10-04 20:25:44","263787"
"A2E3LKD3ELOED6","cs_wg_rev_conf_v2_pilot1","3JRJSWSMQHM25HN4D40F6ZQ91UQ3EH","47","0","BAKER","1","TOMATO","7","1","1758",,,,,"0","2018-10-04 20:25:48","263788"
"A2E3LKD3ELOED6","cs_wg_rev_conf_v2_pilot1","3JRJSWSMQHM25HN4D40F6ZQ91UQ3EH","48","0","TOMATO","7","NAPKIN","8","1","2032",,,,,"0","2018-10-04 20:25:52","263789"
"A2E3LKD3ELOED6","cs_wg_rev_conf_v2_pilot1","3JRJSWSMQHM25HN4D40F6ZQ91UQ3EH","49","0","ADULT","8","TOMATO","7","0","1857",,,,,"0","2018-10-04 20:25:56","263790"
"A2E3LKD3ELOED6","cs_wg_rev_conf_v2_pilot1","3JRJSWSMQHM25HN4D40F6ZQ91UQ3EH","50","0","HOCKEY","15","ADULT","8","0","740",,,,,"0","2018-10-04 20:25:59","263791"
"A2E3LKD3ELOED6","cs_wg_rev_conf_v2_pilot1","3JRJSWSMQHM25HN4D40F6ZQ91UQ3EH","51","0","NAPKIN","8","BAKER","1","0","949",,,,,"0","2018-10-04 20:26:02","263792"
"A2E3LKD3ELOED6","cs_wg_rev_conf_v2_pilot1","3JRJSWSMQHM25HN4D40F6ZQ91UQ3EH","52","0","BAKER","1","NAPKIN","8","1","1883",,,,,"0","2018-10-04 20:26:06","263793"
"A2E3LKD3ELOED6","cs_wg_rev_conf_v2_pilot1","3JRJSWSMQHM25HN4D40F6ZQ91UQ3EH","53","0","TOMATO","7","HOCKEY","15","1","1182",,,,,"0","2018-10-04 20:26:10","263794"
"A2E3LKD3ELOED6","cs_wg_rev_conf_v2_pilot1","3JRJSWSMQHM25HN4D40F6ZQ91UQ3EH","54","0","BAKER","1","ADULT","8","1","1529",,,,,"0","2018-10-04 20:26:14","263795"
"A2E3LKD3ELOED6","cs_wg_rev_conf_v2_pilot1","3JRJSWSMQHM25HN4D40F6ZQ91UQ3EH","55","0","ADULT","8","BAKER","1","0","1386",,,,,"0","2018-10-04 20:26:17","263796"
"A2E3LKD3ELOED6","cs_wg_rev_conf_v2_pilot1","3JRJSWSMQHM25HN4D40F6ZQ91UQ3EH","56","0","ADULT","8","TOMATO","7","0","1241",,,,,"0","2018-10-04 20:26:21","263797"
"A2E3LKD3ELOED6","cs_wg_rev_conf_v2_pilot1","3JRJSWSMQHM25HN4D40F6ZQ91UQ3EH","57","0","HOCKEY","15","NAPKIN","8","0","1038",,,,,"0","2018-10-04 20:26:24","263798"
"A2E3LKD3ELOED6","cs_wg_rev_conf_v2_pilot1","3JRJSWSMQHM25HN4D40F6ZQ91UQ3EH","58","0","HOCKEY","15","NAPKIN","8","0","977",,,,,"0","2018-10-04 20:26:28","263799"
"A2E3LKD3ELOED6","cs_wg_rev_conf_v2_pilot1","3JRJSWSMQHM25HN4D40F6ZQ91UQ3EH","59","0","HOCKEY","15","ADULT","8","0","630",,,,,"0","2018-10-04 20:26:30","263800"
"A1W90OQ8WBLGUI","cs_wg_rev_conf_v2_pilot1","3Z3ZLGNNSIVR2KD9MVVF0GFNKXE3QT","0","0","BANANA","10","PELICAN","7","0","12192",,,,,"1","2018-10-04 20:26:35","263801"
"A1W90OQ8WBLGUI","cs_wg_rev_conf_v2_pilot1","3Z3ZLGNNSIVR2KD9MVVF0GFNKXE3QT","1","0","VOLCANO","7","ROCKET","8","1","7144",,,,,"1","2018-10-04 20:26:46","263802"
"A1W90OQ8WBLGUI","cs_wg_rev_conf_v2_pilot1","3Z3ZLGNNSIVR2KD9MVVF0GFNKXE3QT","2","0","PUMPKIN","1","ROCKET","8","1","6275",,,,,"1","2018-10-04 20:26:56","263803"
"A1W90OQ8WBLGUI","cs_wg_rev_conf_v2_pilot1","3Z3ZLGNNSIVR2KD9MVVF0GFNKXE3QT","3","0","PELICAN","7","SKUNK","8","1","6913",,,,,"1","2018-10-04 20:27:06","263804"
"A1W90OQ8WBLGUI","cs_wg_rev_conf_v2_pilot1","3Z3ZLGNNSIVR2KD9MVVF0GFNKXE3QT","4","0","AVOCADO","9","PELICAN","7","0","5848",,,,,"1","2018-10-04 20:27:16","263805"
"A1W90OQ8WBLGUI","cs_wg_rev_conf_v2_pilot1","3Z3ZLGNNSIVR2KD9MVVF0GFNKXE3QT","5","0","SKUNK","8","AVOCADO","9","1","6542",,,,,"1","2018-10-04 20:27:25","263806"
"A1W90OQ8WBLGUI","cs_wg_rev_conf_v2_pilot1","3Z3ZLGNNSIVR2KD9MVVF0GFNKXE3QT","6","0","PALACE","6","ROCKET","8","1","5622",,,,,"1","2018-10-04 20:27:33","263807"
"A1W90OQ8WBLGUI","cs_wg_rev_conf_v2_pilot1","3Z3ZLGNNSIVR2KD9MVVF0GFNKXE3QT","7","0","PELICAN","7","VOLCANO","7","1","6526",,,,,"1","2018-10-04 20:27:43","263808"
"A1W90OQ8WBLGUI","cs_wg_rev_conf_v2_pilot1","3Z3ZLGNNSIVR2KD9MVVF0GFNKXE3QT","8","0","BANANA","10","LIZARD","9","0","4910",,,,,"1","2018-10-04 20:27:50","263809"
"A1W90OQ8WBLGUI","cs_wg_rev_conf_v2_pilot1","3Z3ZLGNNSIVR2KD9MVVF0GFNKXE3QT","9","0","VOLCANO","7","AIRBAG","10","1","4575",,,,,"1","2018-10-04 20:27:58","263810"
"A1W90OQ8WBLGUI","cs_wg_rev_conf_v2_pilot1","3Z3ZLGNNSIVR2KD9MVVF0GFNKXE3QT","10","0","BANANA","10","BICYCLE","6","0","4373",,,,,"1","2018-10-04 20:28:06","263811"
"A1W90OQ8WBLGUI","cs_wg_rev_conf_v2_pilot1","3Z3ZLGNNSIVR2KD9MVVF0GFNKXE3QT","11","0","ROCKET","8","LIZARD","9","1","4330",,,,,"1","2018-10-04 20:28:13","263812"
"A1W90OQ8WBLGUI","cs_wg_rev_conf_v2_pilot1","3Z3ZLGNNSIVR2KD9MVVF0GFNKXE3QT","12","0","BICYCLE","6","HOCKEY","15","1","5112",,,,,"1","2018-10-04 20:28:21","263813"
"A2653BIPJKEMRK","cs_wg_rev_conf_v2_pilot1","3TPWUS5F892KZH5ERX5ML813EB8CW4","0","0","WIZARD","7","BLOUSE","8","1","12868",,,,,"1","2018-10-04 20:28:28","263814"
"A1W90OQ8WBLGUI","cs_wg_rev_conf_v2_pilot1","3Z3ZLGNNSIVR2KD9MVVF0GFNKXE3QT","13","0","AVOCADO","9","LIZARD","9","0","4597",,,,,"1","2018-10-04 20:28:29","263815"
"A1W90OQ8WBLGUI","cs_wg_rev_conf_v2_pilot1","3Z3ZLGNNSIVR2KD9MVVF0GFNKXE3QT","14","0","BICYCLE","6","PELICAN","7","1","4865",,,,,"1","2018-10-04 20:28:37","263816"
"A1W90OQ8WBLGUI","cs_wg_rev_conf_v2_pilot1","3Z3ZLGNNSIVR2KD9MVVF0GFNKXE3QT","15","0","BANANA","10","SKUNK","8","0","3447",,,,,"1","2018-10-04 20:28:43","263817"
"A1W90OQ8WBLGUI","cs_wg_rev_conf_v2_pilot1","3Z3ZLGNNSIVR2KD9MVVF0GFNKXE3QT","16","0","BICYCLE","6","VOLCANO","7","1","4289",,,,,"1","2018-10-04 20:28:50","263818"
"A2653BIPJKEMRK","cs_wg_rev_conf_v2_pilot1","3TPWUS5F892KZH5ERX5ML813EB8CW4","1","0","BASKET","15","VOLCANO","6","0","18754",,,,,"1","2018-10-04 20:28:50","263819"
"A1W90OQ8WBLGUI","cs_wg_rev_conf_v2_pilot1","3Z3ZLGNNSIVR2KD9MVVF0GFNKXE3QT","17","0","SKUNK","8","PELICAN","7","0","3706",,,,,"1","2018-10-04 20:28:57","263820"
"A1W90OQ8WBLGUI","cs_wg_rev_conf_v2_pilot1","3Z3ZLGNNSIVR2KD9MVVF0GFNKXE3QT","18","0","PALACE","6","SKUNK","8","1","3760",,,,,"1","2018-10-04 20:29:03","263821"
"A2653BIPJKEMRK","cs_wg_rev_conf_v2_pilot1","3TPWUS5F892KZH5ERX5ML813EB8CW4","2","0","VOLCANO","6","COWBOY","6","0","15947",,,,,"1","2018-10-04 20:29:09","263822"
"A1W90OQ8WBLGUI","cs_wg_rev_conf_v2_pilot1","3Z3ZLGNNSIVR2KD9MVVF0GFNKXE3QT","19","0","LIZARD","9","ROCKET","8","0","4609",,,,,"1","2018-10-04 20:29:11","263823"
"A2653BIPJKEMRK","cs_wg_rev_conf_v2_pilot1","3TPWUS5F892KZH5ERX5ML813EB8CW4","3","0","VOLCANO","6","WIZARD","7","1","3934",,,,,"1","2018-10-04 20:29:15","263824"
"A1W90OQ8WBLGUI","cs_wg_rev_conf_v2_pilot1","3Z3ZLGNNSIVR2KD9MVVF0GFNKXE3QT","20","0","AIRBAG","10","PELICAN","7","0","2925",,,,,"1","2018-10-04 20:29:17","263825"
"A1W90OQ8WBLGUI","cs_wg_rev_conf_v2_pilot1","3Z3ZLGNNSIVR2KD9MVVF0GFNKXE3QT","21","0","AVOCADO","9","VOLCANO","7","0","3616",,,,,"1","2018-10-04 20:29:24","263826"
"A1W90OQ8WBLGUI","cs_wg_rev_conf_v2_pilot1","3Z3ZLGNNSIVR2KD9MVVF0GFNKXE3QT","22","0","BANANA","10","VOLCANO","7","0","2678",,,,,"1","2018-10-04 20:29:30","263827"
"A2653BIPJKEMRK","cs_wg_rev_conf_v2_pilot1","3TPWUS5F892KZH5ERX5ML813EB8CW4","4","0","CANCER","9","COWBOY","6","0","8634",,,,,"1","2018-10-04 20:29:31","263828"
"A1W90OQ8WBLGUI","cs_wg_rev_conf_v2_pilot1","3Z3ZLGNNSIVR2KD9MVVF0GFNKXE3QT","23","0","PUMPKIN","1","AVOCADO","9","0","1112",,,,,"0","2018-10-04 20:29:35","263829"
"A1W90OQ8WBLGUI","cs_wg_rev_conf_v2_pilot1","3Z3ZLGNNSIVR2KD9MVVF0GFNKXE3QT","24","0","BANANA","10","PUMPKIN","1","0","3409",,,,,"1","2018-10-04 20:29:42","263830"
"A2653BIPJKEMRK","cs_wg_rev_conf_v2_pilot1","3TPWUS5F892KZH5ERX5ML813EB8CW4","5","0","AVOCADO","10","CANCER","9","0","3978",,,,,"1","2018-10-04 20:29:43","263831"
"A1W90OQ8WBLGUI","cs_wg_rev_conf_v2_pilot1","3Z3ZLGNNSIVR2KD9MVVF0GFNKXE3QT","25","0","ROCKET","8","HOCKEY","15","1","3492",,,,,"1","2018-10-04 20:29:48","263832"
"A2653BIPJKEMRK","cs_wg_rev_conf_v2_pilot1","3TPWUS5F892KZH5ERX5ML813EB8CW4","6","0","AVOCADO","10","BICYCLE","10","0","4251",,,,,"1","2018-10-04 20:29:50","263833"
"A1W90OQ8WBLGUI","cs_wg_rev_conf_v2_pilot1","3Z3ZLGNNSIVR2KD9MVVF0GFNKXE3QT","26","0","VOLCANO","7","PALACE","6","0","3968",,,,,"1","2018-10-04 20:29:56","263834"
"A1W90OQ8WBLGUI","cs_wg_rev_conf_v2_pilot1","3Z3ZLGNNSIVR2KD9MVVF0GFNKXE3QT","27","0","ROCKET","8","AIRBAG","10","1","3708",,,,,"1","2018-10-04 20:30:02","263835"
"A2653BIPJKEMRK","cs_wg_rev_conf_v2_pilot1","3TPWUS5F892KZH5ERX5ML813EB8CW4","7","0","GRENADE","9","COWBOY","6","0","9841",,,,,"1","2018-10-04 20:30:08","263836"
"A1W90OQ8WBLGUI","cs_wg_rev_conf_v2_pilot1","3Z3ZLGNNSIVR2KD9MVVF0GFNKXE3QT","28","0","SKUNK","8","HOCKEY","15","1","3354",,,,,"1","2018-10-04 20:30:08","263837"
"A1W90OQ8WBLGUI","cs_wg_rev_conf_v2_pilot1","3Z3ZLGNNSIVR2KD9MVVF0GFNKXE3QT","29","0","AVOCADO","9","PUMPKIN","1","0","6065",,,,,"1","2018-10-04 20:30:17","263838"
"A2653BIPJKEMRK","cs_wg_rev_conf_v2_pilot1","3TPWUS5F892KZH5ERX5ML813EB8CW4","8","0","NAPKIN","1","AVOCADO","10","1","9305",,,,,"1","2018-10-04 20:30:19","263839"
"A1W90OQ8WBLGUI","cs_wg_rev_conf_v2_pilot1","3Z3ZLGNNSIVR2KD9MVVF0GFNKXE3QT","30","0","PELICAN","7","ROCKET","8","1","4304",,,,,"1","2018-10-04 20:30:24","263840"
"A2653BIPJKEMRK","cs_wg_rev_conf_v2_pilot1","3TPWUS5F892KZH5ERX5ML813EB8CW4","9","0","WIZARD","7","AVOCADO","10","1","4744",,,,,"1","2018-10-04 20:30:27","263841"
"A1W90OQ8WBLGUI","cs_wg_rev_conf_v2_pilot1","3Z3ZLGNNSIVR2KD9MVVF0GFNKXE3QT","31","0","BICYCLE","6","ROCKET","8","1","4099",,,,,"1","2018-10-04 20:30:31","263842"
"A1W90OQ8WBLGUI","cs_wg_rev_conf_v2_pilot1","3Z3ZLGNNSIVR2KD9MVVF0GFNKXE3QT","32","0","ROCKET","8","SKUNK","8","0","3408",,,,,"1","2018-10-04 20:30:38","263843"
"A2653BIPJKEMRK","cs_wg_rev_conf_v2_pilot1","3TPWUS5F892KZH5ERX5ML813EB8CW4","10","0","CRICKET","8","BICYCLE","10","1","4901",,,,,"1","2018-10-04 20:30:43","263844"
"A1W90OQ8WBLGUI","cs_wg_rev_conf_v2_pilot1","3Z3ZLGNNSIVR2KD9MVVF0GFNKXE3QT","33","0","SKUNK","8","AIRBAG","10","1","5347",,,,,"1","2018-10-04 20:30:45","263845"
"A2653BIPJKEMRK","cs_wg_rev_conf_v2_pilot1","3TPWUS5F892KZH5ERX5ML813EB8CW4","11","0","NAPKIN","1","BICYCLE","10","1","2878",,,,,"0","2018-10-04 20:30:47","263846"
"A2653BIPJKEMRK","cs_wg_rev_conf_v2_pilot1","3TPWUS5F892KZH5ERX5ML813EB8CW4","12","0","VOLCANO","6","NAPKIN","1","0","2131",,,,,"0","2018-10-04 20:30:51","263847"
"A1W90OQ8WBLGUI","cs_wg_rev_conf_v2_pilot1","3Z3ZLGNNSIVR2KD9MVVF0GFNKXE3QT","34","0","VOLCANO","7","LIZARD","9","1","5957",,,,,"1","2018-10-04 20:30:54","263848"
"A2653BIPJKEMRK","cs_wg_rev_conf_v2_pilot1","3TPWUS5F892KZH5ERX5ML813EB8CW4","13","0","WIZARD","7","COWBOY","6","0","6729",,,,,"1","2018-10-04 20:31:00","263849"
"A1W90OQ8WBLGUI","cs_wg_rev_conf_v2_pilot1","3Z3ZLGNNSIVR2KD9MVVF0GFNKXE3QT","35","0","VOLCANO","7","AVOCADO","9","1","4147",,,,,"1","2018-10-04 20:31:02","263850"
"A1W90OQ8WBLGUI","cs_wg_rev_conf_v2_pilot1","3Z3ZLGNNSIVR2KD9MVVF0GFNKXE3QT","36","0","BANANA","10","AIRBAG","10","0","3158",,,,,"1","2018-10-04 20:31:08","263851"
"A2653BIPJKEMRK","cs_wg_rev_conf_v2_pilot1","3TPWUS5F892KZH5ERX5ML813EB8CW4","14","0","VOLCANO","6","PELICAN","7","1","10144",,,,,"1","2018-10-04 20:31:13","263852"
"A1W90OQ8WBLGUI","cs_wg_rev_conf_v2_pilot1","3Z3ZLGNNSIVR2KD9MVVF0GFNKXE3QT","37","0","AIRBAG","10","PUMPKIN","1","0","3352",,,,,"1","2018-10-04 20:31:14","263853"
"A1W90OQ8WBLGUI","cs_wg_rev_conf_v2_pilot1","3Z3ZLGNNSIVR2KD9MVVF0GFNKXE3QT","38","0","PUMPKIN","1","AIRBAG","10","1","4583",,,,,"1","2018-10-04 20:31:21","263854"
"A2653BIPJKEMRK","cs_wg_rev_conf_v2_pilot1","3TPWUS5F892KZH5ERX5ML813EB8CW4","15","0","CRICKET","8","BLOUSE","8","0","10503",,,,,"1","2018-10-04 20:31:25","263855"
"A1W90OQ8WBLGUI","cs_wg_rev_conf_v2_pilot1","3Z3ZLGNNSIVR2KD9MVVF0GFNKXE3QT","39","0","LIZARD","9","AIRBAG","10","1","2882",,,,,"0","2018-10-04 20:31:27","263856"
"A1W90OQ8WBLGUI","cs_wg_rev_conf_v2_pilot1","3Z3ZLGNNSIVR2KD9MVVF0GFNKXE3QT","40","0","ROCKET","8","VOLCANO","7","0","4050",,,,,"1","2018-10-04 20:31:33","263857"
"A2653BIPJKEMRK","cs_wg_rev_conf_v2_pilot1","3TPWUS5F892KZH5ERX5ML813EB8CW4","16","0","BASKET","15","CANCER","9","0","7907",,,,,"1","2018-10-04 20:31:36","263858"
"A1W90OQ8WBLGUI","cs_wg_rev_conf_v2_pilot1","3Z3ZLGNNSIVR2KD9MVVF0GFNKXE3QT","41","0","LIZARD","9","PELICAN","7","0","3622",,,,,"1","2018-10-04 20:31:41","263859"
"A2653BIPJKEMRK","cs_wg_rev_conf_v2_pilot1","3TPWUS5F892KZH5ERX5ML813EB8CW4","17","0","CANCER","9","GRENADE","9","1","5527",,,,,"0","2018-10-04 20:31:45","263860"
"A1W90OQ8WBLGUI","cs_wg_rev_conf_v2_pilot1","3Z3ZLGNNSIVR2KD9MVVF0GFNKXE3QT","42","0","BANANA","10","PALACE","6","0","3475",,,,,"1","2018-10-04 20:31:47","263861"
"A2653BIPJKEMRK","cs_wg_rev_conf_v2_pilot1","3TPWUS5F892KZH5ERX5ML813EB8CW4","18","0","CANCER","9","AVOCADO","10","1","5520",,,,,"1","2018-10-04 20:31:52","263862"
"A1W90OQ8WBLGUI","cs_wg_rev_conf_v2_pilot1","3Z3ZLGNNSIVR2KD9MVVF0GFNKXE3QT","43","0","PALACE","6","HOCKEY","15","1","6502",,,,,"1","2018-10-04 20:31:57","263863"
"A2653BIPJKEMRK","cs_wg_rev_conf_v2_pilot1","3TPWUS5F892KZH5ERX5ML813EB8CW4","19","0","BLOUSE","8","WIZARD","7","0","8650",,,,,"1","2018-10-04 20:32:03","263864"
"A1W90OQ8WBLGUI","cs_wg_rev_conf_v2_pilot1","3Z3ZLGNNSIVR2KD9MVVF0GFNKXE3QT","44","0","SKUNK","8","PALACE","6","0","4386",,,,,"0","2018-10-04 20:32:04","263865"
"A2653BIPJKEMRK","cs_wg_rev_conf_v2_pilot1","3TPWUS5F892KZH5ERX5ML813EB8CW4","20","0","NAPKIN","1","WIZARD","7","1","1728",,,,,"0","2018-10-04 20:32:07","263866"
"A1W90OQ8WBLGUI","cs_wg_rev_conf_v2_pilot1","3Z3ZLGNNSIVR2KD9MVVF0GFNKXE3QT","45","0","ROCKET","8","BICYCLE","6","1","3470",,,,,"0","2018-10-04 20:32:11","263867"
"A2653BIPJKEMRK","cs_wg_rev_conf_v2_pilot1","3TPWUS5F892KZH5ERX5ML813EB8CW4","21","0","BLOUSE","8","BASKET","15","1","1567",,,,,"0","2018-10-04 20:32:12","263868"
"A1W90OQ8WBLGUI","cs_wg_rev_conf_v2_pilot1","3Z3ZLGNNSIVR2KD9MVVF0GFNKXE3QT","46","0","HOCKEY","15","LIZARD","9","0","2152",,,,,"0","2018-10-04 20:32:15","263869"
"A2653BIPJKEMRK","cs_wg_rev_conf_v2_pilot1","3TPWUS5F892KZH5ERX5ML813EB8CW4","22","0","BICYCLE","10","BASKET","15","1","2312",,,,,"0","2018-10-04 20:32:18","263870"
"A1W90OQ8WBLGUI","cs_wg_rev_conf_v2_pilot1","3Z3ZLGNNSIVR2KD9MVVF0GFNKXE3QT","47","0","VOLCANO","7","SKUNK","8","0","1292",,,,,"0","2018-10-04 20:32:20","263871"
"A1W90OQ8WBLGUI","cs_wg_rev_conf_v2_pilot1","3Z3ZLGNNSIVR2KD9MVVF0GFNKXE3QT","48","0","AIRBAG","10","BANANA","10","0","1370",,,,,"0","2018-10-04 20:32:24","263872"
"A1W90OQ8WBLGUI","cs_wg_rev_conf_v2_pilot1","3Z3ZLGNNSIVR2KD9MVVF0GFNKXE3QT","49","0","PELICAN","7","AIRBAG","10","1","1735",,,,,"0","2018-10-04 20:32:28","263873"
"A1W90OQ8WBLGUI","cs_wg_rev_conf_v2_pilot1","3Z3ZLGNNSIVR2KD9MVVF0GFNKXE3QT","50","0","PELICAN","7","PUMPKIN","1","0","2073",,,,,"0","2018-10-04 20:32:32","263874"
"A2653BIPJKEMRK","cs_wg_rev_conf_v2_pilot1","3TPWUS5F892KZH5ERX5ML813EB8CW4","23","0","BLOUSE","8","COWBOY","6","0","9268",,,,,"1","2018-10-04 20:32:36","263875"
"A1W90OQ8WBLGUI","cs_wg_rev_conf_v2_pilot1","3Z3ZLGNNSIVR2KD9MVVF0GFNKXE3QT","51","0","PALACE","6","PUMPKIN","1","0","2039",,,,,"0","2018-10-04 20:32:39","263876"
"A2653BIPJKEMRK","cs_wg_rev_conf_v2_pilot1","3TPWUS5F892KZH5ERX5ML813EB8CW4","24","0","BASKET","15","COWBOY","6","0","2067",,,,,"0","2018-10-04 20:32:40","263877"
"A1W90OQ8WBLGUI","cs_wg_rev_conf_v2_pilot1","3Z3ZLGNNSIVR2KD9MVVF0GFNKXE3QT","52","0","BICYCLE","6","LIZARD","9","0","1770",,,,,"0","2018-10-04 20:32:44","263878"
"A2653BIPJKEMRK","cs_wg_rev_conf_v2_pilot1","3TPWUS5F892KZH5ERX5ML813EB8CW4","25","0","PELICAN","7","COWBOY","6","0","4366",,,,,"0","2018-10-04 20:32:47","263879"
"A1W90OQ8WBLGUI","cs_wg_rev_conf_v2_pilot1","3Z3ZLGNNSIVR2KD9MVVF0GFNKXE3QT","53","0","PALACE","6","PELICAN","7","1","2680",,,,,"0","2018-10-04 20:32:49","263880"
"A2653BIPJKEMRK","cs_wg_rev_conf_v2_pilot1","3TPWUS5F892KZH5ERX5ML813EB8CW4","26","0","BICYCLE","10","GRENADE","9","0","3887",,,,,"0","2018-10-04 20:32:53","263881"
"A1W90OQ8WBLGUI","cs_wg_rev_conf_v2_pilot1","3Z3ZLGNNSIVR2KD9MVVF0GFNKXE3QT","54","0","SKUNK","8","ROCKET","8","1","2223",,,,,"0","2018-10-04 20:32:54","263882"
"A1W90OQ8WBLGUI","cs_wg_rev_conf_v2_pilot1","3Z3ZLGNNSIVR2KD9MVVF0GFNKXE3QT","55","0","LIZARD","9","SKUNK","8","0","1526",,,,,"0","2018-10-04 20:32:57","263883"
"A2653BIPJKEMRK","cs_wg_rev_conf_v2_pilot1","3TPWUS5F892KZH5ERX5ML813EB8CW4","27","0","PELICAN","7","CANCER","9","1","6164",,,,,"0","2018-10-04 20:33:01","263884"
"A1W90OQ8WBLGUI","cs_wg_rev_conf_v2_pilot1","3Z3ZLGNNSIVR2KD9MVVF0GFNKXE3QT","56","0","AVOCADO","9","BANANA","10","1","1547",,,,,"0","2018-10-04 20:33:02","263885"
"A1W90OQ8WBLGUI","cs_wg_rev_conf_v2_pilot1","3Z3ZLGNNSIVR2KD9MVVF0GFNKXE3QT","57","0","PELICAN","7","BICYCLE","6","1","2210",,,,,"0","2018-10-04 20:33:07","263886"
"A2653BIPJKEMRK","cs_wg_rev_conf_v2_pilot1","3TPWUS5F892KZH5ERX5ML813EB8CW4","28","0","COWBOY","6","CRICKET","8","1","5751",,,,,"0","2018-10-04 20:33:09","263887"
"A1W90OQ8WBLGUI","cs_wg_rev_conf_v2_pilot1","3Z3ZLGNNSIVR2KD9MVVF0GFNKXE3QT","58","0","HOCKEY","15","PUMPKIN","1","0","4396",,,,,"0","2018-10-04 20:33:14","263888"
"A2653BIPJKEMRK","cs_wg_rev_conf_v2_pilot1","3TPWUS5F892KZH5ERX5ML813EB8CW4","29","0","AVOCADO","10","COWBOY","6","0","6249",,,,,"0","2018-10-04 20:33:17","263889"
"A1W90OQ8WBLGUI","cs_wg_rev_conf_v2_pilot1","3Z3ZLGNNSIVR2KD9MVVF0GFNKXE3QT","59","0","AIRBAG","10","AVOCADO","9","0","2403",,,,,"0","2018-10-04 20:33:19","263890"
"A2653BIPJKEMRK","cs_wg_rev_conf_v2_pilot1","3TPWUS5F892KZH5ERX5ML813EB8CW4","30","0","PELICAN","7","NAPKIN","1","0","2406",,,,,"0","2018-10-04 20:33:22","263891"
"A1W90OQ8WBLGUI","cs_wg_rev_conf_v2_pilot1","3Z3ZLGNNSIVR2KD9MVVF0GFNKXE3QT","60","0","ROCKET","8","AVOCADO","9","1","1931",,,,,"0","2018-10-04 20:33:23","263892"
"A2653BIPJKEMRK","cs_wg_rev_conf_v2_pilot1","3TPWUS5F892KZH5ERX5ML813EB8CW4","31","0","CANCER","9","BASKET","15","1","1595",,,,,"0","2018-10-04 20:33:25","263893"
"A1W90OQ8WBLGUI","cs_wg_rev_conf_v2_pilot1","3Z3ZLGNNSIVR2KD9MVVF0GFNKXE3QT","61","0","PUMPKIN","1","LIZARD","9","1","2057",,,,,"0","2018-10-04 20:33:27","263894"
"A2653BIPJKEMRK","cs_wg_rev_conf_v2_pilot1","3TPWUS5F892KZH5ERX5ML813EB8CW4","32","0","COWBOY","6","NAPKIN","1","0","1428",,,,,"0","2018-10-04 20:33:29","263895"
"A1W90OQ8WBLGUI","cs_wg_rev_conf_v2_pilot1","3Z3ZLGNNSIVR2KD9MVVF0GFNKXE3QT","62","0","PUMPKIN","1","PALACE","6","1","1324",,,,,"0","2018-10-04 20:33:31","263896"
"A2653BIPJKEMRK","cs_wg_rev_conf_v2_pilot1","3TPWUS5F892KZH5ERX5ML813EB8CW4","33","0","PELICAN","7","WIZARD","7","0","4212",,,,,"0","2018-10-04 20:33:35","263897"
"A1W90OQ8WBLGUI","cs_wg_rev_conf_v2_pilot1","3Z3ZLGNNSIVR2KD9MVVF0GFNKXE3QT","63","0","PELICAN","7","BANANA","10","1","2973",,,,,"0","2018-10-04 20:33:36","263898"
"A1W90OQ8WBLGUI","cs_wg_rev_conf_v2_pilot1","3Z3ZLGNNSIVR2KD9MVVF0GFNKXE3QT","64","0","HOCKEY","15","BICYCLE","6","0","1220",,,,,"0","2018-10-04 20:33:39","263899"
"A1W90OQ8WBLGUI","cs_wg_rev_conf_v2_pilot1","3Z3ZLGNNSIVR2KD9MVVF0GFNKXE3QT","65","0","AIRBAG","10","VOLCANO","7","1","2071",,,,,"0","2018-10-04 20:33:44","263900"
"A2653BIPJKEMRK","cs_wg_rev_conf_v2_pilot1","3TPWUS5F892KZH5ERX5ML813EB8CW4","34","0","WIZARD","7","VOLCANO","6","0","6059",,,,,"0","2018-10-04 20:33:45","263901"
"A1W90OQ8WBLGUI","cs_wg_rev_conf_v2_pilot1","3Z3ZLGNNSIVR2KD9MVVF0GFNKXE3QT","66","0","PALACE","6","AIRBAG","10","1","1421",,,,,"0","2018-10-04 20:33:48","263902"
"A2653BIPJKEMRK","cs_wg_rev_conf_v2_pilot1","3TPWUS5F892KZH5ERX5ML813EB8CW4","35","0","VOLCANO","6","AVOCADO","10","1","2166",,,,,"0","2018-10-04 20:33:49","263903"
"A1W90OQ8WBLGUI","cs_wg_rev_conf_v2_pilot1","3Z3ZLGNNSIVR2KD9MVVF0GFNKXE3QT","67","0","AVOCADO","9","ROCKET","8","1","2596",,,,,"0","2018-10-04 20:33:53","263904"
"A2653BIPJKEMRK","cs_wg_rev_conf_v2_pilot1","3TPWUS5F892KZH5ERX5ML813EB8CW4","36","0","CANCER","9","WIZARD","7","0","3455",,,,,"0","2018-10-04 20:33:54","263905"
"A2653BIPJKEMRK","cs_wg_rev_conf_v2_pilot1","3TPWUS5F892KZH5ERX5ML813EB8CW4","37","0","NAPKIN","1","GRENADE","9","1","1579",,,,,"0","2018-10-04 20:33:57","263906"
"A1W90OQ8WBLGUI","cs_wg_rev_conf_v2_pilot1","3Z3ZLGNNSIVR2KD9MVVF0GFNKXE3QT","68","0","AVOCADO","9","HOCKEY","15","1","1908",,,,,"0","2018-10-04 20:33:58","263907"
"A2653BIPJKEMRK","cs_wg_rev_conf_v2_pilot1","3TPWUS5F892KZH5ERX5ML813EB8CW4","38","0","WIZARD","7","GRENADE","9","1","2961",,,,,"0","2018-10-04 20:34:02","263908"
"A1W90OQ8WBLGUI","cs_wg_rev_conf_v2_pilot1","3Z3ZLGNNSIVR2KD9MVVF0GFNKXE3QT","69","0","PELICAN","7","LIZARD","9","1","2655",,,,,"0","2018-10-04 20:34:03","263909"
"A2653BIPJKEMRK","cs_wg_rev_conf_v2_pilot1","3TPWUS5F892KZH5ERX5ML813EB8CW4","39","0","NAPKIN","1","COWBOY","6","1","1517",,,,,"0","2018-10-04 20:34:06","263910"
"A1W90OQ8WBLGUI","cs_wg_rev_conf_v2_pilot1","3Z3ZLGNNSIVR2KD9MVVF0GFNKXE3QT","70","0","VOLCANO","7","BANANA","10","1","1688",,,,,"0","2018-10-04 20:34:07","263911"
"A2653BIPJKEMRK","cs_wg_rev_conf_v2_pilot1","3TPWUS5F892KZH5ERX5ML813EB8CW4","40","0","CRICKET","8","WIZARD","7","0","1781",,,,,"0","2018-10-04 20:34:10","263912"
"A1W90OQ8WBLGUI","cs_wg_rev_conf_v2_pilot1","3Z3ZLGNNSIVR2KD9MVVF0GFNKXE3QT","71","0","ROCKET","8","BANANA","10","1","1293",,,,,"0","2018-10-04 20:34:11","263913"
"A2653BIPJKEMRK","cs_wg_rev_conf_v2_pilot1","3TPWUS5F892KZH5ERX5ML813EB8CW4","41","0","NAPKIN","1","CRICKET","8","1","1297",,,,,"0","2018-10-04 20:34:13","263914"
"A1W90OQ8WBLGUI","cs_wg_rev_conf_v2_pilot1","3Z3ZLGNNSIVR2KD9MVVF0GFNKXE3QT","72","0","LIZARD","9","PUMPKIN","1","0","2075",,,,,"0","2018-10-04 20:34:16","263915"
"A2653BIPJKEMRK","cs_wg_rev_conf_v2_pilot1","3TPWUS5F892KZH5ERX5ML813EB8CW4","42","0","BLOUSE","8","BICYCLE","10","0","4182",,,,,"0","2018-10-04 20:34:20","263916"
"A1W90OQ8WBLGUI","cs_wg_rev_conf_v2_pilot1","3Z3ZLGNNSIVR2KD9MVVF0GFNKXE3QT","73","0","VOLCANO","7","PELICAN","7","0","1347",,,,,"0","2018-10-04 20:34:21","263917"
"A1W90OQ8WBLGUI","cs_wg_rev_conf_v2_pilot1","3Z3ZLGNNSIVR2KD9MVVF0GFNKXE3QT","74","0","LIZARD","9","BANANA","10","1","1565",,,,,"0","2018-10-04 20:34:25","263918"
"A1W90OQ8WBLGUI","cs_wg_rev_conf_v2_pilot1","3Z3ZLGNNSIVR2KD9MVVF0GFNKXE3QT","75","0","LIZARD","9","PALACE","6","0","1549",,,,,"0","2018-10-04 20:34:28","263919"
"A2653BIPJKEMRK","cs_wg_rev_conf_v2_pilot1","3TPWUS5F892KZH5ERX5ML813EB8CW4","43","0","BLOUSE","8","CRICKET","8","0","7036",,,,,"1","2018-10-04 20:34:29","263920"
"A2653BIPJKEMRK","cs_wg_rev_conf_v2_pilot1","3TPWUS5F892KZH5ERX5ML813EB8CW4","44","0","CRICKET","8","COWBOY","6","0","2686",,,,,"0","2018-10-04 20:34:35","263921"
"A1W90OQ8WBLGUI","cs_wg_rev_conf_v2_pilot1","3Z3ZLGNNSIVR2KD9MVVF0GFNKXE3QT","76","0","BANANA","10","HOCKEY","15","0","850",,,,,"0","2018-10-04 20:34:35","263922"
"A1W90OQ8WBLGUI","cs_wg_rev_conf_v2_pilot1","3Z3ZLGNNSIVR2KD9MVVF0GFNKXE3QT","77","0","AVOCADO","9","AIRBAG","10","0","1515",,,,,"0","2018-10-04 20:34:40","263923"
"A2653BIPJKEMRK","cs_wg_rev_conf_v2_pilot1","3TPWUS5F892KZH5ERX5ML813EB8CW4","45","0","BLOUSE","8","AVOCADO","10","1","5181",,,,,"0","2018-10-04 20:34:42","263924"
"A1W90OQ8WBLGUI","cs_wg_rev_conf_v2_pilot1","3Z3ZLGNNSIVR2KD9MVVF0GFNKXE3QT","78","0","AVOCADO","9","BICYCLE","6","0","1328",,,,,"0","2018-10-04 20:34:45","263925"
"A2653BIPJKEMRK","cs_wg_rev_conf_v2_pilot1","3TPWUS5F892KZH5ERX5ML813EB8CW4","46","0","VOLCANO","6","BASKET","15","1","1112",,,,,"0","2018-10-04 20:34:45","263926"
"A2653BIPJKEMRK","cs_wg_rev_conf_v2_pilot1","3TPWUS5F892KZH5ERX5ML813EB8CW4","47","0","CANCER","9","CRICKET","8","1","1440",,,,,"0","2018-10-04 20:34:48","263927"
"A1W90OQ8WBLGUI","cs_wg_rev_conf_v2_pilot1","3Z3ZLGNNSIVR2KD9MVVF0GFNKXE3QT","79","0","AVOCADO","9","SKUNK","8","0","1110",,,,,"0","2018-10-04 20:34:49","263928"
"A2653BIPJKEMRK","cs_wg_rev_conf_v2_pilot1","3TPWUS5F892KZH5ERX5ML813EB8CW4","48","0","GRENADE","9","BASKET","15","1","1091",,,,,"0","2018-10-04 20:34:51","263929"
"A1W90OQ8WBLGUI","cs_wg_rev_conf_v2_pilot1","3Z3ZLGNNSIVR2KD9MVVF0GFNKXE3QT","80","0","HOCKEY","15","BANANA","10","0","1062",,,,,"0","2018-10-04 20:34:52","263930"
"A1W90OQ8WBLGUI","cs_wg_rev_conf_v2_pilot1","3Z3ZLGNNSIVR2KD9MVVF0GFNKXE3QT","81","0","ROCKET","8","PUMPKIN","1","0","1279",,,,,"0","2018-10-04 20:34:55","263931"
"A2653BIPJKEMRK","cs_wg_rev_conf_v2_pilot1","3TPWUS5F892KZH5ERX5ML813EB8CW4","49","0","CANCER","9","BICYCLE","10","1","4079",,,,,"0","2018-10-04 20:34:57","263932"
"A1W90OQ8WBLGUI","cs_wg_rev_conf_v2_pilot1","3Z3ZLGNNSIVR2KD9MVVF0GFNKXE3QT","82","0","AIRBAG","10","BICYCLE","6","0","1006",,,,,"0","2018-10-04 20:34:59","263933"
"A2653BIPJKEMRK","cs_wg_rev_conf_v2_pilot1","3TPWUS5F892KZH5ERX5ML813EB8CW4","50","0","BICYCLE","10","AVOCADO","10","1","2661",,,,,"0","2018-10-04 20:35:01","263934"
"A1W90OQ8WBLGUI","cs_wg_rev_conf_v2_pilot1","3Z3ZLGNNSIVR2KD9MVVF0GFNKXE3QT","83","0","PUMPKIN","1","PELICAN","7","1","1655",,,,,"0","2018-10-04 20:35:04","263935"
"A1W90OQ8WBLGUI","cs_wg_rev_conf_v2_pilot1","3Z3ZLGNNSIVR2KD9MVVF0GFNKXE3QT","84","0","BANANA","10","ROCKET","8","0","1553",,,,,"0","2018-10-04 20:35:07","263936"
"A2653BIPJKEMRK","cs_wg_rev_conf_v2_pilot1","3TPWUS5F892KZH5ERX5ML813EB8CW4","51","0","COWBOY","6","GRENADE","9","1","5633",,,,,"0","2018-10-04 20:35:08","263937"
"A1W90OQ8WBLGUI","cs_wg_rev_conf_v2_pilot1","3Z3ZLGNNSIVR2KD9MVVF0GFNKXE3QT","85","0","AIRBAG","10","PALACE","6","0","1787",,,,,"0","2018-10-04 20:35:12","263938"
"A2653BIPJKEMRK","cs_wg_rev_conf_v2_pilot1","3TPWUS5F892KZH5ERX5ML813EB8CW4","52","0","COWBOY","6","BLOUSE","8","1","5149",,,,,"0","2018-10-04 20:35:15","263939"
"A1W90OQ8WBLGUI","cs_wg_rev_conf_v2_pilot1","3Z3ZLGNNSIVR2KD9MVVF0GFNKXE3QT","86","0","BICYCLE","6","PALACE","6","0","1462",,,,,"0","2018-10-04 20:35:15","263940"
"A2653BIPJKEMRK","cs_wg_rev_conf_v2_pilot1","3TPWUS5F892KZH5ERX5ML813EB8CW4","53","0","WIZARD","7","PELICAN","7","0","1982",,,,,"0","2018-10-04 20:35:19","263941"
"A1W90OQ8WBLGUI","cs_wg_rev_conf_v2_pilot1","3Z3ZLGNNSIVR2KD9MVVF0GFNKXE3QT","87","0","PELICAN","7","PALACE","6","0","1435",,,,,"0","2018-10-04 20:35:19","263942"
"A2653BIPJKEMRK","cs_wg_rev_conf_v2_pilot1","3TPWUS5F892KZH5ERX5ML813EB8CW4","54","0","AVOCADO","10","CRICKET","8","0","1400",,,,,"0","2018-10-04 20:35:22","263943"
"A1W90OQ8WBLGUI","cs_wg_rev_conf_v2_pilot1","3Z3ZLGNNSIVR2KD9MVVF0GFNKXE3QT","88","0","HOCKEY","15","AIRBAG","10","0","1050",,,,,"0","2018-10-04 20:35:23","263944"
"A2653BIPJKEMRK","cs_wg_rev_conf_v2_pilot1","3TPWUS5F892KZH5ERX5ML813EB8CW4","55","0","BASKET","15","PELICAN","7","0","824",,,,,"0","2018-10-04 20:35:25","263945"
"A1W90OQ8WBLGUI","cs_wg_rev_conf_v2_pilot1","3Z3ZLGNNSIVR2KD9MVVF0GFNKXE3QT","89","0","BICYCLE","6","SKUNK","8","0","971",,,,,"0","2018-10-04 20:35:26","263946"
"A2653BIPJKEMRK","cs_wg_rev_conf_v2_pilot1","3TPWUS5F892KZH5ERX5ML813EB8CW4","56","0","CANCER","9","PELICAN","7","0","2735",,,,,"0","2018-10-04 20:35:29","263947"
"A1W90OQ8WBLGUI","cs_wg_rev_conf_v2_pilot1","3Z3ZLGNNSIVR2KD9MVVF0GFNKXE3QT","90","0","VOLCANO","7","BICYCLE","6","0","1960",,,,,"0","2018-10-04 20:35:30","263948"
"A1W90OQ8WBLGUI","cs_wg_rev_conf_v2_pilot1","3Z3ZLGNNSIVR2KD9MVVF0GFNKXE3QT","91","0","LIZARD","9","BICYCLE","6","0","1212",,,,,"0","2018-10-04 20:35:34","263949"
"A2653BIPJKEMRK","cs_wg_rev_conf_v2_pilot1","3TPWUS5F892KZH5ERX5ML813EB8CW4","57","0","VOLCANO","6","GRENADE","9","1","2042",,,,,"0","2018-10-04 20:35:34","263950"
"A2653BIPJKEMRK","cs_wg_rev_conf_v2_pilot1","3TPWUS5F892KZH5ERX5ML813EB8CW4","58","0","CANCER","9","VOLCANO","6","1","1302",,,,,"0","2018-10-04 20:35:37","263951"
"A1W90OQ8WBLGUI","cs_wg_rev_conf_v2_pilot1","3Z3ZLGNNSIVR2KD9MVVF0GFNKXE3QT","92","0","SKUNK","8","BANANA","10","1","2310",,,,,"0","2018-10-04 20:35:38","263952"
"A2653BIPJKEMRK","cs_wg_rev_conf_v2_pilot1","3TPWUS5F892KZH5ERX5ML813EB8CW4","59","0","BASKET","15","BICYCLE","10","0","1207",,,,,"0","2018-10-04 20:35:40","263953"
"A1W90OQ8WBLGUI","cs_wg_rev_conf_v2_pilot1","3Z3ZLGNNSIVR2KD9MVVF0GFNKXE3QT","93","0","ROCKET","8","PALACE","6","0","1122",,,,,"0","2018-10-04 20:35:42","263954"
"A1W90OQ8WBLGUI","cs_wg_rev_conf_v2_pilot1","3Z3ZLGNNSIVR2KD9MVVF0GFNKXE3QT","94","0","PALACE","6","BANANA","10","1","2279",,,,,"0","2018-10-04 20:35:46","263955"
"A2653BIPJKEMRK","cs_wg_rev_conf_v2_pilot1","3TPWUS5F892KZH5ERX5ML813EB8CW4","60","0","VOLCANO","6","BLOUSE","8","1","5698",,,,,"0","2018-10-04 20:35:48","263956"
"A1W90OQ8WBLGUI","cs_wg_rev_conf_v2_pilot1","3Z3ZLGNNSIVR2KD9MVVF0GFNKXE3QT","95","0","AIRBAG","10","LIZARD","9","0","1133",,,,,"0","2018-10-04 20:35:50","263957"
"A2653BIPJKEMRK","cs_wg_rev_conf_v2_pilot1","3TPWUS5F892KZH5ERX5ML813EB8CW4","61","0","AVOCADO","10","BLOUSE","8","0","3001",,,,,"0","2018-10-04 20:35:53","263958"
"A1W90OQ8WBLGUI","cs_wg_rev_conf_v2_pilot1","3Z3ZLGNNSIVR2KD9MVVF0GFNKXE3QT","96","0","SKUNK","8","LIZARD","9","1","2031",,,,,"0","2018-10-04 20:35:54","263959"
"A2653BIPJKEMRK","cs_wg_rev_conf_v2_pilot1","3TPWUS5F892KZH5ERX5ML813EB8CW4","62","0","WIZARD","7","NAPKIN","1","0","1268",,,,,"0","2018-10-04 20:35:56","263960"
"A1W90OQ8WBLGUI","cs_wg_rev_conf_v2_pilot1","3Z3ZLGNNSIVR2KD9MVVF0GFNKXE3QT","97","0","BICYCLE","6","PUMPKIN","1","0","1331",,,,,"0","2018-10-04 20:35:58","263961"
"A2653BIPJKEMRK","cs_wg_rev_conf_v2_pilot1","3TPWUS5F892KZH5ERX5ML813EB8CW4","63","0","NAPKIN","1","BASKET","15","1","1463",,,,,"0","2018-10-04 20:35:59","263962"
"A2653BIPJKEMRK","cs_wg_rev_conf_v2_pilot1","3TPWUS5F892KZH5ERX5ML813EB8CW4","64","0","BLOUSE","8","NAPKIN","1","0","865",,,,,"0","2018-10-04 20:36:01","263963"
"A1W90OQ8WBLGUI","cs_wg_rev_conf_v2_pilot1","3Z3ZLGNNSIVR2KD9MVVF0GFNKXE3QT","98","0","BICYCLE","6","AVOCADO","9","1","3015",,,,,"0","2018-10-04 20:36:03","263964"
"A1W90OQ8WBLGUI","cs_wg_rev_conf_v2_pilot1","3Z3ZLGNNSIVR2KD9MVVF0GFNKXE3QT","99","0","AIRBAG","10","ROCKET","8","0","1753",,,,,"0","2018-10-04 20:36:07","263965"
"A2653BIPJKEMRK","cs_wg_rev_conf_v2_pilot1","3TPWUS5F892KZH5ERX5ML813EB8CW4","65","0","VOLCANO","6","BICYCLE","10","1","4490",,,,,"0","2018-10-04 20:36:08","263966"
"A1W90OQ8WBLGUI","cs_wg_rev_conf_v2_pilot1","3Z3ZLGNNSIVR2KD9MVVF0GFNKXE3QT","100","0","HOCKEY","15","PALACE","6","0","1026",,,,,"0","2018-10-04 20:36:11","263967"
"A2653BIPJKEMRK","cs_wg_rev_conf_v2_pilot1","3TPWUS5F892KZH5ERX5ML813EB8CW4","66","0","PELICAN","7","CRICKET","8","1","1805",,,,,"0","2018-10-04 20:36:11","263968"
"A1W90OQ8WBLGUI","cs_wg_rev_conf_v2_pilot1","3Z3ZLGNNSIVR2KD9MVVF0GFNKXE3QT","101","0","PUMPKIN","1","VOLCANO","7","1","1616",,,,,"0","2018-10-04 20:36:14","263969"
"A2653BIPJKEMRK","cs_wg_rev_conf_v2_pilot1","3TPWUS5F892KZH5ERX5ML813EB8CW4","67","0","GRENADE","9","CRICKET","8","0","1695",,,,,"0","2018-10-04 20:36:15","263970"
"A2653BIPJKEMRK","cs_wg_rev_conf_v2_pilot1","3TPWUS5F892KZH5ERX5ML813EB8CW4","68","0","GRENADE","9","NAPKIN","1","0","1108",,,,,"0","2018-10-04 20:36:17","263971"
"A1W90OQ8WBLGUI","cs_wg_rev_conf_v2_pilot1","3Z3ZLGNNSIVR2KD9MVVF0GFNKXE3QT","102","0","HOCKEY","15","AVOCADO","9","0","1102",,,,,"0","2018-10-04 20:36:18","263972"
"A2653BIPJKEMRK","cs_wg_rev_conf_v2_pilot1","3TPWUS5F892KZH5ERX5ML813EB8CW4","69","0","GRENADE","9","CANCER","9","0","1362",,,,,"0","2018-10-04 20:36:21","263973"
"A1W90OQ8WBLGUI","cs_wg_rev_conf_v2_pilot1","3Z3ZLGNNSIVR2KD9MVVF0GFNKXE3QT","103","0","HOCKEY","15","PELICAN","7","0","1128",,,,,"0","2018-10-04 20:36:21","263974"
"A2653BIPJKEMRK","cs_wg_rev_conf_v2_pilot1","3TPWUS5F892KZH5ERX5ML813EB8CW4","70","0","GRENADE","9","PELICAN","7","0","1491",,,,,"0","2018-10-04 20:36:24","263975"
"A1W90OQ8WBLGUI","cs_wg_rev_conf_v2_pilot1","3Z3ZLGNNSIVR2KD9MVVF0GFNKXE3QT","104","0","SKUNK","8","PUMPKIN","1","0","1060",,,,,"0","2018-10-04 20:36:25","263976"
"A2653BIPJKEMRK","cs_wg_rev_conf_v2_pilot1","3TPWUS5F892KZH5ERX5ML813EB8CW4","71","0","COWBOY","6","PELICAN","7","1","2338",,,,,"0","2018-10-04 20:36:28","263977"
"A1W90OQ8WBLGUI","cs_wg_rev_conf_v2_pilot1","3Z3ZLGNNSIVR2KD9MVVF0GFNKXE3QT","105","0","LIZARD","9","AVOCADO","9","1","2005",,,,,"0","2018-10-04 20:36:29","263978"
"A1W90OQ8WBLGUI","cs_wg_rev_conf_v2_pilot1","3Z3ZLGNNSIVR2KD9MVVF0GFNKXE3QT","106","0","AVOCADO","9","PALACE","6","0","1141",,,,,"0","2018-10-04 20:36:33","263979"
"A2653BIPJKEMRK","cs_wg_rev_conf_v2_pilot1","3TPWUS5F892KZH5ERX5ML813EB8CW4","72","0","PELICAN","7","VOLCANO","6","1","3608",,,,,"0","2018-10-04 20:36:34","263980"
"A1W90OQ8WBLGUI","cs_wg_rev_conf_v2_pilot1","3Z3ZLGNNSIVR2KD9MVVF0GFNKXE3QT","107","0","PALACE","6","VOLCANO","7","0","1485",,,,,"0","2018-10-04 20:36:36","263981"
"A2653BIPJKEMRK","cs_wg_rev_conf_v2_pilot1","3TPWUS5F892KZH5ERX5ML813EB8CW4","73","0","CRICKET","8","PELICAN","7","0","1305",,,,,"0","2018-10-04 20:36:37","263982"
"A2653BIPJKEMRK","cs_wg_rev_conf_v2_pilot1","3TPWUS5F892KZH5ERX5ML813EB8CW4","74","0","BASKET","15","CRICKET","8","0","875",,,,,"0","2018-10-04 20:36:40","263983"
"A1W90OQ8WBLGUI","cs_wg_rev_conf_v2_pilot1","3Z3ZLGNNSIVR2KD9MVVF0GFNKXE3QT","108","0","VOLCANO","7","HOCKEY","15","1","1560",,,,,"0","2018-10-04 20:36:42","263984"
"A2653BIPJKEMRK","cs_wg_rev_conf_v2_pilot1","3TPWUS5F892KZH5ERX5ML813EB8CW4","75","0","BICYCLE","10","NAPKIN","1","0","1225",,,,,"0","2018-10-04 20:36:42","263985"
"A2653BIPJKEMRK","cs_wg_rev_conf_v2_pilot1","3TPWUS5F892KZH5ERX5ML813EB8CW4","76","0","BICYCLE","10","CANCER","9","0","1468",,,,,"0","2018-10-04 20:36:46","263986"
"A1W90OQ8WBLGUI","cs_wg_rev_conf_v2_pilot1","3Z3ZLGNNSIVR2KD9MVVF0GFNKXE3QT","109","0","SKUNK","8","BICYCLE","6","0","2328",,,,,"0","2018-10-04 20:36:46","263987"
"A1W90OQ8WBLGUI","cs_wg_rev_conf_v2_pilot1","3Z3ZLGNNSIVR2KD9MVVF0GFNKXE3QT","110","0","HOCKEY","15","VOLCANO","7","0","1066",,,,,"0","2018-10-04 20:36:49","263988"
"A2653BIPJKEMRK","cs_wg_rev_conf_v2_pilot1","3TPWUS5F892KZH5ERX5ML813EB8CW4","77","0","COWBOY","6","BICYCLE","10","1","1844",,,,,"0","2018-10-04 20:36:49","263989"
"A2653BIPJKEMRK","cs_wg_rev_conf_v2_pilot1","3TPWUS5F892KZH5ERX5ML813EB8CW4","78","0","CRICKET","8","CANCER","9","0","1778",,,,,"0","2018-10-04 20:36:53","263990"
"A1W90OQ8WBLGUI","cs_wg_rev_conf_v2_pilot1","3Z3ZLGNNSIVR2KD9MVVF0GFNKXE3QT","111","0","PELICAN","7","AVOCADO","9","0","1588",,,,,"0","2018-10-04 20:36:54","263991"
"A2653BIPJKEMRK","cs_wg_rev_conf_v2_pilot1","3TPWUS5F892KZH5ERX5ML813EB8CW4","79","0","NAPKIN","1","VOLCANO","6","1","1339",,,,,"0","2018-10-04 20:36:56","263992"
"A1W90OQ8WBLGUI","cs_wg_rev_conf_v2_pilot1","3Z3ZLGNNSIVR2KD9MVVF0GFNKXE3QT","112","0","PALACE","6","BICYCLE","6","1","2305",,,,,"0","2018-10-04 20:36:58","263993"
"A2653BIPJKEMRK","cs_wg_rev_conf_v2_pilot1","3TPWUS5F892KZH5ERX5ML813EB8CW4","80","0","PELICAN","7","BICYCLE","10","1","1918",,,,,"0","2018-10-04 20:37:00","263994"
"A3DA9VCFVY24TR","cs_wg_rev_conf_v2_pilot1","3PJ71Z61R43P0II8IP6AQSA1CDW19D","0","0","ACROBAT","9","AIRBAG","6","0","6947",,,,,"0","2018-10-04 20:37:00","263995"
"A2653BIPJKEMRK","cs_wg_rev_conf_v2_pilot1","3TPWUS5F892KZH5ERX5ML813EB8CW4","81","0","CRICKET","8","VOLCANO","6","0","1410",,,,,"0","2018-10-04 20:37:03","263996"
"A1W90OQ8WBLGUI","cs_wg_rev_conf_v2_pilot1","3Z3ZLGNNSIVR2KD9MVVF0GFNKXE3QT","113","0","AIRBAG","10","HOCKEY","15","1","1807",,,,,"0","2018-10-04 20:37:03","263997"
"A3DA9VCFVY24TR","cs_wg_rev_conf_v2_pilot1","3PJ71Z61R43P0II8IP6AQSA1CDW19D","1","0","LIZARD","10","CANCER","7","0","2023",,,,,"0","2018-10-04 20:37:05","263998"
"A2653BIPJKEMRK","cs_wg_rev_conf_v2_pilot1","3TPWUS5F892KZH5ERX5ML813EB8CW4","82","0","COWBOY","6","VOLCANO","6","1","2411",,,,,"0","2018-10-04 20:37:07","263999"
"A1W90OQ8WBLGUI","cs_wg_rev_conf_v2_pilot1","3Z3ZLGNNSIVR2KD9MVVF0GFNKXE3QT","114","0","BICYCLE","6","BANANA","10","1","2087",,,,,"0","2018-10-04 20:37:07","264000"
"A3DA9VCFVY24TR","cs_wg_rev_conf_v2_pilot1","3PJ71Z61R43P0II8IP6AQSA1CDW19D","2","0","TOMATO","9","CANCER","7","0","778",,,,,"0","2018-10-04 20:37:08","264001"
"A2653BIPJKEMRK","cs_wg_rev_conf_v2_pilot1","3TPWUS5F892KZH5ERX5ML813EB8CW4","83","0","PELICAN","7","BASKET","15","1","1195",,,,,"0","2018-10-04 20:37:10","264002"
"A1W90OQ8WBLGUI","cs_wg_rev_conf_v2_pilot1","3Z3ZLGNNSIVR2KD9MVVF0GFNKXE3QT","115","0","PALACE","6","AVOCADO","9","1","1706",,,,,"0","2018-10-04 20:37:12","264003"
"A3DA9VCFVY24TR","cs_wg_rev_conf_v2_pilot1","3PJ71Z61R43P0II8IP6AQSA1CDW19D","3","0","VOLCANO","10","PALACE","7","0","1521",,,,,"0","2018-10-04 20:37:12","264004"
"A2653BIPJKEMRK","cs_wg_rev_conf_v2_pilot1","3TPWUS5F892KZH5ERX5ML813EB8CW4","84","0","CANCER","9","BLOUSE","8","1","2712",,,,,"0","2018-10-04 20:37:15","264005"
"A3DA9VCFVY24TR","cs_wg_rev_conf_v2_pilot1","3PJ71Z61R43P0II8IP6AQSA1CDW19D","4","0","PENGUIN","8","CRICKET","1","0","1517",,,,,"0","2018-10-04 20:37:16","264006"
"A1W90OQ8WBLGUI","cs_wg_rev_conf_v2_pilot1","3Z3ZLGNNSIVR2KD9MVVF0GFNKXE3QT","116","0","HOCKEY","15","SKUNK","8","0","2055",,,,,"0","2018-10-04 20:37:17","264007"
"A2653BIPJKEMRK","cs_wg_rev_conf_v2_pilot1","3TPWUS5F892KZH5ERX5ML813EB8CW4","85","0","NAPKIN","1","PELICAN","7","1","1165",,,,,"0","2018-10-04 20:37:18","264008"
"A3DA9VCFVY24TR","cs_wg_rev_conf_v2_pilot1","3PJ71Z61R43P0II8IP6AQSA1CDW19D","5","0","PENGUIN","8","VOLCANO","10","0","1578",,,,,"0","2018-10-04 20:37:20","264009"
"A1W90OQ8WBLGUI","cs_wg_rev_conf_v2_pilot1","3Z3ZLGNNSIVR2KD9MVVF0GFNKXE3QT","117","0","PUMPKIN","1","SKUNK","8","1","1761",,,,,"0","2018-10-04 20:37:21","264010"
"A2653BIPJKEMRK","cs_wg_rev_conf_v2_pilot1","3TPWUS5F892KZH5ERX5ML813EB8CW4","86","0","AVOCADO","10","VOLCANO","6","0","2401",,,,,"0","2018-10-04 20:37:23","264011"
"A3DA9VCFVY24TR","cs_wg_rev_conf_v2_pilot1","3PJ71Z61R43P0II8IP6AQSA1CDW19D","6","0","VOLCANO","10","ACROBAT","9","0","958",,,,,"0","2018-10-04 20:37:24","264012"
"A1W90OQ8WBLGUI","cs_wg_rev_conf_v2_pilot1","3Z3ZLGNNSIVR2KD9MVVF0GFNKXE3QT","118","0","LIZARD","9","VOLCANO","7","0","1732",,,,,"0","2018-10-04 20:37:25","264013"
"A3DA9VCFVY24TR","cs_wg_rev_conf_v2_pilot1","3PJ71Z61R43P0II8IP6AQSA1CDW19D","7","0","VOLCANO","10","TOMATO","9","0","848",,,,,"0","2018-10-04 20:37:27","264014"
"A2653BIPJKEMRK","cs_wg_rev_conf_v2_pilot1","3TPWUS5F892KZH5ERX5ML813EB8CW4","87","0","CRICKET","8","GRENADE","9","0","2270",,,,,"0","2018-10-04 20:37:27","264015"
"A1W90OQ8WBLGUI","cs_wg_rev_conf_v2_pilot1","3Z3ZLGNNSIVR2KD9MVVF0GFNKXE3QT","119","0","PELICAN","7","HOCKEY","15","1","1401",,,,,"0","2018-10-04 20:37:28","264016"
"A3DA9VCFVY24TR","cs_wg_rev_conf_v2_pilot1","3PJ71Z61R43P0II8IP6AQSA1CDW19D","8","0","BUCKET","8","ACROBAT","9","0","1274",,,,,"0","2018-10-04 20:37:30","264017"
"A2653BIPJKEMRK","cs_wg_rev_conf_v2_pilot1","3TPWUS5F892KZH5ERX5ML813EB8CW4","88","0","BICYCLE","10","CRICKET","8","1","1855",,,,,"0","2018-10-04 20:37:31","264018"
"A1W90OQ8WBLGUI","cs_wg_rev_conf_v2_pilot1","3Z3ZLGNNSIVR2KD9MVVF0GFNKXE3QT","120","0","ROCKET","8","PELICAN","7","0","1930",,,,,"0","2018-10-04 20:37:33","264019"
"A2653BIPJKEMRK","cs_wg_rev_conf_v2_pilot1","3TPWUS5F892KZH5ERX5ML813EB8CW4","89","0","NAPKIN","1","CANCER","9","1","973",,,,,"0","2018-10-04 20:37:33","264020"
"A3DA9VCFVY24TR","cs_wg_rev_conf_v2_pilot1","3PJ71Z61R43P0II8IP6AQSA1CDW19D","9","0","PENGUIN","8","AIRBAG","6","0","922",,,,,"0","2018-10-04 20:37:34","264021"
"A1W90OQ8WBLGUI","cs_wg_rev_conf_v2_pilot1","3Z3ZLGNNSIVR2KD9MVVF0GFNKXE3QT","121","0","VOLCANO","7","PUMPKIN","1","0","1536",,,,,"0","2018-10-04 20:37:36","264022"
"A3DA9VCFVY24TR","cs_wg_rev_conf_v2_pilot1","3PJ71Z61R43P0II8IP6AQSA1CDW19D","10","0","BAKER","15","COWBOY","6","0","1061",,,,,"0","2018-10-04 20:37:37","264023"
"A1W90OQ8WBLGUI","cs_wg_rev_conf_v2_pilot1","3Z3ZLGNNSIVR2KD9MVVF0GFNKXE3QT","122","0","HOCKEY","15","ROCKET","8","0","1564",,,,,"0","2018-10-04 20:37:40","264024"
"A3DA9VCFVY24TR","cs_wg_rev_conf_v2_pilot1","3PJ71Z61R43P0II8IP6AQSA1CDW19D","11","0","TOMATO","9","PALACE","7","0","919",,,,,"0","2018-10-04 20:37:40","264025"
"A2653BIPJKEMRK","cs_wg_rev_conf_v2_pilot1","3TPWUS5F892KZH5ERX5ML813EB8CW4","90","0","GRENADE","9","WIZARD","7","0","5521",,,,,"0","2018-10-04 20:37:41","264026"
"A1W90OQ8WBLGUI","cs_wg_rev_conf_v2_pilot1","3Z3ZLGNNSIVR2KD9MVVF0GFNKXE3QT","123","0","PUMPKIN","1","BANANA","10","1","1621",,,,,"0","2018-10-04 20:37:44","264027"
"A2653BIPJKEMRK","cs_wg_rev_conf_v2_pilot1","3TPWUS5F892KZH5ERX5ML813EB8CW4","91","0","VOLCANO","6","CRICKET","8","0","1667",,,,,"0","2018-10-04 20:37:45","264028"
"A1W90OQ8WBLGUI","cs_wg_rev_conf_v2_pilot1","3Z3ZLGNNSIVR2KD9MVVF0GFNKXE3QT","124","0","SKUNK","8","VOLCANO","7","0","1446",,,,,"0","2018-10-04 20:37:48","264029"
"A3DA9VCFVY24TR","cs_wg_rev_conf_v2_pilot1","3PJ71Z61R43P0II8IP6AQSA1CDW19D","12","0","ACROBAT","9","BAKER","15","1","4927",,,,,"0","2018-10-04 20:37:48","264030"
"A3DA9VCFVY24TR","cs_wg_rev_conf_v2_pilot1","3PJ71Z61R43P0II8IP6AQSA1CDW19D","13","0","AIRBAG","6","ACROBAT","9","0","1476",,,,,"0","2018-10-04 20:37:52","264031"
"A1W90OQ8WBLGUI","cs_wg_rev_conf_v2_pilot1","3Z3ZLGNNSIVR2KD9MVVF0GFNKXE3QT","125","0","BICYCLE","6","AIRBAG","10","1","2028",,,,,"0","2018-10-04 20:37:52","264032"
"A2653BIPJKEMRK","cs_wg_rev_conf_v2_pilot1","3TPWUS5F892KZH5ERX5ML813EB8CW4","92","0","BICYCLE","10","VOLCANO","6","1","2029",,,,,"0","2018-10-04 20:37:53","264033"
"A2653BIPJKEMRK","cs_wg_rev_conf_v2_pilot1","3TPWUS5F892KZH5ERX5ML813EB8CW4","93","0","BASKET","15","AVOCADO","10","0","955",,,,,"0","2018-10-04 20:37:55","264034"
"A3DA9VCFVY24TR","cs_wg_rev_conf_v2_pilot1","3PJ71Z61R43P0II8IP6AQSA1CDW19D","14","0","ACROBAT","9","CRICKET","1","0","1223",,,,,"0","2018-10-04 20:37:56","264035"
"A1W90OQ8WBLGUI","cs_wg_rev_conf_v2_pilot1","3Z3ZLGNNSIVR2KD9MVVF0GFNKXE3QT","126","0","LIZARD","9","HOCKEY","15","1","1699",,,,,"0","2018-10-04 20:37:56","264036"
"A2653BIPJKEMRK","cs_wg_rev_conf_v2_pilot1","3TPWUS5F892KZH5ERX5ML813EB8CW4","94","0","BASKET","15","WIZARD","7","0","589",,,,,"0","2018-10-04 20:37:57","264037"
"A3DA9VCFVY24TR","cs_wg_rev_conf_v2_pilot1","3PJ71Z61R43P0II8IP6AQSA1CDW19D","15","0","TOMATO","9","LIZARD","10","0","1093",,,,,"0","2018-10-04 20:37:59","264038"
"A1W90OQ8WBLGUI","cs_wg_rev_conf_v2_pilot1","3Z3ZLGNNSIVR2KD9MVVF0GFNKXE3QT","127","0","PALACE","6","LIZARD","9","1","1993",,,,,"0","2018-10-04 20:38:00","264039"
"A2653BIPJKEMRK","cs_wg_rev_conf_v2_pilot1","3TPWUS5F892KZH5ERX5ML813EB8CW4","95","0","AVOCADO","10","GRENADE","9","0","2666",,,,,"0","2018-10-04 20:38:02","264040"
"A3DA9VCFVY24TR","cs_wg_rev_conf_v2_pilot1","3PJ71Z61R43P0II8IP6AQSA1CDW19D","16","0","BAKER","15","LIZARD","10","0","1253",,,,,"0","2018-10-04 20:38:03","264041"
"A1W90OQ8WBLGUI","cs_wg_rev_conf_v2_pilot1","3Z3ZLGNNSIVR2KD9MVVF0GFNKXE3QT","128","0","PUMPKIN","1","BICYCLE","6","1","1556",,,,,"0","2018-10-04 20:38:04","264042"
"A3DA9VCFVY24TR","cs_wg_rev_conf_v2_pilot1","3PJ71Z61R43P0II8IP6AQSA1CDW19D","17","0","BAKER","15","AIRBAG","6","0","1414",,,,,"0","2018-10-04 20:38:06","264043"
"A1W90OQ8WBLGUI","cs_wg_rev_conf_v2_pilot1","3Z3ZLGNNSIVR2KD9MVVF0GFNKXE3QT","129","0","PUMPKIN","1","HOCKEY","15","1","1670",,,,,"0","2018-10-04 20:38:08","264044"
"A3DA9VCFVY24TR","cs_wg_rev_conf_v2_pilot1","3PJ71Z61R43P0II8IP6AQSA1CDW19D","18","0","TOMATO","9","VOLCANO","10","0","1362",,,,,"0","2018-10-04 20:38:10","264045"
"A2653BIPJKEMRK","cs_wg_rev_conf_v2_pilot1","3TPWUS5F892KZH5ERX5ML813EB8CW4","96","0","BICYCLE","10","PELICAN","7","0","8136",,,,,"0","2018-10-04 20:38:11","264046"
"A1W90OQ8WBLGUI","cs_wg_rev_conf_v2_pilot1","3Z3ZLGNNSIVR2KD9MVVF0GFNKXE3QT","130","0","BANANA","10","AVOCADO","9","0","1509",,,,,"0","2018-10-04 20:38:12","264047"
"A3DA9VCFVY24TR","cs_wg_rev_conf_v2_pilot1","3PJ71Z61R43P0II8IP6AQSA1CDW19D","19","0","BAKER","15","BUCKET","8","0","1019",,,,,"0","2018-10-04 20:38:13","264048"
"A2653BIPJKEMRK","cs_wg_rev_conf_v2_pilot1","3TPWUS5F892KZH5ERX5ML813EB8CW4","97","0","BASKET","15","BLOUSE","8","0","778",,,,,"0","2018-10-04 20:38:13","264049"
"A1W90OQ8WBLGUI","cs_wg_rev_conf_v2_pilot1","3Z3ZLGNNSIVR2KD9MVVF0GFNKXE3QT","131","0","AIRBAG","10","SKUNK","8","0","1721",,,,,"0","2018-10-04 20:38:16","264050"
"A2653BIPJKEMRK","cs_wg_rev_conf_v2_pilot1","3TPWUS5F892KZH5ERX5ML813EB8CW4","98","0","WIZARD","7","BASKET","15","1","2002",,,,,"0","2018-10-04 20:38:17","264051"
"A3DA9VCFVY24TR","cs_wg_rev_conf_v2_pilot1","3PJ71Z61R43P0II8IP6AQSA1CDW19D","20","0","COWBOY","6","TOMATO","9","0","3451",,,,,"0","2018-10-04 20:38:19","264052"
"A3DA9VCFVY24TR","cs_wg_rev_conf_v2_pilot1","3PJ71Z61R43P0II8IP6AQSA1CDW19D","21","0","TOMATO","9","COWBOY","6","0","2071",,,,,"0","2018-10-04 20:38:23","264053"
"A2653BIPJKEMRK","cs_wg_rev_conf_v2_pilot1","3TPWUS5F892KZH5ERX5ML813EB8CW4","99","0","PELICAN","7","BLOUSE","8","1","5165",,,,,"0","2018-10-04 20:38:24","264054"
"A3DA9VCFVY24TR","cs_wg_rev_conf_v2_pilot1","3PJ71Z61R43P0II8IP6AQSA1CDW19D","22","0","PALACE","7","BAKER","15","0","1460",,,,,"0","2018-10-04 20:38:27","264055"
"A2653BIPJKEMRK","cs_wg_rev_conf_v2_pilot1","3TPWUS5F892KZH5ERX5ML813EB8CW4","100","0","GRENADE","9","BLOUSE","8","0","1366",,,,,"0","2018-10-04 20:38:27","264056"
"A2653BIPJKEMRK","cs_wg_rev_conf_v2_pilot1","3TPWUS5F892KZH5ERX5ML813EB8CW4","101","0","CANCER","9","NAPKIN","1","0","688",,,,,"0","2018-10-04 20:38:29","264057"
"A2653BIPJKEMRK","cs_wg_rev_conf_v2_pilot1","3TPWUS5F892KZH5ERX5ML813EB8CW4","102","0","GRENADE","9","AVOCADO","10","0","717",,,,,"0","2018-10-04 20:38:32","264058"
"A3DA9VCFVY24TR","cs_wg_rev_conf_v2_pilot1","3PJ71Z61R43P0II8IP6AQSA1CDW19D","23","0","LIZARD","10","BAKER","15","1","3615",,,,,"0","2018-10-04 20:38:33","264059"
"A2653BIPJKEMRK","cs_wg_rev_conf_v2_pilot1","3TPWUS5F892KZH5ERX5ML813EB8CW4","103","0","COWBOY","6","WIZARD","7","1","2053",,,,,"0","2018-10-04 20:38:36","264060"
"A3DA9VCFVY24TR","cs_wg_rev_conf_v2_pilot1","3PJ71Z61R43P0II8IP6AQSA1CDW19D","24","0","PENGUIN","8","PALACE","7","0","1147",,,,,"0","2018-10-04 20:38:36","264061"
"A2653BIPJKEMRK","cs_wg_rev_conf_v2_pilot1","3TPWUS5F892KZH5ERX5ML813EB8CW4","104","0","WIZARD","7","CRICKET","8","1","2150",,,,,"0","2018-10-04 20:38:40","264062"
"A3DA9VCFVY24TR","cs_wg_rev_conf_v2_pilot1","3PJ71Z61R43P0II8IP6AQSA1CDW19D","25","0","CRICKET","1","TOMATO","9","1","3658",,,,,"0","2018-10-04 20:38:42","264063"
"A2653BIPJKEMRK","cs_wg_rev_conf_v2_pilot1","3TPWUS5F892KZH5ERX5ML813EB8CW4","105","0","BLOUSE","8","CANCER","9","1","3985",,,,,"0","2018-10-04 20:38:46","264064"
"A3DA9VCFVY24TR","cs_wg_rev_conf_v2_pilot1","3PJ71Z61R43P0II8IP6AQSA1CDW19D","26","0","COWBOY","6","CANCER","7","1","4167",,,,,"0","2018-10-04 20:38:49","264065"
"A2653BIPJKEMRK","cs_wg_rev_conf_v2_pilot1","3TPWUS5F892KZH5ERX5ML813EB8CW4","106","0","PELICAN","7","GRENADE","9","1","2259",,,,,"0","2018-10-04 20:38:50","264066"
"A3DA9VCFVY24TR","cs_wg_rev_conf_v2_pilot1","3PJ71Z61R43P0II8IP6AQSA1CDW19D","27","0","TOMATO","9","BUCKET","8","0","1612",,,,,"0","2018-10-04 20:38:53","264067"
"A2653BIPJKEMRK","cs_wg_rev_conf_v2_pilot1","3TPWUS5F892KZH5ERX5ML813EB8CW4","107","0","BLOUSE","8","GRENADE","9","1","1662",,,,,"0","2018-10-04 20:38:54","264068"
"A3DA9VCFVY24TR","cs_wg_rev_conf_v2_pilot1","3PJ71Z61R43P0II8IP6AQSA1CDW19D","28","0","VOLCANO","10","PENGUIN","8","0","1522",,,,,"0","2018-10-04 20:38:57","264069"
"A2653BIPJKEMRK","cs_wg_rev_conf_v2_pilot1","3TPWUS5F892KZH5ERX5ML813EB8CW4","108","0","WIZARD","7","CANCER","9","0","1512",,,,,"0","2018-10-04 20:38:57","264070"
"A2653BIPJKEMRK","cs_wg_rev_conf_v2_pilot1","3TPWUS5F892KZH5ERX5ML813EB8CW4","109","0","BASKET","15","NAPKIN","1","0","789",,,,,"0","2018-10-04 20:39:00","264071"
"A3DA9VCFVY24TR","cs_wg_rev_conf_v2_pilot1","3PJ71Z61R43P0II8IP6AQSA1CDW19D","29","0","CANCER","7","COWBOY","6","0","1859",,,,,"0","2018-10-04 20:39:01","264072"
"A2653BIPJKEMRK","cs_wg_rev_conf_v2_pilot1","3TPWUS5F892KZH5ERX5ML813EB8CW4","110","0","COWBOY","6","BASKET","15","1","1787",,,,,"0","2018-10-04 20:39:03","264073"
"A3DA9VCFVY24TR","cs_wg_rev_conf_v2_pilot1","3PJ71Z61R43P0II8IP6AQSA1CDW19D","30","0","BAKER","15","PENGUIN","8","0","1166",,,,,"0","2018-10-04 20:39:04","264074"
"A2653BIPJKEMRK","cs_wg_rev_conf_v2_pilot1","3TPWUS5F892KZH5ERX5ML813EB8CW4","111","0","AVOCADO","10","WIZARD","7","0","1159",,,,,"0","2018-10-04 20:39:06","264075"
"A2653BIPJKEMRK","cs_wg_rev_conf_v2_pilot1","3TPWUS5F892KZH5ERX5ML813EB8CW4","112","0","AVOCADO","10","BASKET","15","1","1589",,,,,"0","2018-10-04 20:39:09","264076"
"A3DA9VCFVY24TR","cs_wg_rev_conf_v2_pilot1","3PJ71Z61R43P0II8IP6AQSA1CDW19D","31","0","COWBOY","6","LIZARD","10","1","3131",,,,,"0","2018-10-04 20:39:09","264077"
"A2653BIPJKEMRK","cs_wg_rev_conf_v2_pilot1","3TPWUS5F892KZH5ERX5ML813EB8CW4","113","0","GRENADE","9","BICYCLE","10","0","2216",,,,,"0","2018-10-04 20:39:13","264078"
"A3DA9VCFVY24TR","cs_wg_rev_conf_v2_pilot1","3PJ71Z61R43P0II8IP6AQSA1CDW19D","32","0","PALACE","7","CRICKET","1","0","1588",,,,,"0","2018-10-04 20:39:13","264079"
"A3DA9VCFVY24TR","cs_wg_rev_conf_v2_pilot1","3PJ71Z61R43P0II8IP6AQSA1CDW19D","33","0","LIZARD","10","AIRBAG","6","0","1268",,,,,"0","2018-10-04 20:39:17","264080"
"A2653BIPJKEMRK","cs_wg_rev_conf_v2_pilot1","3TPWUS5F892KZH5ERX5ML813EB8CW4","114","0","CRICKET","8","AVOCADO","10","1","2232",,,,,"0","2018-10-04 20:39:17","264081"
"A3DA9VCFVY24TR","cs_wg_rev_conf_v2_pilot1","3PJ71Z61R43P0II8IP6AQSA1CDW19D","34","0","PALACE","7","AIRBAG","6","0","1246",,,,,"0","2018-10-04 20:39:20","264082"
"A2653BIPJKEMRK","cs_wg_rev_conf_v2_pilot1","3TPWUS5F892KZH5ERX5ML813EB8CW4","115","0","BICYCLE","10","BLOUSE","8","0","1950",,,,,"0","2018-10-04 20:39:21","264083"
"A2653BIPJKEMRK","cs_wg_rev_conf_v2_pilot1","3TPWUS5F892KZH5ERX5ML813EB8CW4","116","0","CRICKET","8","NAPKIN","1","0","1131",,,,,"0","2018-10-04 20:39:23","264084"
"A3DA9VCFVY24TR","cs_wg_rev_conf_v2_pilot1","3PJ71Z61R43P0II8IP6AQSA1CDW19D","35","0","BUCKET","8","CANCER","7","0","2614",,,,,"0","2018-10-04 20:39:25","264085"
"A2653BIPJKEMRK","cs_wg_rev_conf_v2_pilot1","3TPWUS5F892KZH5ERX5ML813EB8CW4","117","0","COWBOY","6","CANCER","9","1","1843",,,,,"0","2018-10-04 20:39:27","264086"
"A3DA9VCFVY24TR","cs_wg_rev_conf_v2_pilot1","3PJ71Z61R43P0II8IP6AQSA1CDW19D","36","0","BUCKET","8","CRICKET","1","0","715",,,,,"0","2018-10-04 20:39:27","264087"
"A2653BIPJKEMRK","cs_wg_rev_conf_v2_pilot1","3TPWUS5F892KZH5ERX5ML813EB8CW4","118","0","BICYCLE","10","COWBOY","6","0","1457",,,,,"0","2018-10-04 20:39:30","264088"
"A3DA9VCFVY24TR","cs_wg_rev_conf_v2_pilot1","3PJ71Z61R43P0II8IP6AQSA1CDW19D","37","0","LIZARD","10","COWBOY","6","0","3984",,,,,"0","2018-10-04 20:39:34","264089"
"A2653BIPJKEMRK","cs_wg_rev_conf_v2_pilot1","3TPWUS5F892KZH5ERX5ML813EB8CW4","119","0","WIZARD","7","BICYCLE","10","1","2228",,,,,"0","2018-10-04 20:39:34","264090"
"A2653BIPJKEMRK","cs_wg_rev_conf_v2_pilot1","3TPWUS5F892KZH5ERX5ML813EB8CW4","120","0","GRENADE","9","VOLCANO","6","0","1359",,,,,"0","2018-10-04 20:39:37","264091"
"A3DA9VCFVY24TR","cs_wg_rev_conf_v2_pilot1","3PJ71Z61R43P0II8IP6AQSA1CDW19D","38","0","CANCER","7","ACROBAT","9","0","1628",,,,,"0","2018-10-04 20:39:38","264092"
"A2653BIPJKEMRK","cs_wg_rev_conf_v2_pilot1","3TPWUS5F892KZH5ERX5ML813EB8CW4","121","0","BICYCLE","10","WIZARD","7","1","1984",,,,,"0","2018-10-04 20:39:41","264093"
"A3DA9VCFVY24TR","cs_wg_rev_conf_v2_pilot1","3PJ71Z61R43P0II8IP6AQSA1CDW19D","39","0","PALACE","7","LIZARD","10","0","1647",,,,,"0","2018-10-04 20:39:42","264094"
"A2653BIPJKEMRK","cs_wg_rev_conf_v2_pilot1","3TPWUS5F892KZH5ERX5ML813EB8CW4","122","0","BLOUSE","8","PELICAN","7","0","1899",,,,,"0","2018-10-04 20:39:45","264095"
"A3DA9VCFVY24TR","cs_wg_rev_conf_v2_pilot1","3PJ71Z61R43P0II8IP6AQSA1CDW19D","40","0","CANCER","7","TOMATO","9","0","3453",,,,,"0","2018-10-04 20:39:47","264096"
"A2653BIPJKEMRK","cs_wg_rev_conf_v2_pilot1","3TPWUS5F892KZH5ERX5ML813EB8CW4","123","0","CRICKET","8","BASKET","15","1","1836",,,,,"0","2018-10-04 20:39:48","264097"
"A3DA9VCFVY24TR","cs_wg_rev_conf_v2_pilot1","3PJ71Z61R43P0II8IP6AQSA1CDW19D","41","0","PENGUIN","8","TOMATO","9","0","1840",,,,,"0","2018-10-04 20:39:51","264098"
"A2653BIPJKEMRK","cs_wg_rev_conf_v2_pilot1","3TPWUS5F892KZH5ERX5ML813EB8CW4","124","0","PELICAN","7","AVOCADO","10","1","2365",,,,,"0","2018-10-04 20:39:52","264099"
"A2653BIPJKEMRK","cs_wg_rev_conf_v2_pilot1","3TPWUS5F892KZH5ERX5ML813EB8CW4","125","0","AVOCADO","10","PELICAN","7","0","976",,,,,"0","2018-10-04 20:39:54","264100"
"A3DA9VCFVY24TR","cs_wg_rev_conf_v2_pilot1","3PJ71Z61R43P0II8IP6AQSA1CDW19D","42","0","AIRBAG","6","TOMATO","9","0","1955",,,,,"0","2018-10-04 20:39:55","264101"
"A2653BIPJKEMRK","cs_wg_rev_conf_v2_pilot1","3TPWUS5F892KZH5ERX5ML813EB8CW4","126","0","BASKET","15","GRENADE","9","0","719",,,,,"0","2018-10-04 20:39:57","264102"
"A3DA9VCFVY24TR","cs_wg_rev_conf_v2_pilot1","3PJ71Z61R43P0II8IP6AQSA1CDW19D","43","0","LIZARD","10","ACROBAT","9","0","1452",,,,,"0","2018-10-04 20:39:59","264103"
"A2653BIPJKEMRK","cs_wg_rev_conf_v2_pilot1","3TPWUS5F892KZH5ERX5ML813EB8CW4","127","0","VOLCANO","6","CANCER","9","1","1663",,,,,"0","2018-10-04 20:40:00","264104"
"A2653BIPJKEMRK","cs_wg_rev_conf_v2_pilot1","3TPWUS5F892KZH5ERX5ML813EB8CW4","128","0","NAPKIN","1","BLOUSE","8","1","1346",,,,,"0","2018-10-04 20:40:03","264105"
"A3DA9VCFVY24TR","cs_wg_rev_conf_v2_pilot1","3PJ71Z61R43P0II8IP6AQSA1CDW19D","44","0","CRICKET","1","PALACE","7","1","2617",,,,,"0","2018-10-04 20:40:04","264106"
"A2653BIPJKEMRK","cs_wg_rev_conf_v2_pilot1","3TPWUS5F892KZH5ERX5ML813EB8CW4","129","0","COWBOY","6","AVOCADO","10","1","1667",,,,,"0","2018-10-04 20:40:06","264107"
"A3DA9VCFVY24TR","cs_wg_rev_conf_v2_pilot1","3PJ71Z61R43P0II8IP6AQSA1CDW19D","45","0","BAKER","15","CANCER","7","0","850",,,,,"0","2018-10-04 20:40:07","264108"
"A2653BIPJKEMRK","cs_wg_rev_conf_v2_pilot1","3TPWUS5F892KZH5ERX5ML813EB8CW4","130","0","BLOUSE","8","VOLCANO","6","0","1783",,,,,"0","2018-10-04 20:40:10","264109"
"A3DA9VCFVY24TR","cs_wg_rev_conf_v2_pilot1","3PJ71Z61R43P0II8IP6AQSA1CDW19D","46","0","PALACE","7","COWBOY","6","0","1254",,,,,"0","2018-10-04 20:40:10","264110"
"A2653BIPJKEMRK","cs_wg_rev_conf_v2_pilot1","3TPWUS5F892KZH5ERX5ML813EB8CW4","131","0","AVOCADO","10","NAPKIN","1","0","1198",,,,,"0","2018-10-04 20:40:12","264111"
"A3DA9VCFVY24TR","cs_wg_rev_conf_v2_pilot1","3PJ71Z61R43P0II8IP6AQSA1CDW19D","47","0","AIRBAG","6","PENGUIN","8","1","2042",,,,,"0","2018-10-04 20:40:18","264112"
"A3DA9VCFVY24TR","cs_wg_rev_conf_v2_pilot1","3PJ71Z61R43P0II8IP6AQSA1CDW19D","48","0","CRICKET","1","AIRBAG","6","0","2334",,,,,"0","2018-10-04 20:40:22","264113"
"A3DA9VCFVY24TR","cs_wg_rev_conf_v2_pilot1","3PJ71Z61R43P0II8IP6AQSA1CDW19D","49","0","CRICKET","1","COWBOY","6","1","3014",,,,,"0","2018-10-04 20:40:28","264114"
"A3DA9VCFVY24TR","cs_wg_rev_conf_v2_pilot1","3PJ71Z61R43P0II8IP6AQSA1CDW19D","50","0","COWBOY","6","AIRBAG","6","0","3582",,,,,"0","2018-10-04 20:40:34","264115"
"A3DA9VCFVY24TR","cs_wg_rev_conf_v2_pilot1","3PJ71Z61R43P0II8IP6AQSA1CDW19D","51","0","CANCER","7","PALACE","7","1","2481",,,,,"0","2018-10-04 20:40:39","264116"
"A3DA9VCFVY24TR","cs_wg_rev_conf_v2_pilot1","3PJ71Z61R43P0II8IP6AQSA1CDW19D","52","0","BUCKET","8","PENGUIN","8","0","2581",,,,,"0","2018-10-04 20:40:44","264117"
"A3DA9VCFVY24TR","cs_wg_rev_conf_v2_pilot1","3PJ71Z61R43P0II8IP6AQSA1CDW19D","53","0","BUCKET","8","LIZARD","10","0","1064",,,,,"0","2018-10-04 20:40:47","264118"
"A3DA9VCFVY24TR","cs_wg_rev_conf_v2_pilot1","3PJ71Z61R43P0II8IP6AQSA1CDW19D","54","0","COWBOY","6","VOLCANO","10","1","2215",,,,,"0","2018-10-04 20:40:51","264119"
"A3DA9VCFVY24TR","cs_wg_rev_conf_v2_pilot1","3PJ71Z61R43P0II8IP6AQSA1CDW19D","55","0","LIZARD","10","CRICKET","1","0","1235",,,,,"0","2018-10-04 20:40:55","264120"
"A3DA9VCFVY24TR","cs_wg_rev_conf_v2_pilot1","3PJ71Z61R43P0II8IP6AQSA1CDW19D","56","0","TOMATO","9","AIRBAG","6","0","2668",,,,,"0","2018-10-04 20:40:59","264121"
"A3DA9VCFVY24TR","cs_wg_rev_conf_v2_pilot1","3PJ71Z61R43P0II8IP6AQSA1CDW19D","57","0","VOLCANO","10","BUCKET","8","0","1535",,,,,"0","2018-10-04 20:41:03","264122"
"A3DA9VCFVY24TR","cs_wg_rev_conf_v2_pilot1","3PJ71Z61R43P0II8IP6AQSA1CDW19D","58","0","ACROBAT","9","PALACE","7","0","1628",,,,,"0","2018-10-04 20:41:07","264123"
"A3DA9VCFVY24TR","cs_wg_rev_conf_v2_pilot1","3PJ71Z61R43P0II8IP6AQSA1CDW19D","59","0","COWBOY","6","BAKER","15","1","2596",,,,,"0","2018-10-04 20:41:12","264124"
"A3DA9VCFVY24TR","cs_wg_rev_conf_v2_pilot1","3PJ71Z61R43P0II8IP6AQSA1CDW19D","60","0","BUCKET","8","VOLCANO","10","1","9454",,,,,"0","2018-10-04 20:41:24","264125"
"A3DA9VCFVY24TR","cs_wg_rev_conf_v2_pilot1","3PJ71Z61R43P0II8IP6AQSA1CDW19D","61","0","VOLCANO","10","AIRBAG","6","0","2344",,,,,"0","2018-10-04 20:41:32","264126"
"A3DA9VCFVY24TR","cs_wg_rev_conf_v2_pilot1","3PJ71Z61R43P0II8IP6AQSA1CDW19D","62","0","CRICKET","1","LIZARD","10","1","3247",,,,,"0","2018-10-04 20:41:38","264127"
"A3DA9VCFVY24TR","cs_wg_rev_conf_v2_pilot1","3PJ71Z61R43P0II8IP6AQSA1CDW19D","63","0","PALACE","7","CANCER","7","0","6241",,,,,"0","2018-10-04 20:41:46","264128"
"A3DA9VCFVY24TR","cs_wg_rev_conf_v2_pilot1","3PJ71Z61R43P0II8IP6AQSA1CDW19D","64","0","COWBOY","6","BUCKET","8","1","2736",,,,,"0","2018-10-04 20:41:52","264129"
"A3DA9VCFVY24TR","cs_wg_rev_conf_v2_pilot1","3PJ71Z61R43P0II8IP6AQSA1CDW19D","65","0","BAKER","15","PALACE","7","0","3140",,,,,"0","2018-10-04 20:41:58","264130"
"A3DA9VCFVY24TR","cs_wg_rev_conf_v2_pilot1","3PJ71Z61R43P0II8IP6AQSA1CDW19D","66","0","VOLCANO","10","CRICKET","1","0","2167",,,,,"0","2018-10-04 20:42:02","264131"
"A3DA9VCFVY24TR","cs_wg_rev_conf_v2_pilot1","3PJ71Z61R43P0II8IP6AQSA1CDW19D","67","0","LIZARD","10","PALACE","7","0","1913",,,,,"0","2018-10-04 20:42:07","264132"
"A3DA9VCFVY24TR","cs_wg_rev_conf_v2_pilot1","3PJ71Z61R43P0II8IP6AQSA1CDW19D","68","0","CRICKET","1","ACROBAT","9","1","1611",,,,,"0","2018-10-04 20:42:11","264133"
"A3DA9VCFVY24TR","cs_wg_rev_conf_v2_pilot1","3PJ71Z61R43P0II8IP6AQSA1CDW19D","69","0","PALACE","7","ACROBAT","9","0","3305",,,,,"0","2018-10-04 20:42:16","264134"
"A3DA9VCFVY24TR","cs_wg_rev_conf_v2_pilot1","3PJ71Z61R43P0II8IP6AQSA1CDW19D","70","0","PALACE","7","PENGUIN","8","0","1588",,,,,"0","2018-10-04 20:42:20","264135"
"A3DA9VCFVY24TR","cs_wg_rev_conf_v2_pilot1","3PJ71Z61R43P0II8IP6AQSA1CDW19D","71","0","CRICKET","1","VOLCANO","10","1","2109",,,,,"0","2018-10-04 20:42:25","264136"
"A3DA9VCFVY24TR","cs_wg_rev_conf_v2_pilot1","3PJ71Z61R43P0II8IP6AQSA1CDW19D","72","0","PENGUIN","8","CANCER","7","0","1869",,,,,"0","2018-10-04 20:42:29","264137"
"A3DA9VCFVY24TR","cs_wg_rev_conf_v2_pilot1","3PJ71Z61R43P0II8IP6AQSA1CDW19D","73","0","CANCER","7","CRICKET","1","0","2751",,,,,"0","2018-10-04 20:42:34","264138"
"A3DA9VCFVY24TR","cs_wg_rev_conf_v2_pilot1","3PJ71Z61R43P0II8IP6AQSA1CDW19D","74","0","CRICKET","1","CANCER","7","1","1710",,,,,"0","2018-10-04 20:42:38","264139"
"A3DA9VCFVY24TR","cs_wg_rev_conf_v2_pilot1","3PJ71Z61R43P0II8IP6AQSA1CDW19D","75","0","VOLCANO","10","CANCER","7","0","2533",,,,,"0","2018-10-04 20:42:43","264140"
"A3DA9VCFVY24TR","cs_wg_rev_conf_v2_pilot1","3PJ71Z61R43P0II8IP6AQSA1CDW19D","76","0","AIRBAG","6","BUCKET","8","1","1762",,,,,"0","2018-10-04 20:42:48","264141"
"A3DA9VCFVY24TR","cs_wg_rev_conf_v2_pilot1","3PJ71Z61R43P0II8IP6AQSA1CDW19D","77","0","LIZARD","10","PENGUIN","8","0","980",,,,,"0","2018-10-04 20:42:51","264142"
"A3DA9VCFVY24TR","cs_wg_rev_conf_v2_pilot1","3PJ71Z61R43P0II8IP6AQSA1CDW19D","78","0","BUCKET","8","PALACE","7","0","2409",,,,,"0","2018-10-04 20:42:56","264143"
"A3DA9VCFVY24TR","cs_wg_rev_conf_v2_pilot1","3PJ71Z61R43P0II8IP6AQSA1CDW19D","79","0","CANCER","7","BUCKET","8","1","3711",,,,,"0","2018-10-04 20:43:02","264144"
"A3DA9VCFVY24TR","cs_wg_rev_conf_v2_pilot1","3PJ71Z61R43P0II8IP6AQSA1CDW19D","80","0","CRICKET","1","BAKER","15","1","2014",,,,,"0","2018-10-04 20:43:07","264145"
"A3DA9VCFVY24TR","cs_wg_rev_conf_v2_pilot1","3PJ71Z61R43P0II8IP6AQSA1CDW19D","81","0","AIRBAG","6","BAKER","15","1","1470",,,,,"0","2018-10-04 20:43:11","264146"
"A3DA9VCFVY24TR","cs_wg_rev_conf_v2_pilot1","3PJ71Z61R43P0II8IP6AQSA1CDW19D","82","0","PALACE","7","TOMATO","9","0","3323",,,,,"0","2018-10-04 20:43:17","264147"
"A3DA9VCFVY24TR","cs_wg_rev_conf_v2_pilot1","3PJ71Z61R43P0II8IP6AQSA1CDW19D","83","0","BAKER","15","VOLCANO","10","0","1561",,,,,"0","2018-10-04 20:43:21","264148"
"A3DA9VCFVY24TR","cs_wg_rev_conf_v2_pilot1","3PJ71Z61R43P0II8IP6AQSA1CDW19D","84","0","TOMATO","9","BAKER","15","1","1549",,,,,"0","2018-10-04 20:43:25","264149"
"A3DA9VCFVY24TR","cs_wg_rev_conf_v2_pilot1","3PJ71Z61R43P0II8IP6AQSA1CDW19D","85","0","VOLCANO","10","LIZARD","10","1","1798",,,,,"0","2018-10-04 20:43:29","264150"
"A3DA9VCFVY24TR","cs_wg_rev_conf_v2_pilot1","3PJ71Z61R43P0II8IP6AQSA1CDW19D","86","0","CANCER","7","AIRBAG","6","0","1418",,,,,"0","2018-10-04 20:43:33","264151"
"A3DA9VCFVY24TR","cs_wg_rev_conf_v2_pilot1","3PJ71Z61R43P0II8IP6AQSA1CDW19D","87","0","PENGUIN","8","COWBOY","6","0","1207",,,,,"0","2018-10-04 20:43:36","264152"
"A3DA9VCFVY24TR","cs_wg_rev_conf_v2_pilot1","3PJ71Z61R43P0II8IP6AQSA1CDW19D","88","0","BAKER","15","ACROBAT","9","0","1381",,,,,"0","2018-10-04 20:43:40","264153"
"A3DA9VCFVY24TR","cs_wg_rev_conf_v2_pilot1","3PJ71Z61R43P0II8IP6AQSA1CDW19D","89","0","VOLCANO","10","BAKER","15","1","3480",,,,,"0","2018-10-04 20:43:46","264154"
"A3DA9VCFVY24TR","cs_wg_rev_conf_v2_pilot1","3PJ71Z61R43P0II8IP6AQSA1CDW19D","90","0","BUCKET","8","COWBOY","6","0","3640",,,,,"0","2018-10-04 20:43:52","264155"
"A3DA9VCFVY24TR","cs_wg_rev_conf_v2_pilot1","3PJ71Z61R43P0II8IP6AQSA1CDW19D","91","0","BUCKET","8","AIRBAG","6","0","1523",,,,,"0","2018-10-04 20:43:56","264156"
"A3DA9VCFVY24TR","cs_wg_rev_conf_v2_pilot1","3PJ71Z61R43P0II8IP6AQSA1CDW19D","92","0","CANCER","7","LIZARD","10","1","1350",,,,,"0","2018-10-04 20:43:59","264157"
"A3DA9VCFVY24TR","cs_wg_rev_conf_v2_pilot1","3PJ71Z61R43P0II8IP6AQSA1CDW19D","93","0","PENGUIN","8","LIZARD","10","0","1177",,,,,"0","2018-10-04 20:44:04","264158"
"A3DA9VCFVY24TR","cs_wg_rev_conf_v2_pilot1","3PJ71Z61R43P0II8IP6AQSA1CDW19D","94","0","PENGUIN","8","BAKER","15","1","4458",,,,,"0","2018-10-04 20:44:11","264159"
"A3DA9VCFVY24TR","cs_wg_rev_conf_v2_pilot1","3PJ71Z61R43P0II8IP6AQSA1CDW19D","95","0","ACROBAT","9","TOMATO","9","0","1982",,,,,"0","2018-10-04 20:44:15","264160"
"A3DA9VCFVY24TR","cs_wg_rev_conf_v2_pilot1","3PJ71Z61R43P0II8IP6AQSA1CDW19D","96","0","LIZARD","10","VOLCANO","10","0","1190",,,,,"0","2018-10-04 20:44:19","264161"
"A3DA9VCFVY24TR","cs_wg_rev_conf_v2_pilot1","3PJ71Z61R43P0II8IP6AQSA1CDW19D","97","0","BUCKET","8","TOMATO","9","0","2047",,,,,"0","2018-10-04 20:44:24","264162"
"A3DA9VCFVY24TR","cs_wg_rev_conf_v2_pilot1","3PJ71Z61R43P0II8IP6AQSA1CDW19D","98","0","TOMATO","9","ACROBAT","9","1","2465",,,,,"0","2018-10-04 20:44:29","264163"
"A3DA9VCFVY24TR","cs_wg_rev_conf_v2_pilot1","3PJ71Z61R43P0II8IP6AQSA1CDW19D","99","0","PENGUIN","8","ACROBAT","9","0","1515",,,,,"0","2018-10-04 20:44:33","264164"
"A3DA9VCFVY24TR","cs_wg_rev_conf_v2_pilot1","3PJ71Z61R43P0II8IP6AQSA1CDW19D","100","0","VOLCANO","10","COWBOY","6","0","1233",,,,,"0","2018-10-04 20:44:38","264165"
"A3DA9VCFVY24TR","cs_wg_rev_conf_v2_pilot1","3PJ71Z61R43P0II8IP6AQSA1CDW19D","101","0","PALACE","7","BUCKET","8","0","2745",,,,,"0","2018-10-04 20:44:44","264166"
"A3DA9VCFVY24TR","cs_wg_rev_conf_v2_pilot1","3PJ71Z61R43P0II8IP6AQSA1CDW19D","102","0","BAKER","15","CRICKET","1","0","1457",,,,,"0","2018-10-04 20:44:48","264167"
"A3DA9VCFVY24TR","cs_wg_rev_conf_v2_pilot1","3PJ71Z61R43P0II8IP6AQSA1CDW19D","103","0","COWBOY","6","CRICKET","1","0","1746",,,,,"0","2018-10-04 20:44:52","264168"
"A3DA9VCFVY24TR","cs_wg_rev_conf_v2_pilot1","3PJ71Z61R43P0II8IP6AQSA1CDW19D","104","0","AIRBAG","6","PALACE","7","1","2067",,,,,"0","2018-10-04 20:44:56","264169"
"A3DA9VCFVY24TR","cs_wg_rev_conf_v2_pilot1","3PJ71Z61R43P0II8IP6AQSA1CDW19D","105","0","TOMATO","9","PENGUIN","8","0","2260",,,,,"0","2018-10-04 20:45:01","264170"
"A3DA9VCFVY24TR","cs_wg_rev_conf_v2_pilot1","3PJ71Z61R43P0II8IP6AQSA1CDW19D","106","0","AIRBAG","6","CANCER","7","1","1924",,,,,"0","2018-10-04 20:45:05","264171"
"A3DA9VCFVY24TR","cs_wg_rev_conf_v2_pilot1","3PJ71Z61R43P0II8IP6AQSA1CDW19D","107","0","AIRBAG","6","LIZARD","10","1","2159",,,,,"0","2018-10-04 20:45:10","264172"
"A3DA9VCFVY24TR","cs_wg_rev_conf_v2_pilot1","3PJ71Z61R43P0II8IP6AQSA1CDW19D","108","0","AIRBAG","6","COWBOY","6","0","2330",,,,,"0","2018-10-04 20:45:14","264173"
"A3DA9VCFVY24TR","cs_wg_rev_conf_v2_pilot1","3PJ71Z61R43P0II8IP6AQSA1CDW19D","109","0","CANCER","7","PENGUIN","8","1","3339",,,,,"0","2018-10-04 20:45:20","264174"
"A3DA9VCFVY24TR","cs_wg_rev_conf_v2_pilot1","3PJ71Z61R43P0II8IP6AQSA1CDW19D","110","0","ACROBAT","9","VOLCANO","10","1","3900",,,,,"0","2018-10-04 20:45:27","264175"
"A3DA9VCFVY24TR","cs_wg_rev_conf_v2_pilot1","3PJ71Z61R43P0II8IP6AQSA1CDW19D","111","0","ACROBAT","9","COWBOY","6","0","2774",,,,,"0","2018-10-04 20:45:32","264176"
"A3DA9VCFVY24TR","cs_wg_rev_conf_v2_pilot1","3PJ71Z61R43P0II8IP6AQSA1CDW19D","112","0","ACROBAT","9","CANCER","7","0","2824",,,,,"0","2018-10-04 20:45:37","264177"
"A3DA9VCFVY24TR","cs_wg_rev_conf_v2_pilot1","3PJ71Z61R43P0II8IP6AQSA1CDW19D","113","0","ACROBAT","9","LIZARD","10","1","2599",,,,,"0","2018-10-04 20:45:42","264178"
"A3DA9VCFVY24TR","cs_wg_rev_conf_v2_pilot1","3PJ71Z61R43P0II8IP6AQSA1CDW19D","114","0","COWBOY","6","PENGUIN","8","1","4946",,,,,"0","2018-10-04 20:45:50","264179"
"A3DA9VCFVY24TR","cs_wg_rev_conf_v2_pilot1","3PJ71Z61R43P0II8IP6AQSA1CDW19D","115","0","CANCER","7","BAKER","15","1","3431",,,,,"0","2018-10-04 20:45:57","264180"
"A3DA9VCFVY24TR","cs_wg_rev_conf_v2_pilot1","3PJ71Z61R43P0II8IP6AQSA1CDW19D","116","0","CANCER","7","VOLCANO","10","1","3688",,,,,"0","2018-10-04 20:46:03","264181"
"A3DA9VCFVY24TR","cs_wg_rev_conf_v2_pilot1","3PJ71Z61R43P0II8IP6AQSA1CDW19D","117","0","TOMATO","9","CRICKET","1","0","2128",,,,,"0","2018-10-04 20:46:08","264182"
"A3DA9VCFVY24TR","cs_wg_rev_conf_v2_pilot1","3PJ71Z61R43P0II8IP6AQSA1CDW19D","118","0","BUCKET","8","BAKER","15","1","3213",,,,,"0","2018-10-04 20:46:14","264183"
"A3DA9VCFVY24TR","cs_wg_rev_conf_v2_pilot1","3PJ71Z61R43P0II8IP6AQSA1CDW19D","119","0","LIZARD","10","TOMATO","9","0","1068",,,,,"0","2018-10-04 20:46:18","264184"
"A3DA9VCFVY24TR","cs_wg_rev_conf_v2_pilot1","3PJ71Z61R43P0II8IP6AQSA1CDW19D","120","0","ACROBAT","9","BUCKET","8","0","1659",,,,,"0","2018-10-04 20:46:22","264185"
"A3DA9VCFVY24TR","cs_wg_rev_conf_v2_pilot1","3PJ71Z61R43P0II8IP6AQSA1CDW19D","121","0","PENGUIN","8","BUCKET","8","0","2422",,,,,"0","2018-10-04 20:46:27","264186"
"A3DA9VCFVY24TR","cs_wg_rev_conf_v2_pilot1","3PJ71Z61R43P0II8IP6AQSA1CDW19D","122","0","AIRBAG","6","CRICKET","1","0","2523",,,,,"0","2018-10-04 20:46:32","264187"
"A3DA9VCFVY24TR","cs_wg_rev_conf_v2_pilot1","3PJ71Z61R43P0II8IP6AQSA1CDW19D","123","0","CRICKET","1","BUCKET","8","1","1730",,,,,"0","2018-10-04 20:46:36","264188"
"A3DA9VCFVY24TR","cs_wg_rev_conf_v2_pilot1","3PJ71Z61R43P0II8IP6AQSA1CDW19D","124","0","CRICKET","1","PENGUIN","8","1","2286",,,,,"0","2018-10-04 20:46:41","264189"
"A3DA9VCFVY24TR","cs_wg_rev_conf_v2_pilot1","3PJ71Z61R43P0II8IP6AQSA1CDW19D","125","0","PALACE","7","VOLCANO","10","1","2429",,,,,"0","2018-10-04 20:46:46","264190"
"A3DA9VCFVY24TR","cs_wg_rev_conf_v2_pilot1","3PJ71Z61R43P0II8IP6AQSA1CDW19D","126","0","COWBOY","6","ACROBAT","9","1","2149",,,,,"0","2018-10-04 20:46:50","264191"
"A3DA9VCFVY24TR","cs_wg_rev_conf_v2_pilot1","3PJ71Z61R43P0II8IP6AQSA1CDW19D","127","0","BAKER","15","TOMATO","9","0","1478",,,,,"0","2018-10-04 20:46:55","264192"
"A3DA9VCFVY24TR","cs_wg_rev_conf_v2_pilot1","3PJ71Z61R43P0II8IP6AQSA1CDW19D","128","0","COWBOY","6","PALACE","7","1","2229",,,,,"0","2018-10-04 20:47:00","264193"
"A3DA9VCFVY24TR","cs_wg_rev_conf_v2_pilot1","3PJ71Z61R43P0II8IP6AQSA1CDW19D","129","0","AIRBAG","6","VOLCANO","10","1","1857",,,,,"0","2018-10-04 20:47:04","264194"
"A3DA9VCFVY24TR","cs_wg_rev_conf_v2_pilot1","3PJ71Z61R43P0II8IP6AQSA1CDW19D","130","0","ACROBAT","9","PENGUIN","8","0","1584",,,,,"0","2018-10-04 20:47:08","264195"
"A3DA9VCFVY24TR","cs_wg_rev_conf_v2_pilot1","3PJ71Z61R43P0II8IP6AQSA1CDW19D","131","0","LIZARD","10","BUCKET","8","0","1051",,,,,"0","2018-10-04 20:47:15","264196"
"AHO3WLNVC3YCG","cs_wg_rev_conf_v2_pilot1","39GAF6DQWR1NXPVBLQB6IAZY35NV1V","0","0","MARKET","8","PELICAN","7","0","32857",,,,,"1","2018-10-04 21:01:08","264197"
"AHO3WLNVC3YCG","cs_wg_rev_conf_v2_pilot1","39GAF6DQWR1NXPVBLQB6IAZY35NV1V","1","0","GRENADE","7","ROCKET","15","1","10340",,,,,"1","2018-10-04 21:01:24","264198"
"ALV4DAF8DIJ37","cs_wg_rev_conf_v2_pilot1","3XCC1ODXDLCJLMYBXLWBIEI3QB2QRS","0","0","PALACE","7","THUMB","8","1","6238",,,,,"0","2018-10-04 21:01:26","264199"
"ALV4DAF8DIJ37","cs_wg_rev_conf_v2_pilot1","3XCC1ODXDLCJLMYBXLWBIEI3QB2QRS","1","0","THUMB","8","PALACE","7","0","4992",,,,,"0","2018-10-04 21:01:36","264200"
"AHO3WLNVC3YCG","cs_wg_rev_conf_v2_pilot1","39GAF6DQWR1NXPVBLQB6IAZY35NV1V","2","0","LIZARD","6","BICYCLE","10","1","8853",,,,,"1","2018-10-04 21:01:36","264201"
"AHO3WLNVC3YCG","cs_wg_rev_conf_v2_pilot1","39GAF6DQWR1NXPVBLQB6IAZY35NV1V","3","0","ROCKET","15","BLANKET","1","0","8083",,,,,"1","2018-10-04 21:01:48","264202"
"AHO3WLNVC3YCG","cs_wg_rev_conf_v2_pilot1","39GAF6DQWR1NXPVBLQB6IAZY35NV1V","4","0","ROCKET","15","PALACE","9","0","7472",,,,,"1","2018-10-04 21:01:59","264203"
"ALV4DAF8DIJ37","cs_wg_rev_conf_v2_pilot1","3XCC1ODXDLCJLMYBXLWBIEI3QB2QRS","2","0","PALACE","7","CHICKEN","15","0","5655",,,,,"0","2018-10-04 21:02:00","264204"
"A2AC7GF5C6QL3B","cs_wg_rev_conf_v2_pilot1","39N5ACM9HEOSHA1A3RH0ROSZFUW9PL","0","0","BASKET","15","POTATO","7","1","4749",,,,,"0","2018-10-04 21:02:06","264205"
"ALV4DAF8DIJ37","cs_wg_rev_conf_v2_pilot1","3XCC1ODXDLCJLMYBXLWBIEI3QB2QRS","3","0","CHICKEN","15","HOCKEY","1","0","2609",,,,,"0","2018-10-04 21:02:10","264206"
"AHO3WLNVC3YCG","cs_wg_rev_conf_v2_pilot1","39GAF6DQWR1NXPVBLQB6IAZY35NV1V","5","0","WIZARD","10","ROCKET","15","1","8478",,,,,"1","2018-10-04 21:02:11","264207"
"A2AC7GF5C6QL3B","cs_wg_rev_conf_v2_pilot1","39N5ACM9HEOSHA1A3RH0ROSZFUW9PL","1","0","NAPKIN","1","CHICKEN","8","0","3254",,,,,"0","2018-10-04 21:02:12","264208"
"A2AC7GF5C6QL3B","cs_wg_rev_conf_v2_pilot1","39N5ACM9HEOSHA1A3RH0ROSZFUW9PL","2","0","POTATO","7","HOUSE","8","0","1314",,,,,"0","2018-10-04 21:02:16","264209"
"ALV4DAF8DIJ37","cs_wg_rev_conf_v2_pilot1","3XCC1ODXDLCJLMYBXLWBIEI3QB2QRS","4","0","CHICKEN","15","HOCKEY","1","0","7081",,,,,"0","2018-10-04 21:02:19","264210"
"A2AC7GF5C6QL3B","cs_wg_rev_conf_v2_pilot1","39N5ACM9HEOSHA1A3RH0ROSZFUW9PL","3","0","BASKET","15","NAPKIN","1","1","1359",,,,,"0","2018-10-04 21:02:20","264211"
"AHO3WLNVC3YCG","cs_wg_rev_conf_v2_pilot1","39GAF6DQWR1NXPVBLQB6IAZY35NV1V","6","0","GROUND","8","BICYCLE","10","1","6956",,,,,"1","2018-10-04 21:02:22","264212"
"ALV4DAF8DIJ37","cs_wg_rev_conf_v2_pilot1","3XCC1ODXDLCJLMYBXLWBIEI3QB2QRS","5","0","HOCKEY","1","PALACE","7","1","3186",,,,,"0","2018-10-04 21:02:25","264213"
"A2AC7GF5C6QL3B","cs_wg_rev_conf_v2_pilot1","39N5ACM9HEOSHA1A3RH0ROSZFUW9PL","4","0","CHICKEN","8","BASKET","15","1","3455",,,,,"0","2018-10-04 21:02:26","264214"
"A2AC7GF5C6QL3B","cs_wg_rev_conf_v2_pilot1","39N5ACM9HEOSHA1A3RH0ROSZFUW9PL","5","0","HOUSE","8","POTATO","7","0","3492",,,,,"0","2018-10-04 21:02:32","264215"
"AHO3WLNVC3YCG","cs_wg_rev_conf_v2_pilot1","39GAF6DQWR1NXPVBLQB6IAZY35NV1V","7","0","MARKET","8","GRENADE","7","0","8831",,,,,"1","2018-10-04 21:02:35","264216"
"A2AC7GF5C6QL3B","cs_wg_rev_conf_v2_pilot1","39N5ACM9HEOSHA1A3RH0ROSZFUW9PL","6","0","POTATO","7","BASKET","15","1","2497",,,,,"0","2018-10-04 21:02:37","264217"
"A2AC7GF5C6QL3B","cs_wg_rev_conf_v2_pilot1","39N5ACM9HEOSHA1A3RH0ROSZFUW9PL","7","0","CHICKEN","8","NAPKIN","1","0","3898",,,,,"0","2018-10-04 21:02:43","264218"
"AHO3WLNVC3YCG","cs_wg_rev_conf_v2_pilot1","39GAF6DQWR1NXPVBLQB6IAZY35NV1V","8","0","WIZARD","10","PELICAN","7","0","6317",,,,,"1","2018-10-04 21:02:44","264219"
"A2AC7GF5C6QL3B","cs_wg_rev_conf_v2_pilot1","39N5ACM9HEOSHA1A3RH0ROSZFUW9PL","8","0","NAPKIN","1","HOUSE","8","1","3007",,,,,"0","2018-10-04 21:02:48","264220"
"ALV4DAF8DIJ37","cs_wg_rev_conf_v2_pilot1","3XCC1ODXDLCJLMYBXLWBIEI3QB2QRS","6","0","CRICKET","8","PALACE","7","1","3479",,,,,"0","2018-10-04 21:02:49","264221"
"A2AC7GF5C6QL3B","cs_wg_rev_conf_v2_pilot1","39N5ACM9HEOSHA1A3RH0ROSZFUW9PL","9","0","CHICKEN","8","POTATO","7","1","2912",,,,,"0","2018-10-04 21:02:54","264222"
"AHO3WLNVC3YCG","cs_wg_rev_conf_v2_pilot1","39GAF6DQWR1NXPVBLQB6IAZY35NV1V","9","0","PALACE","9","AVOCADO","6","0","6872",,,,,"1","2018-10-04 21:02:55","264223"
"ALV4DAF8DIJ37","cs_wg_rev_conf_v2_pilot1","3XCC1ODXDLCJLMYBXLWBIEI3QB2QRS","7","0","HOCKEY","1","THUMB","8","1","5708",,,,,"0","2018-10-04 21:02:58","264224"
"A2AC7GF5C6QL3B","cs_wg_rev_conf_v2_pilot1","39N5ACM9HEOSHA1A3RH0ROSZFUW9PL","10","0","NAPKIN","1","BASKET","15","1","3574",,,,,"0","2018-10-04 21:02:59","264225"
"ALV4DAF8DIJ37","cs_wg_rev_conf_v2_pilot1","3XCC1ODXDLCJLMYBXLWBIEI3QB2QRS","8","0","CHICKEN","15","THUMB","8","0","3297",,,,,"0","2018-10-04 21:03:04","264226"
"AHO3WLNVC3YCG","cs_wg_rev_conf_v2_pilot1","39GAF6DQWR1NXPVBLQB6IAZY35NV1V","10","0","ROCKET","15","BICYCLE","10","0","6825",,,,,"1","2018-10-04 21:03:04","264227"
"ALV4DAF8DIJ37","cs_wg_rev_conf_v2_pilot1","3XCC1ODXDLCJLMYBXLWBIEI3QB2QRS","9","0","PALACE","7","THUMB","8","0","4856",,,,,"0","2018-10-04 21:03:12","264228"
"AHO3WLNVC3YCG","cs_wg_rev_conf_v2_pilot1","39GAF6DQWR1NXPVBLQB6IAZY35NV1V","11","0","GRENADE","7","LIZARD","6","0","6387",,,,,"1","2018-10-04 21:03:13","264229"
"A2AC7GF5C6QL3B","cs_wg_rev_conf_v2_pilot1","39N5ACM9HEOSHA1A3RH0ROSZFUW9PL","11","0","NAPKIN","1","CHICKEN","8","1","8295",,,,,"0","2018-10-04 21:03:16","264230"
"ALV4DAF8DIJ37","cs_wg_rev_conf_v2_pilot1","3XCC1ODXDLCJLMYBXLWBIEI3QB2QRS","10","0","HOCKEY","1","THUMB","8","1","4098",,,,,"0","2018-10-04 21:03:19","264231"
"A2AC7GF5C6QL3B","cs_wg_rev_conf_v2_pilot1","39N5ACM9HEOSHA1A3RH0ROSZFUW9PL","12","0","NAPKIN","1","HOUSE","8","1","3219",,,,,"0","2018-10-04 21:03:21","264232"
"AHO3WLNVC3YCG","cs_wg_rev_conf_v2_pilot1","39GAF6DQWR1NXPVBLQB6IAZY35NV1V","12","0","POTATO","9","PALACE","9","0","6285",,,,,"1","2018-10-04 21:03:23","264233"
"ALV4DAF8DIJ37","cs_wg_rev_conf_v2_pilot1","3XCC1ODXDLCJLMYBXLWBIEI3QB2QRS","11","0","CHICKEN","15","HOCKEY","1","0","2132",,,,,"0","2018-10-04 21:03:23","264234"
"A2AC7GF5C6QL3B","cs_wg_rev_conf_v2_pilot1","39N5ACM9HEOSHA1A3RH0ROSZFUW9PL","13","0","CHICKEN","8","HOUSE","8","1","4532",,,,,"0","2018-10-04 21:03:28","264235"
"AHO3WLNVC3YCG","cs_wg_rev_conf_v2_pilot1","39GAF6DQWR1NXPVBLQB6IAZY35NV1V","13","0","AVOCADO","6","LIZARD","6","1","5148",,,,,"1","2018-10-04 21:03:32","264236"
"A2AC7GF5C6QL3B","cs_wg_rev_conf_v2_pilot1","39N5ACM9HEOSHA1A3RH0ROSZFUW9PL","14","0","CHICKEN","8","BASKET","15","1","4719",,,,,"0","2018-10-04 21:03:35","264237"
"AHO3WLNVC3YCG","cs_wg_rev_conf_v2_pilot1","39GAF6DQWR1NXPVBLQB6IAZY35NV1V","14","0","LIZARD","6","AVOCADO","6","1","4778",,,,,"1","2018-10-04 21:03:40","264238"
"A2AC7GF5C6QL3B","cs_wg_rev_conf_v2_pilot1","39N5ACM9HEOSHA1A3RH0ROSZFUW9PL","15","0","CHICKEN","8","POTATO","7","1","3673",,,,,"0","2018-10-04 21:03:41","264239"
"A2AC7GF5C6QL3B","cs_wg_rev_conf_v2_pilot1","39N5ACM9HEOSHA1A3RH0ROSZFUW9PL","16","0","NAPKIN","1","CHICKEN","8","1","2546",,,,,"0","2018-10-04 21:03:46","264240"
"ALV4DAF8DIJ37","cs_wg_rev_conf_v2_pilot1","3XCC1ODXDLCJLMYBXLWBIEI3QB2QRS","12","0","THUMB","8","CRICKET","8","0","21293",,,,,"0","2018-10-04 21:03:48","264241"
"AHO3WLNVC3YCG","cs_wg_rev_conf_v2_pilot1","39GAF6DQWR1NXPVBLQB6IAZY35NV1V","15","0","BICYCLE","10","POTATO","9","0","6378",,,,,"1","2018-10-04 21:03:49","264242"
"A2AC7GF5C6QL3B","cs_wg_rev_conf_v2_pilot1","39N5ACM9HEOSHA1A3RH0ROSZFUW9PL","17","0","POTATO","7","HOUSE","8","1","3283",,,,,"0","2018-10-04 21:03:51","264243"
"ALV4DAF8DIJ37","cs_wg_rev_conf_v2_pilot1","3XCC1ODXDLCJLMYBXLWBIEI3QB2QRS","13","0","HOCKEY","1","CHICKEN","15","1","3324",,,,,"0","2018-10-04 21:03:53","264244"
"A2AC7GF5C6QL3B","cs_wg_rev_conf_v2_pilot1","39N5ACM9HEOSHA1A3RH0ROSZFUW9PL","18","0","CHICKEN","8","HOUSE","8","0","3641",,,,,"0","2018-10-04 21:03:57","264245"
"AHO3WLNVC3YCG","cs_wg_rev_conf_v2_pilot1","39GAF6DQWR1NXPVBLQB6IAZY35NV1V","16","0","MARKET","8","GROUND","8","1","5473",,,,,"1","2018-10-04 21:03:57","264246"
"ALV4DAF8DIJ37","cs_wg_rev_conf_v2_pilot1","3XCC1ODXDLCJLMYBXLWBIEI3QB2QRS","14","0","CRICKET","8","CHICKEN","15","1","2108",,,,,"0","2018-10-04 21:03:58","264247"
"A2AC7GF5C6QL3B","cs_wg_rev_conf_v2_pilot1","39N5ACM9HEOSHA1A3RH0ROSZFUW9PL","19","0","BASKET","15","NAPKIN","1","0","1803",,,,,"0","2018-10-04 21:04:03","264248"
"ALV4DAF8DIJ37","cs_wg_rev_conf_v2_pilot1","3XCC1ODXDLCJLMYBXLWBIEI3QB2QRS","15","0","THUMB","8","HOCKEY","1","0","2946",,,,,"0","2018-10-04 21:04:04","264249"
"AHO3WLNVC3YCG","cs_wg_rev_conf_v2_pilot1","39GAF6DQWR1NXPVBLQB6IAZY35NV1V","17","0","WIZARD","10","GROUND","8","0","5573",,,,,"1","2018-10-04 21:04:06","264250"
"ALV4DAF8DIJ37","cs_wg_rev_conf_v2_pilot1","3XCC1ODXDLCJLMYBXLWBIEI3QB2QRS","16","0","HOCKEY","1","CRICKET","8","1","4798",,,,,"0","2018-10-04 21:04:11","264251"
"A2AC7GF5C6QL3B","cs_wg_rev_conf_v2_pilot1","39N5ACM9HEOSHA1A3RH0ROSZFUW9PL","20","0","POTATO","7","NAPKIN","1","1","4817",,,,,"0","2018-10-04 21:04:13","264252"
"AHO3WLNVC3YCG","cs_wg_rev_conf_v2_pilot1","39GAF6DQWR1NXPVBLQB6IAZY35NV1V","18","0","LIZARD","6","ROCKET","15","1","5843",,,,,"1","2018-10-04 21:04:15","264253"
"A2AC7GF5C6QL3B","cs_wg_rev_conf_v2_pilot1","39N5ACM9HEOSHA1A3RH0ROSZFUW9PL","21","0","NAPKIN","1","BASKET","15","1","2015",,,,,"0","2018-10-04 21:04:17","264254"
"A2AC7GF5C6QL3B","cs_wg_rev_conf_v2_pilot1","39N5ACM9HEOSHA1A3RH0ROSZFUW9PL","22","0","CHICKEN","8","NAPKIN","1","0","2476",,,,,"0","2018-10-04 21:04:22","264255"
"AHO3WLNVC3YCG","cs_wg_rev_conf_v2_pilot1","39GAF6DQWR1NXPVBLQB6IAZY35NV1V","19","0","WIZARD","10","BLANKET","1","0","6713",,,,,"1","2018-10-04 21:04:25","264256"
"A2AC7GF5C6QL3B","cs_wg_rev_conf_v2_pilot1","39N5ACM9HEOSHA1A3RH0ROSZFUW9PL","23","0","BASKET","15","CHICKEN","8","1","3860",,,,,"0","2018-10-04 21:04:27","264257"
"A2AC7GF5C6QL3B","cs_wg_rev_conf_v2_pilot1","39N5ACM9HEOSHA1A3RH0ROSZFUW9PL","24","0","BASKET","15","POTATO","7","0","1835",,,,,"0","2018-10-04 21:04:32","264258"
"AHO3WLNVC3YCG","cs_wg_rev_conf_v2_pilot1","39GAF6DQWR1NXPVBLQB6IAZY35NV1V","20","0","GROUND","8","ROCKET","15","1","5206",,,,,"1","2018-10-04 21:04:33","264259"
"ALV4DAF8DIJ37","cs_wg_rev_conf_v2_pilot1","3XCC1ODXDLCJLMYBXLWBIEI3QB2QRS","17","0","PALACE","7","HOCKEY","1","0","20218",,,,,"0","2018-10-04 21:04:34","264260"
"A2AC7GF5C6QL3B","cs_wg_rev_conf_v2_pilot1","39N5ACM9HEOSHA1A3RH0ROSZFUW9PL","25","0","NAPKIN","1","HOUSE","8","1","2502",,,,,"0","2018-10-04 21:04:36","264261"
"ALV4DAF8DIJ37","cs_wg_rev_conf_v2_pilot1","3XCC1ODXDLCJLMYBXLWBIEI3QB2QRS","18","0","HOCKEY","1","CHICKEN","15","1","2093",,,,,"0","2018-10-04 21:04:39","264262"
"A2AC7GF5C6QL3B","cs_wg_rev_conf_v2_pilot1","39N5ACM9HEOSHA1A3RH0ROSZFUW9PL","26","0","HOUSE","8","POTATO","7","0","2496",,,,,"0","2018-10-04 21:04:40","264263"
"ALV4DAF8DIJ37","cs_wg_rev_conf_v2_pilot1","3XCC1ODXDLCJLMYBXLWBIEI3QB2QRS","19","0","CRICKET","8","THUMB","8","0","2301",,,,,"0","2018-10-04 21:04:44","264264"
"AHO3WLNVC3YCG","cs_wg_rev_conf_v2_pilot1","39GAF6DQWR1NXPVBLQB6IAZY35NV1V","21","0","GROUND","8","AVOCADO","6","0","8211",,,,,"1","2018-10-04 21:04:44","264265"
"A2AC7GF5C6QL3B","cs_wg_rev_conf_v2_pilot1","39N5ACM9HEOSHA1A3RH0ROSZFUW9PL","27","0","BASKET","15","HOUSE","8","0","1385",,,,,"0","2018-10-04 21:04:44","264266"
"ALV4DAF8DIJ37","cs_wg_rev_conf_v2_pilot1","3XCC1ODXDLCJLMYBXLWBIEI3QB2QRS","20","0","CRICKET","8","HOCKEY","1","0","2124",,,,,"0","2018-10-04 21:04:48","264267"
"A2AC7GF5C6QL3B","cs_wg_rev_conf_v2_pilot1","39N5ACM9HEOSHA1A3RH0ROSZFUW9PL","28","0","POTATO","7","NAPKIN","1","0","2500",,,,,"0","2018-10-04 21:04:49","264268"
"ALV4DAF8DIJ37","cs_wg_rev_conf_v2_pilot1","3XCC1ODXDLCJLMYBXLWBIEI3QB2QRS","21","0","PALACE","7","CRICKET","8","0","1482",,,,,"0","2018-10-04 21:04:52","264269"
"AHO3WLNVC3YCG","cs_wg_rev_conf_v2_pilot1","39GAF6DQWR1NXPVBLQB6IAZY35NV1V","22","0","BLANKET","1","PALACE","9","1","5071",,,,,"1","2018-10-04 21:04:53","264270"
"ALV4DAF8DIJ37","cs_wg_rev_conf_v2_pilot1","3XCC1ODXDLCJLMYBXLWBIEI3QB2QRS","22","0","CRICKET","8","THUMB","8","0","9067",,,,,"0","2018-10-04 21:05:03","264271"
"AHO3WLNVC3YCG","cs_wg_rev_conf_v2_pilot1","39GAF6DQWR1NXPVBLQB6IAZY35NV1V","23","0","POTATO","9","LIZARD","6","0","7395",,,,,"1","2018-10-04 21:05:04","264272"
"ALV4DAF8DIJ37","cs_wg_rev_conf_v2_pilot1","3XCC1ODXDLCJLMYBXLWBIEI3QB2QRS","23","0","CRICKET","8","PALACE","7","1","2380",,,,,"0","2018-10-04 21:05:09","264273"
"AHO3WLNVC3YCG","cs_wg_rev_conf_v2_pilot1","39GAF6DQWR1NXPVBLQB6IAZY35NV1V","24","0","ROCKET","15","POTATO","9","0","4464",,,,,"1","2018-10-04 21:05:11","264274"
"A2AC7GF5C6QL3B","cs_wg_rev_conf_v2_pilot1","39N5ACM9HEOSHA1A3RH0ROSZFUW9PL","29","0","BASKET","15","POTATO","7","0","24209",,,,,"0","2018-10-04 21:05:15","264275"
"AHO3WLNVC3YCG","cs_wg_rev_conf_v2_pilot1","39GAF6DQWR1NXPVBLQB6IAZY35NV1V","25","0","PALACE","9","BICYCLE","10","1","5797",,,,,"1","2018-10-04 21:05:20","264276"
"A2AC7GF5C6QL3B","cs_wg_rev_conf_v2_pilot1","39N5ACM9HEOSHA1A3RH0ROSZFUW9PL","30","0","HOUSE","8","CHICKEN","8","0","2991",,,,,"0","2018-10-04 21:05:20","264277"
"A2AC7GF5C6QL3B","cs_wg_rev_conf_v2_pilot1","39N5ACM9HEOSHA1A3RH0ROSZFUW9PL","31","0","HOUSE","8","CHICKEN","8","0","2413",,,,,"0","2018-10-04 21:05:25","264278"
"AHO3WLNVC3YCG","cs_wg_rev_conf_v2_pilot1","39GAF6DQWR1NXPVBLQB6IAZY35NV1V","26","0","LIZARD","6","MARKET","8","1","5761",,,,,"1","2018-10-04 21:05:29","264279"
"A2AC7GF5C6QL3B","cs_wg_rev_conf_v2_pilot1","39N5ACM9HEOSHA1A3RH0ROSZFUW9PL","32","0","NAPKIN","1","BASKET","15","1","1631",,,,,"0","2018-10-04 21:05:29","264280"
"ALV4DAF8DIJ37","cs_wg_rev_conf_v2_pilot1","3XCC1ODXDLCJLMYBXLWBIEI3QB2QRS","24","0","CHICKEN","15","THUMB","8","0","11256",,,,,"0","2018-10-04 21:05:29","264281"
"A2AC7GF5C6QL3B","cs_wg_rev_conf_v2_pilot1","39N5ACM9HEOSHA1A3RH0ROSZFUW9PL","33","0","HOUSE","8","BASKET","15","0","2660",,,,,"0","2018-10-04 21:05:34","264282"
"AHO3WLNVC3YCG","cs_wg_rev_conf_v2_pilot1","39GAF6DQWR1NXPVBLQB6IAZY35NV1V","27","0","PALACE","9","LIZARD","6","0","4829",,,,,"1","2018-10-04 21:05:37","264283"
"ALV4DAF8DIJ37","cs_wg_rev_conf_v2_pilot1","3XCC1ODXDLCJLMYBXLWBIEI3QB2QRS","25","0","THUMB","8","PALACE","7","0","5008",,,,,"0","2018-10-04 21:05:37","264284"
"A2AC7GF5C6QL3B","cs_wg_rev_conf_v2_pilot1","39N5ACM9HEOSHA1A3RH0ROSZFUW9PL","34","0","HOUSE","8","BASKET","15","1","2600",,,,,"0","2018-10-04 21:05:38","264285"
"A2AC7GF5C6QL3B","cs_wg_rev_conf_v2_pilot1","39N5ACM9HEOSHA1A3RH0ROSZFUW9PL","35","0","CHICKEN","8","BASKET","15","1","2633",,,,,"0","2018-10-04 21:05:43","264286"
"AHO3WLNVC3YCG","cs_wg_rev_conf_v2_pilot1","39GAF6DQWR1NXPVBLQB6IAZY35NV1V","28","0","AVOCADO","6","GROUND","8","1","4930",,,,,"1","2018-10-04 21:05:45","264287"
"A2AC7GF5C6QL3B","cs_wg_rev_conf_v2_pilot1","39N5ACM9HEOSHA1A3RH0ROSZFUW9PL","36","0","NAPKIN","1","POTATO","7","1","1925",,,,,"0","2018-10-04 21:05:47","264288"
"A2AC7GF5C6QL3B","cs_wg_rev_conf_v2_pilot1","39N5ACM9HEOSHA1A3RH0ROSZFUW9PL","37","0","NAPKIN","1","POTATO","7","1","2130",,,,,"0","2018-10-04 21:05:51","264289"
"AHO3WLNVC3YCG","cs_wg_rev_conf_v2_pilot1","39GAF6DQWR1NXPVBLQB6IAZY35NV1V","29","0","PALACE","9","BLANKET","1","0","5026",,,,,"1","2018-10-04 21:05:53","264290"
"ALV4DAF8DIJ37","cs_wg_rev_conf_v2_pilot1","3XCC1ODXDLCJLMYBXLWBIEI3QB2QRS","26","0","CRICKET","8","THUMB","8","0","7683",,,,,"0","2018-10-04 21:05:55","264291"
"A2AC7GF5C6QL3B","cs_wg_rev_conf_v2_pilot1","39N5ACM9HEOSHA1A3RH0ROSZFUW9PL","38","0","POTATO","7","NAPKIN","1","0","1771",,,,,"0","2018-10-04 21:05:55","264292"
"A2AC7GF5C6QL3B","cs_wg_rev_conf_v2_pilot1","39N5ACM9HEOSHA1A3RH0ROSZFUW9PL","39","0","HOUSE","8","NAPKIN","1","0","1785",,,,,"0","2018-10-04 21:05:59","264293"
"ALV4DAF8DIJ37","cs_wg_rev_conf_v2_pilot1","3XCC1ODXDLCJLMYBXLWBIEI3QB2QRS","27","0","CRICKET","8","HOCKEY","1","1","2279",,,,,"0","2018-10-04 21:06:00","264294"
"AHO3WLNVC3YCG","cs_wg_rev_conf_v2_pilot1","39GAF6DQWR1NXPVBLQB6IAZY35NV1V","30","0","MARKET","8","WIZARD","10","1","7246",,,,,"1","2018-10-04 21:06:03","264295"
"ALV4DAF8DIJ37","cs_wg_rev_conf_v2_pilot1","3XCC1ODXDLCJLMYBXLWBIEI3QB2QRS","28","0","THUMB","8","CRICKET","8","1","3189",,,,,"0","2018-10-04 21:06:06","264296"
"A2AC7GF5C6QL3B","cs_wg_rev_conf_v2_pilot1","39N5ACM9HEOSHA1A3RH0ROSZFUW9PL","40","0","CHICKEN","8","POTATO","7","0","5048",,,,,"0","2018-10-04 21:06:06","264297"
"A2AC7GF5C6QL3B","cs_wg_rev_conf_v2_pilot1","39N5ACM9HEOSHA1A3RH0ROSZFUW9PL","41","0","CHICKEN","8","NAPKIN","1","0","1548",,,,,"0","2018-10-04 21:06:11","264298"
"AHO3WLNVC3YCG","cs_wg_rev_conf_v2_pilot1","39GAF6DQWR1NXPVBLQB6IAZY35NV1V","31","0","ROCKET","15","GROUND","8","0","5475",,,,,"1","2018-10-04 21:06:12","264299"
"ALV4DAF8DIJ37","cs_wg_rev_conf_v2_pilot1","3XCC1ODXDLCJLMYBXLWBIEI3QB2QRS","29","0","CRICKET","8","HOCKEY","1","0","3096",,,,,"0","2018-10-04 21:06:12","264300"
"A2AC7GF5C6QL3B","cs_wg_rev_conf_v2_pilot1","39N5ACM9HEOSHA1A3RH0ROSZFUW9PL","42","0","CHICKEN","8","HOUSE","8","0","2182",,,,,"0","2018-10-04 21:06:15","264301"
"ALV4DAF8DIJ37","cs_wg_rev_conf_v2_pilot1","3XCC1ODXDLCJLMYBXLWBIEI3QB2QRS","30","0","CHICKEN","15","CRICKET","8","0","1367",,,,,"0","2018-10-04 21:06:16","264302"
"ALV4DAF8DIJ37","cs_wg_rev_conf_v2_pilot1","3XCC1ODXDLCJLMYBXLWBIEI3QB2QRS","31","0","CHICKEN","15","THUMB","8","0","807",,,,,"0","2018-10-04 21:06:18","264303"
"A2AC7GF5C6QL3B","cs_wg_rev_conf_v2_pilot1","39N5ACM9HEOSHA1A3RH0ROSZFUW9PL","43","0","BASKET","15","HOUSE","8","0","1898",,,,,"0","2018-10-04 21:06:18","264304"
"AHO3WLNVC3YCG","cs_wg_rev_conf_v2_pilot1","39GAF6DQWR1NXPVBLQB6IAZY35NV1V","32","0","LIZARD","6","GROUND","8","1","6813",,,,,"1","2018-10-04 21:06:21","264305"
"A2AC7GF5C6QL3B","cs_wg_rev_conf_v2_pilot1","39N5ACM9HEOSHA1A3RH0ROSZFUW9PL","44","0","HOUSE","8","NAPKIN","1","0","1604",,,,,"0","2018-10-04 21:06:22","264306"
"ALV4DAF8DIJ37","cs_wg_rev_conf_v2_pilot1","3XCC1ODXDLCJLMYBXLWBIEI3QB2QRS","32","0","HOCKEY","1","CHICKEN","15","1","1373",,,,,"0","2018-10-04 21:06:22","264307"
"A2AC7GF5C6QL3B","cs_wg_rev_conf_v2_pilot1","39N5ACM9HEOSHA1A3RH0ROSZFUW9PL","45","0","POTATO","7","BASKET","15","1","2491",,,,,"0","2018-10-04 21:06:27","264308"
"ALV4DAF8DIJ37","cs_wg_rev_conf_v2_pilot1","3XCC1ODXDLCJLMYBXLWBIEI3QB2QRS","33","0","CRICKET","8","PALACE","7","1","2347",,,,,"0","2018-10-04 21:06:27","264309"
"ALV4DAF8DIJ37","cs_wg_rev_conf_v2_pilot1","3XCC1ODXDLCJLMYBXLWBIEI3QB2QRS","34","0","THUMB","8","CHICKEN","15","1","1225",,,,,"0","2018-10-04 21:06:31","264310"
"AHO3WLNVC3YCG","cs_wg_rev_conf_v2_pilot1","39GAF6DQWR1NXPVBLQB6IAZY35NV1V","33","0","WIZARD","10","BICYCLE","10","0","6497",,,,,"1","2018-10-04 21:06:31","264311"
"A2AC7GF5C6QL3B","cs_wg_rev_conf_v2_pilot1","39N5ACM9HEOSHA1A3RH0ROSZFUW9PL","46","0","BASKET","15","NAPKIN","1","0","1520",,,,,"0","2018-10-04 21:06:32","264312"
"ALV4DAF8DIJ37","cs_wg_rev_conf_v2_pilot1","3XCC1ODXDLCJLMYBXLWBIEI3QB2QRS","35","0","CHICKEN","15","CRICKET","8","0","1402",,,,,"0","2018-10-04 21:06:34","264313"
"A2AC7GF5C6QL3B","cs_wg_rev_conf_v2_pilot1","39N5ACM9HEOSHA1A3RH0ROSZFUW9PL","47","0","POTATO","7","BASKET","15","1","3794",,,,,"0","2018-10-04 21:06:37","264314"
"ALV4DAF8DIJ37","cs_wg_rev_conf_v2_pilot1","3XCC1ODXDLCJLMYBXLWBIEI3QB2QRS","36","0","PALACE","7","CHICKEN","15","1","1359",,,,,"0","2018-10-04 21:06:38","264315"
"AHO3WLNVC3YCG","cs_wg_rev_conf_v2_pilot1","39GAF6DQWR1NXPVBLQB6IAZY35NV1V","34","0","GROUND","8","MARKET","8","0","4930",,,,,"1","2018-10-04 21:06:39","264316"
"A2AC7GF5C6QL3B","cs_wg_rev_conf_v2_pilot1","39N5ACM9HEOSHA1A3RH0ROSZFUW9PL","48","0","BASKET","15","CHICKEN","8","0","1272",,,,,"0","2018-10-04 21:06:41","264317"
"ALV4DAF8DIJ37","cs_wg_rev_conf_v2_pilot1","3XCC1ODXDLCJLMYBXLWBIEI3QB2QRS","37","0","HOCKEY","1","PALACE","7","1","1871",,,,,"0","2018-10-04 21:06:43","264318"
"A2AC7GF5C6QL3B","cs_wg_rev_conf_v2_pilot1","39N5ACM9HEOSHA1A3RH0ROSZFUW9PL","49","0","POTATO","7","CHICKEN","8","1","2611",,,,,"0","2018-10-04 21:06:45","264319"
"AHO3WLNVC3YCG","cs_wg_rev_conf_v2_pilot1","39GAF6DQWR1NXPVBLQB6IAZY35NV1V","35","0","BLANKET","1","WIZARD","10","1","3877",,,,,"1","2018-10-04 21:06:46","264320"
"ALV4DAF8DIJ37","cs_wg_rev_conf_v2_pilot1","3XCC1ODXDLCJLMYBXLWBIEI3QB2QRS","38","0","CRICKET","8","CHICKEN","15","1","1192",,,,,"0","2018-10-04 21:06:46","264321"
"A2AC7GF5C6QL3B","cs_wg_rev_conf_v2_pilot1","39N5ACM9HEOSHA1A3RH0ROSZFUW9PL","50","0","HOUSE","8","CHICKEN","8","1","2215",,,,,"0","2018-10-04 21:06:49","264322"
"ALV4DAF8DIJ37","cs_wg_rev_conf_v2_pilot1","3XCC1ODXDLCJLMYBXLWBIEI3QB2QRS","39","0","PALACE","7","CRICKET","8","0","2106",,,,,"0","2018-10-04 21:06:51","264323"
"ALV4DAF8DIJ37","cs_wg_rev_conf_v2_pilot1","3XCC1ODXDLCJLMYBXLWBIEI3QB2QRS","40","0","CHICKEN","15","PALACE","7","0","1080",,,,,"0","2018-10-04 21:06:55","264324"
"AHO3WLNVC3YCG","cs_wg_rev_conf_v2_pilot1","39GAF6DQWR1NXPVBLQB6IAZY35NV1V","36","0","GRENADE","7","WIZARD","10","1","6078",,,,,"1","2018-10-04 21:06:55","264325"
"A2AC7GF5C6QL3B","cs_wg_rev_conf_v2_pilot1","39N5ACM9HEOSHA1A3RH0ROSZFUW9PL","51","0","BASKET","15","HOUSE","8","1","3204",,,,,"0","2018-10-04 21:06:55","264326"
"ALV4DAF8DIJ37","cs_wg_rev_conf_v2_pilot1","3XCC1ODXDLCJLMYBXLWBIEI3QB2QRS","41","0","PALACE","7","THUMB","8","1","1470",,,,,"0","2018-10-04 21:06:59","264327"
"A2AC7GF5C6QL3B","cs_wg_rev_conf_v2_pilot1","39N5ACM9HEOSHA1A3RH0ROSZFUW9PL","52","0","HOUSE","8","POTATO","7","0","2418",,,,,"0","2018-10-04 21:07:00","264328"
"ALV4DAF8DIJ37","cs_wg_rev_conf_v2_pilot1","3XCC1ODXDLCJLMYBXLWBIEI3QB2QRS","42","0","CHICKEN","15","PALACE","7","0","1004",,,,,"0","2018-10-04 21:07:02","264329"
"A2AC7GF5C6QL3B","cs_wg_rev_conf_v2_pilot1","39N5ACM9HEOSHA1A3RH0ROSZFUW9PL","53","0","BASKET","15","CHICKEN","8","0","1656",,,,,"0","2018-10-04 21:07:03","264330"
"AHO3WLNVC3YCG","cs_wg_rev_conf_v2_pilot1","39GAF6DQWR1NXPVBLQB6IAZY35NV1V","37","0","PALACE","9","ROCKET","15","1","5848",,,,,"1","2018-10-04 21:07:04","264331"
"ALV4DAF8DIJ37","cs_wg_rev_conf_v2_pilot1","3XCC1ODXDLCJLMYBXLWBIEI3QB2QRS","43","0","THUMB","8","HOCKEY","1","0","1495",,,,,"0","2018-10-04 21:07:06","264332"
"A2AC7GF5C6QL3B","cs_wg_rev_conf_v2_pilot1","39N5ACM9HEOSHA1A3RH0ROSZFUW9PL","54","0","POTATO","7","HOUSE","8","1","2519",,,,,"0","2018-10-04 21:07:08","264333"
"AHO3WLNVC3YCG","cs_wg_rev_conf_v2_pilot1","39GAF6DQWR1NXPVBLQB6IAZY35NV1V","38","0","WIZARD","10","AVOCADO","6","0","3550",,,,,"1","2018-10-04 21:07:10","264334"
"ALV4DAF8DIJ37","cs_wg_rev_conf_v2_pilot1","3XCC1ODXDLCJLMYBXLWBIEI3QB2QRS","44","0","THUMB","8","CRICKET","8","1","2261",,,,,"0","2018-10-04 21:07:11","264335"
"A2AC7GF5C6QL3B","cs_wg_rev_conf_v2_pilot1","39N5ACM9HEOSHA1A3RH0ROSZFUW9PL","55","0","NAPKIN","1","POTATO","7","1","2304",,,,,"0","2018-10-04 21:07:13","264336"
"ALV4DAF8DIJ37","cs_wg_rev_conf_v2_pilot1","3XCC1ODXDLCJLMYBXLWBIEI3QB2QRS","45","0","PALACE","7","HOCKEY","1","0","940",,,,,"0","2018-10-04 21:07:14","264337"
"A2AC7GF5C6QL3B","cs_wg_rev_conf_v2_pilot1","39N5ACM9HEOSHA1A3RH0ROSZFUW9PL","56","0","POTATO","7","CHICKEN","8","1","2627",,,,,"0","2018-10-04 21:07:17","264338"
"ALV4DAF8DIJ37","cs_wg_rev_conf_v2_pilot1","3XCC1ODXDLCJLMYBXLWBIEI3QB2QRS","46","0","HOCKEY","1","PALACE","7","1","1730",,,,,"0","2018-10-04 21:07:18","264339"
"AHO3WLNVC3YCG","cs_wg_rev_conf_v2_pilot1","39GAF6DQWR1NXPVBLQB6IAZY35NV1V","39","0","GRENADE","7","MARKET","8","1","4876",,,,,"1","2018-10-04 21:07:18","264340"
"ALV4DAF8DIJ37","cs_wg_rev_conf_v2_pilot1","3XCC1ODXDLCJLMYBXLWBIEI3QB2QRS","47","0","PALACE","7","HOCKEY","1","0","1044",,,,,"0","2018-10-04 21:07:20","264341"
"A2AC7GF5C6QL3B","cs_wg_rev_conf_v2_pilot1","39N5ACM9HEOSHA1A3RH0ROSZFUW9PL","57","0","POTATO","7","CHICKEN","8","1","2039",,,,,"0","2018-10-04 21:07:22","264342"
"ALV4DAF8DIJ37","cs_wg_rev_conf_v2_pilot1","3XCC1ODXDLCJLMYBXLWBIEI3QB2QRS","48","0","PALACE","7","CHICKEN","15","1","1369",,,,,"0","2018-10-04 21:07:24","264343"
"AHO3WLNVC3YCG","cs_wg_rev_conf_v2_pilot1","39GAF6DQWR1NXPVBLQB6IAZY35NV1V","40","0","GRENADE","7","PELICAN","7","0","5271",,,,,"1","2018-10-04 21:07:26","264344"
"A2AC7GF5C6QL3B","cs_wg_rev_conf_v2_pilot1","39N5ACM9HEOSHA1A3RH0ROSZFUW9PL","58","0","HOUSE","8","BASKET","15","1","1876",,,,,"0","2018-10-04 21:07:26","264345"
"A1OFSWG4TA4VVR","cs_wg_rev_conf_v2_pilot1","3EKVH9QMEY58STDLD9BQH73WV4PD2N","0","0","PALACE","7","WHISKER","8","0","12392",,,,,"0","2018-10-04 21:07:27","264346"
"ALV4DAF8DIJ37","cs_wg_rev_conf_v2_pilot1","3XCC1ODXDLCJLMYBXLWBIEI3QB2QRS","49","0","THUMB","8","CHICKEN","15","1","1452",,,,,"0","2018-10-04 21:07:28","264347"
"A2AC7GF5C6QL3B","cs_wg_rev_conf_v2_pilot1","39N5ACM9HEOSHA1A3RH0ROSZFUW9PL","59","0","HOUSE","8","NAPKIN","1","0","1669",,,,,"0","2018-10-04 21:07:30","264348"
"ALV4DAF8DIJ37","cs_wg_rev_conf_v2_pilot1","3XCC1ODXDLCJLMYBXLWBIEI3QB2QRS","50","0","HOCKEY","1","THUMB","8","1","1621",,,,,"0","2018-10-04 21:07:32","264349"
"AHO3WLNVC3YCG","cs_wg_rev_conf_v2_pilot1","39GAF6DQWR1NXPVBLQB6IAZY35NV1V","41","0","MARKET","8","PALACE","9","1","5379",,,,,"1","2018-10-04 21:07:34","264350"
"ALV4DAF8DIJ37","cs_wg_rev_conf_v2_pilot1","3XCC1ODXDLCJLMYBXLWBIEI3QB2QRS","51","0","THUMB","8","HOCKEY","1","0","1123",,,,,"0","2018-10-04 21:07:35","264351"
"A1OFSWG4TA4VVR","cs_wg_rev_conf_v2_pilot1","3EKVH9QMEY58STDLD9BQH73WV4PD2N","1","0","BUCKET","15","PALACE","7","0","5956",,,,,"0","2018-10-04 21:07:36","264352"
"ALV4DAF8DIJ37","cs_wg_rev_conf_v2_pilot1","3XCC1ODXDLCJLMYBXLWBIEI3QB2QRS","52","0","CRICKET","8","CHICKEN","15","1","1498",,,,,"0","2018-10-04 21:07:39","264353"
