"subject","version","assignmentId","trial","trial_type","word","value","alt","value2","choice","rt","resp","resp2","resp3","resp4","used_hint","stamp","id"
"ARYHFQRAS0L7X","cs_wg_mon_single_v1_pilot2","32Z9ZLUT1LL3BG7SM3SDF5LYYI5OHE","0","0","MAY","6",,"0","6","5653",,,,,"1","2018-11-08 18:14:19","379464"
"AKC7CAVN6QS52","cs_wg_mon_single_v1_pilot2","3EFE17QCRC6I98ZLTK9MZAVZV78SHF","0","0","MAY","10",,"0","10","6180",,,,,"1","2018-11-08 18:14:19","379465"
"AKC7CAVN6QS52","cs_wg_mon_single_v1_pilot2","3EFE17QCRC6I98ZLTK9MZAVZV78SHF","1","0","MAY","2",,"0","2","3019",,,,,"1","2018-11-08 18:14:24","379466"
"ARYHFQRAS0L7X","cs_wg_mon_single_v1_pilot2","32Z9ZLUT1LL3BG7SM3SDF5LYYI5OHE","1","0","JULY","12",,"0","12","14061",,,,,"1","2018-11-08 18:14:39","379467"
"A1E7W1FSRXBXE2","cs_wg_mon_single_v1_pilot2","3B1NLC6UGZX7WKOIHXNAJ5ENTNPPGY","0","0","APRIL","6",,"0","10","13457",,,,,"0","2018-11-08 18:14:50","379468"
"ARYHFQRAS0L7X","cs_wg_mon_single_v1_pilot2","32Z9ZLUT1LL3BG7SM3SDF5LYYI5OHE","2","0","NOVEMBER","2",,"0","2","11539",,,,,"1","2018-11-08 18:14:50","379469"
"A1E7W1FSRXBXE2","cs_wg_mon_single_v1_pilot2","3B1NLC6UGZX7WKOIHXNAJ5ENTNPPGY","1","0","JUNE","10",,"0","6","6695",,,,,"0","2018-11-08 18:15:00","379470"
"A218ZWPYRMUXJN","cs_wg_mon_single_v1_pilot2","3TXMY6UCAEPFFK9SFO6GTJJI0RJCQ2","0","0","MAY","2",,"0","2","3316",,,,,"1","2018-11-08 18:15:01","379471"
"ARYHFQRAS0L7X","cs_wg_mon_single_v1_pilot2","32Z9ZLUT1LL3BG7SM3SDF5LYYI5OHE","3","0","NOVEMBER","8",,"0","8","10247",,,,,"1","2018-11-08 18:15:04","379472"
"AKC7CAVN6QS52","cs_wg_mon_single_v1_pilot2","3EFE17QCRC6I98ZLTK9MZAVZV78SHF","2","0","SEPTEMBER","2",,"0","2","2029",,,,,"1","2018-11-08 18:15:06","379473"
"A218ZWPYRMUXJN","cs_wg_mon_single_v1_pilot2","3TXMY6UCAEPFFK9SFO6GTJJI0RJCQ2","1","0","JANUARY","10",,"0","10","3570",,,,,"1","2018-11-08 18:15:07","379474"
"AKC7CAVN6QS52","cs_wg_mon_single_v1_pilot2","3EFE17QCRC6I98ZLTK9MZAVZV78SHF","3","0","NOVEMBER","2",,"0","2","2092",,,,,"1","2018-11-08 18:15:10","379475"
"A218ZWPYRMUXJN","cs_wg_mon_single_v1_pilot2","3TXMY6UCAEPFFK9SFO6GTJJI0RJCQ2","2","0","APRIL","12",,"0","12","3083",,,,,"1","2018-11-08 18:15:12","379476"
"A1E7W1FSRXBXE2","cs_wg_mon_single_v1_pilot2","3B1NLC6UGZX7WKOIHXNAJ5ENTNPPGY","2","0","OCTOBER","8",,"0","10","7230",,,,,"0","2018-11-08 18:15:14","379477"
"AKC7CAVN6QS52","cs_wg_mon_single_v1_pilot2","3EFE17QCRC6I98ZLTK9MZAVZV78SHF","4","0","OCTOBER","4",,"0","4","2941",,,,,"1","2018-11-08 18:15:15","379478"
"A218ZWPYRMUXJN","cs_wg_mon_single_v1_pilot2","3TXMY6UCAEPFFK9SFO6GTJJI0RJCQ2","3","0","NOVEMBER","12",,"0","12","2356",,,,,"1","2018-11-08 18:15:16","379479"
"ARYHFQRAS0L7X","cs_wg_mon_single_v1_pilot2","32Z9ZLUT1LL3BG7SM3SDF5LYYI5OHE","4","0","MARCH","6",,"0","6","10631",,,,,"1","2018-11-08 18:15:18","379480"
"A218ZWPYRMUXJN","cs_wg_mon_single_v1_pilot2","3TXMY6UCAEPFFK9SFO6GTJJI0RJCQ2","4","0","JANUARY","6",,"0","12","1946",,,,,"0","2018-11-08 18:15:20","379481"
"ALZDJ7DBWN919","cs_wg_mon_single_v1_pilot2","3M1CVSFP606RM5CUVAAPNOTU0OYAQY","0","0","JULY","4",,"0","4","6048",,,,,"1","2018-11-08 18:15:21","379482"
"A218ZWPYRMUXJN","cs_wg_mon_single_v1_pilot2","3TXMY6UCAEPFFK9SFO6GTJJI0RJCQ2","5","0","NOVEMBER","8",,"0","8","2828",,,,,"1","2018-11-08 18:15:25","379483"
"ARYHFQRAS0L7X","cs_wg_mon_single_v1_pilot2","32Z9ZLUT1LL3BG7SM3SDF5LYYI5OHE","5","0","DECEMBER","8",,"0","8","4351",,,,,"1","2018-11-08 18:15:27","379484"
"A1E7W1FSRXBXE2","cs_wg_mon_single_v1_pilot2","3B1NLC6UGZX7WKOIHXNAJ5ENTNPPGY","3","0","JANUARY","4",,"0","10","9240",,,,,"0","2018-11-08 18:15:27","379485"
"A218ZWPYRMUXJN","cs_wg_mon_single_v1_pilot2","3TXMY6UCAEPFFK9SFO6GTJJI0RJCQ2","6","0","DECEMBER","8",,"0","8","2876",,,,,"1","2018-11-08 18:15:29","379486"
"ALZDJ7DBWN919","cs_wg_mon_single_v1_pilot2","3M1CVSFP606RM5CUVAAPNOTU0OYAQY","1","0","JULY","6",,"0","4","4423",,,,,"0","2018-11-08 18:15:30","379487"
"A218ZWPYRMUXJN","cs_wg_mon_single_v1_pilot2","3TXMY6UCAEPFFK9SFO6GTJJI0RJCQ2","7","0","MAY","6",,"0","2","3491",,,,,"0","2018-11-08 18:15:35","379488"
"ARYHFQRAS0L7X","cs_wg_mon_single_v1_pilot2","32Z9ZLUT1LL3BG7SM3SDF5LYYI5OHE","6","0","DECEMBER","4",,"0","4","7436",,,,,"1","2018-11-08 18:15:37","379489"
"A1E7W1FSRXBXE2","cs_wg_mon_single_v1_pilot2","3B1NLC6UGZX7WKOIHXNAJ5ENTNPPGY","4","0","MARCH","6",,"0","10","7291",,,,,"0","2018-11-08 18:15:38","379490"
"AKC7CAVN6QS52","cs_wg_mon_single_v1_pilot2","3EFE17QCRC6I98ZLTK9MZAVZV78SHF","5","0","DECEMBER","8",,"0","8","27123",,,,,"1","2018-11-08 18:15:44","379491"
"ALZDJ7DBWN919","cs_wg_mon_single_v1_pilot2","3M1CVSFP606RM5CUVAAPNOTU0OYAQY","2","0","JANUARY","10",,"0","10","11115",,,,,"1","2018-11-08 18:15:44","379492"
"ARYHFQRAS0L7X","cs_wg_mon_single_v1_pilot2","32Z9ZLUT1LL3BG7SM3SDF5LYYI5OHE","7","0","JUNE","10",,"0","10","7377",,,,,"1","2018-11-08 18:15:47","379493"
"AKC7CAVN6QS52","cs_wg_mon_single_v1_pilot2","3EFE17QCRC6I98ZLTK9MZAVZV78SHF","6","0","OCTOBER","6",,"0","6","4062",,,,,"1","2018-11-08 18:15:49","379494"
"AKC7CAVN6QS52","cs_wg_mon_single_v1_pilot2","3EFE17QCRC6I98ZLTK9MZAVZV78SHF","7","0","DECEMBER","10",,"0","10","4147",,,,,"1","2018-11-08 18:15:55","379495"
"ALZDJ7DBWN919","cs_wg_mon_single_v1_pilot2","3M1CVSFP606RM5CUVAAPNOTU0OYAQY","3","0","JANUARY","2",,"0","2","8669",,,,,"1","2018-11-08 18:15:57","379496"
"ARYHFQRAS0L7X","cs_wg_mon_single_v1_pilot2","32Z9ZLUT1LL3BG7SM3SDF5LYYI5OHE","8","0","DECEMBER","2",,"0","2","4729",,,,,"1","2018-11-08 18:15:57","379497"
"AKC7CAVN6QS52","cs_wg_mon_single_v1_pilot2","3EFE17QCRC6I98ZLTK9MZAVZV78SHF","8","0","OCTOBER","12",,"0","12","2108",,,,,"1","2018-11-08 18:16:00","379498"
"AKC7CAVN6QS52","cs_wg_mon_single_v1_pilot2","3EFE17QCRC6I98ZLTK9MZAVZV78SHF","9","0","AUGUST","4",,"0","4","1949",,,,,"1","2018-11-08 18:16:03","379499"
"ARYHFQRAS0L7X","cs_wg_mon_single_v1_pilot2","32Z9ZLUT1LL3BG7SM3SDF5LYYI5OHE","9","0","AUGUST","2",,"0","2","3704",,,,,"1","2018-11-08 18:16:06","379500"
"ALZDJ7DBWN919","cs_wg_mon_single_v1_pilot2","3M1CVSFP606RM5CUVAAPNOTU0OYAQY","4","0","NOVEMBER","8",,"0","8","7467",,,,,"1","2018-11-08 18:16:07","379501"
"AKC7CAVN6QS52","cs_wg_mon_single_v1_pilot2","3EFE17QCRC6I98ZLTK9MZAVZV78SHF","10","0","AUGUST","10",,"0","10","1908",,,,,"1","2018-11-08 18:16:07","379502"
"AKC7CAVN6QS52","cs_wg_mon_single_v1_pilot2","3EFE17QCRC6I98ZLTK9MZAVZV78SHF","11","0","DECEMBER","2",,"0","2","1684",,,,,"1","2018-11-08 18:16:10","379503"
"AKC7CAVN6QS52","cs_wg_mon_single_v1_pilot2","3EFE17QCRC6I98ZLTK9MZAVZV78SHF","12","0","MARCH","12",,"0","12","1868",,,,,"1","2018-11-08 18:16:13","379504"
"ALZDJ7DBWN919","cs_wg_mon_single_v1_pilot2","3M1CVSFP606RM5CUVAAPNOTU0OYAQY","5","0","JULY","6",,"0","6","5387",,,,,"1","2018-11-08 18:16:15","379505"
"AKC7CAVN6QS52","cs_wg_mon_single_v1_pilot2","3EFE17QCRC6I98ZLTK9MZAVZV78SHF","13","0","APRIL","12",,"0","12","1564",,,,,"1","2018-11-08 18:16:16","379506"
"ARYHFQRAS0L7X","cs_wg_mon_single_v1_pilot2","32Z9ZLUT1LL3BG7SM3SDF5LYYI5OHE","10","0","APRIL","12",,"0","12","8977",,,,,"1","2018-11-08 18:16:17","379507"
"AKC7CAVN6QS52","cs_wg_mon_single_v1_pilot2","3EFE17QCRC6I98ZLTK9MZAVZV78SHF","14","0","MARCH","6",,"0","6","2350",,,,,"1","2018-11-08 18:16:20","379508"
"ALZDJ7DBWN919","cs_wg_mon_single_v1_pilot2","3M1CVSFP606RM5CUVAAPNOTU0OYAQY","6","0","SEPTEMBER","8",,"0","8","4751",,,,,"1","2018-11-08 18:16:22","379509"
"AKC7CAVN6QS52","cs_wg_mon_single_v1_pilot2","3EFE17QCRC6I98ZLTK9MZAVZV78SHF","15","0","AUGUST","6",,"0","6","3390",,,,,"1","2018-11-08 18:16:26","379510"
"A29YMPA27FG8BM","cs_wg_mon_single_v1_pilot2","37UQDCYH6XW18BADA6SFJKQCG87V7M","0","0","SEPTEMBER","4",,"0","4","17329",,,,,"1","2018-11-08 18:16:26","379511"
"ARYHFQRAS0L7X","cs_wg_mon_single_v1_pilot2","32Z9ZLUT1LL3BG7SM3SDF5LYYI5OHE","11","0","AUGUST","10",,"0","10","8273",,,,,"1","2018-11-08 18:16:28","379512"
"AKC7CAVN6QS52","cs_wg_mon_single_v1_pilot2","3EFE17QCRC6I98ZLTK9MZAVZV78SHF","16","0","NOVEMBER","10",,"0","10","2413",,,,,"1","2018-11-08 18:16:30","379513"
"ALZDJ7DBWN919","cs_wg_mon_single_v1_pilot2","3M1CVSFP606RM5CUVAAPNOTU0OYAQY","7","0","JUNE","12",,"0","12","5802",,,,,"1","2018-11-08 18:16:31","379514"
"AKC7CAVN6QS52","cs_wg_mon_single_v1_pilot2","3EFE17QCRC6I98ZLTK9MZAVZV78SHF","17","0","FEBRUARY","2",,"0","2","1518",,,,,"1","2018-11-08 18:16:33","379515"
"A218ZWPYRMUXJN","cs_wg_mon_single_v1_pilot2","3TXMY6UCAEPFFK9SFO6GTJJI0RJCQ2","8","0","SEPTEMBER","10",,"0","10","7076",,,,,"1","2018-11-08 18:16:33","379516"
"AKC7CAVN6QS52","cs_wg_mon_single_v1_pilot2","3EFE17QCRC6I98ZLTK9MZAVZV78SHF","18","0","JANUARY","4",,"0","4","1966",,,,,"1","2018-11-08 18:16:36","379517"
"ARYHFQRAS0L7X","cs_wg_mon_single_v1_pilot2","32Z9ZLUT1LL3BG7SM3SDF5LYYI5OHE","12","0","APRIL","6",,"0","6","3352",,,,,"1","2018-11-08 18:16:37","379518"
"A218ZWPYRMUXJN","cs_wg_mon_single_v1_pilot2","3TXMY6UCAEPFFK9SFO6GTJJI0RJCQ2","9","0","JULY","8",,"0","9","4596",,,,,"1","2018-11-08 18:16:39","379519"
"AKC7CAVN6QS52","cs_wg_mon_single_v1_pilot2","3EFE17QCRC6I98ZLTK9MZAVZV78SHF","19","0","DECEMBER","2",,"0","2","2829",,,,,"1","2018-11-08 18:16:41","379520"
"A29YMPA27FG8BM","cs_wg_mon_single_v1_pilot2","37UQDCYH6XW18BADA6SFJKQCG87V7M","1","0","JANUARY","12",,"0","12","11447",,,,,"1","2018-11-08 18:16:42","379521"
"ALZDJ7DBWN919","cs_wg_mon_single_v1_pilot2","3M1CVSFP606RM5CUVAAPNOTU0OYAQY","8","0","OCTOBER","6",,"0","6","9682",,,,,"1","2018-11-08 18:16:43","379522"
"AKC7CAVN6QS52","cs_wg_mon_single_v1_pilot2","3EFE17QCRC6I98ZLTK9MZAVZV78SHF","20","0","MAY","8",,"0","8","2109",,,,,"1","2018-11-08 18:16:45","379523"
"ARYHFQRAS0L7X","cs_wg_mon_single_v1_pilot2","32Z9ZLUT1LL3BG7SM3SDF5LYYI5OHE","13","0","FEBRUARY","10",,"0","10","3638",,,,,"1","2018-11-08 18:16:45","379524"
"A218ZWPYRMUXJN","cs_wg_mon_single_v1_pilot2","3TXMY6UCAEPFFK9SFO6GTJJI0RJCQ2","10","0","MAY","4",,"0","4","5444",,,,,"1","2018-11-08 18:16:46","379525"
"A218ZWPYRMUXJN","cs_wg_mon_single_v1_pilot2","3TXMY6UCAEPFFK9SFO6GTJJI0RJCQ2","11","0","MARCH","2",,"0","2","2340",,,,,"1","2018-11-08 18:16:50","379526"
"ALZDJ7DBWN919","cs_wg_mon_single_v1_pilot2","3M1CVSFP606RM5CUVAAPNOTU0OYAQY","9","0","JUNE","12",,"0","12","5475",,,,,"1","2018-11-08 18:16:51","379527"
"ARYHFQRAS0L7X","cs_wg_mon_single_v1_pilot2","32Z9ZLUT1LL3BG7SM3SDF5LYYI5OHE","14","0","NOVEMBER","6",,"0","6","4617",,,,,"1","2018-11-08 18:16:54","379528"
"A218ZWPYRMUXJN","cs_wg_mon_single_v1_pilot2","3TXMY6UCAEPFFK9SFO6GTJJI0RJCQ2","12","0","FEBRUARY","10",,"0","10","3220",,,,,"1","2018-11-08 18:16:55","379529"
"A218ZWPYRMUXJN","cs_wg_mon_single_v1_pilot2","3TXMY6UCAEPFFK9SFO6GTJJI0RJCQ2","13","0","AUGUST","2",,"0","2","2406",,,,,"1","2018-11-08 18:16:59","379530"
"ALZDJ7DBWN919","cs_wg_mon_single_v1_pilot2","3M1CVSFP606RM5CUVAAPNOTU0OYAQY","10","0","NOVEMBER","4",,"0","4","6231",,,,,"1","2018-11-08 18:17:00","379531"
"ARYHFQRAS0L7X","cs_wg_mon_single_v1_pilot2","32Z9ZLUT1LL3BG7SM3SDF5LYYI5OHE","15","0","NOVEMBER","4",,"0","4","3929",,,,,"1","2018-11-08 18:17:03","379532"
"A29YMPA27FG8BM","cs_wg_mon_single_v1_pilot2","37UQDCYH6XW18BADA6SFJKQCG87V7M","2","0","NOVEMBER","10",,"0","10","17675",,,,,"1","2018-11-08 18:17:05","379533"
"A218ZWPYRMUXJN","cs_wg_mon_single_v1_pilot2","3TXMY6UCAEPFFK9SFO6GTJJI0RJCQ2","14","0","APRIL","6",,"0","6","4028",,,,,"1","2018-11-08 18:17:05","379534"
"AKC7CAVN6QS52","cs_wg_mon_single_v1_pilot2","3EFE17QCRC6I98ZLTK9MZAVZV78SHF","21","0","JUNE","12",,"0","12","20029",,,,,"1","2018-11-08 18:17:07","379535"
"AKC7CAVN6QS52","cs_wg_mon_single_v1_pilot2","3EFE17QCRC6I98ZLTK9MZAVZV78SHF","22","0","NOVEMBER","6",,"0","6","2293",,,,,"1","2018-11-08 18:17:10","379536"
"A218ZWPYRMUXJN","cs_wg_mon_single_v1_pilot2","3TXMY6UCAEPFFK9SFO6GTJJI0RJCQ2","15","0","JANUARY","2",,"0","12","3821",,,,,"0","2018-11-08 18:17:11","379537"
"ARYHFQRAS0L7X","cs_wg_mon_single_v1_pilot2","32Z9ZLUT1LL3BG7SM3SDF5LYYI5OHE","16","0","DECEMBER","12",,"0","12","3552",,,,,"1","2018-11-08 18:17:11","379538"
"ALZDJ7DBWN919","cs_wg_mon_single_v1_pilot2","3M1CVSFP606RM5CUVAAPNOTU0OYAQY","11","0","JANUARY","6",,"0","6","7761",,,,,"1","2018-11-08 18:17:12","379539"
"AKC7CAVN6QS52","cs_wg_mon_single_v1_pilot2","3EFE17QCRC6I98ZLTK9MZAVZV78SHF","23","0","OCTOBER","10",,"0","10","2109",,,,,"1","2018-11-08 18:17:14","379540"
"A29YMPA27FG8BM","cs_wg_mon_single_v1_pilot2","37UQDCYH6XW18BADA6SFJKQCG87V7M","3","0","MAY","12",,"0","12","10487",,,,,"1","2018-11-08 18:17:16","379541"
"AKC7CAVN6QS52","cs_wg_mon_single_v1_pilot2","3EFE17QCRC6I98ZLTK9MZAVZV78SHF","24","0","NOVEMBER","12",,"0","12","1942",,,,,"1","2018-11-08 18:17:18","379542"
"A218ZWPYRMUXJN","cs_wg_mon_single_v1_pilot2","3TXMY6UCAEPFFK9SFO6GTJJI0RJCQ2","16","0","NOVEMBER","8",,"0","8","5515",,,,,"0","2018-11-08 18:17:18","379543"
"ARYHFQRAS0L7X","cs_wg_mon_single_v1_pilot2","32Z9ZLUT1LL3BG7SM3SDF5LYYI5OHE","17","0","SEPTEMBER","4",,"0","4","3084",,,,,"1","2018-11-08 18:17:19","379544"
"AKC7CAVN6QS52","cs_wg_mon_single_v1_pilot2","3EFE17QCRC6I98ZLTK9MZAVZV78SHF","25","0","JUNE","2",,"0","2","1941",,,,,"1","2018-11-08 18:17:22","379545"
"ALZDJ7DBWN919","cs_wg_mon_single_v1_pilot2","3M1CVSFP606RM5CUVAAPNOTU0OYAQY","12","0","APRIL","4",,"0","4","9248",,,,,"1","2018-11-08 18:17:24","379546"
"A218ZWPYRMUXJN","cs_wg_mon_single_v1_pilot2","3TXMY6UCAEPFFK9SFO6GTJJI0RJCQ2","17","0","MARCH","12",,"0","12","2165",,,,,"1","2018-11-08 18:17:24","379547"
"AKC7CAVN6QS52","cs_wg_mon_single_v1_pilot2","3EFE17QCRC6I98ZLTK9MZAVZV78SHF","26","0","DECEMBER","4",,"0","4","3196",,,,,"1","2018-11-08 18:17:26","379548"
"ARYHFQRAS0L7X","cs_wg_mon_single_v1_pilot2","32Z9ZLUT1LL3BG7SM3SDF5LYYI5OHE","18","0","MARCH","10",,"0","10","3599",,,,,"1","2018-11-08 18:17:27","379549"
"AKC7CAVN6QS52","cs_wg_mon_single_v1_pilot2","3EFE17QCRC6I98ZLTK9MZAVZV78SHF","27","0","DECEMBER","8",,"0","8","2085",,,,,"1","2018-11-08 18:17:30","379550"
"A29YMPA27FG8BM","cs_wg_mon_single_v1_pilot2","37UQDCYH6XW18BADA6SFJKQCG87V7M","4","0","JUNE","12",,"0","12","10900",,,,,"1","2018-11-08 18:17:32","379551"
"AKC7CAVN6QS52","cs_wg_mon_single_v1_pilot2","3EFE17QCRC6I98ZLTK9MZAVZV78SHF","28","0","MAY","10",,"0","10","2725",,,,,"1","2018-11-08 18:17:34","379552"
"ARYHFQRAS0L7X","cs_wg_mon_single_v1_pilot2","32Z9ZLUT1LL3BG7SM3SDF5LYYI5OHE","19","0","JUNE","8",,"0","8","3417",,,,,"1","2018-11-08 18:17:36","379553"
"AKC7CAVN6QS52","cs_wg_mon_single_v1_pilot2","3EFE17QCRC6I98ZLTK9MZAVZV78SHF","29","0","AUGUST","12",,"0","12","1965",,,,,"1","2018-11-08 18:17:38","379554"
"AKC7CAVN6QS52","cs_wg_mon_single_v1_pilot2","3EFE17QCRC6I98ZLTK9MZAVZV78SHF","30","0","APRIL","12",,"0","12","1764",,,,,"1","2018-11-08 18:17:41","379555"
"ALZDJ7DBWN919","cs_wg_mon_single_v1_pilot2","3M1CVSFP606RM5CUVAAPNOTU0OYAQY","13","0","JANUARY","8",,"0","8","15904",,,,,"1","2018-11-08 18:17:42","379556"
"ARYHFQRAS0L7X","cs_wg_mon_single_v1_pilot2","32Z9ZLUT1LL3BG7SM3SDF5LYYI5OHE","20","0","MARCH","6",,"0","6","3720",,,,,"1","2018-11-08 18:17:44","379557"
"A29YMPA27FG8BM","cs_wg_mon_single_v1_pilot2","37UQDCYH6XW18BADA6SFJKQCG87V7M","5","0","FEBRUARY","4",,"0","4","11167",,,,,"1","2018-11-08 18:17:46","379558"
"AKC7CAVN6QS52","cs_wg_mon_single_v1_pilot2","3EFE17QCRC6I98ZLTK9MZAVZV78SHF","31","0","SEPTEMBER","4",,"0","4","2420",,,,,"1","2018-11-08 18:17:46","379559"
"AKC7CAVN6QS52","cs_wg_mon_single_v1_pilot2","3EFE17QCRC6I98ZLTK9MZAVZV78SHF","32","0","AUGUST","8",,"0","8","1916",,,,,"1","2018-11-08 18:17:49","379560"
"ARYHFQRAS0L7X","cs_wg_mon_single_v1_pilot2","32Z9ZLUT1LL3BG7SM3SDF5LYYI5OHE","21","0","JULY","4",,"0","4","7894",,,,,"1","2018-11-08 18:17:54","379561"
"AKC7CAVN6QS52","cs_wg_mon_single_v1_pilot2","3EFE17QCRC6I98ZLTK9MZAVZV78SHF","33","0","JULY","6",,"0","6","3558",,,,,"1","2018-11-08 18:17:55","379562"
"A29YMPA27FG8BM","cs_wg_mon_single_v1_pilot2","37UQDCYH6XW18BADA6SFJKQCG87V7M","6","0","OCTOBER","2",,"0","2","8560",,,,,"1","2018-11-08 18:17:58","379563"
"AKC7CAVN6QS52","cs_wg_mon_single_v1_pilot2","3EFE17QCRC6I98ZLTK9MZAVZV78SHF","34","0","JUNE","2",,"0","2","1933",,,,,"1","2018-11-08 18:17:58","379564"
"ALZDJ7DBWN919","cs_wg_mon_single_v1_pilot2","3M1CVSFP606RM5CUVAAPNOTU0OYAQY","14","0","NOVEMBER","8",,"0","8","13481",,,,,"1","2018-11-08 18:17:58","379565"
"AKC7CAVN6QS52","cs_wg_mon_single_v1_pilot2","3EFE17QCRC6I98ZLTK9MZAVZV78SHF","35","0","FEBRUARY","10",,"0","10","2061",,,,,"1","2018-11-08 18:18:02","379566"
"ARYHFQRAS0L7X","cs_wg_mon_single_v1_pilot2","32Z9ZLUT1LL3BG7SM3SDF5LYYI5OHE","22","0","SEPTEMBER","6",,"0","6","7657",,,,,"1","2018-11-08 18:18:05","379567"
"ALZDJ7DBWN919","cs_wg_mon_single_v1_pilot2","3M1CVSFP606RM5CUVAAPNOTU0OYAQY","15","0","AUGUST","8",,"0","8","4461",,,,,"1","2018-11-08 18:18:06","379568"
"A218ZWPYRMUXJN","cs_wg_mon_single_v1_pilot2","3TXMY6UCAEPFFK9SFO6GTJJI0RJCQ2","18","0","JULY","6",,"0","6","3540",,,,,"1","2018-11-08 18:18:09","379569"
"ALZDJ7DBWN919","cs_wg_mon_single_v1_pilot2","3M1CVSFP606RM5CUVAAPNOTU0OYAQY","16","0","AUGUST","4",,"0","4","4541",,,,,"1","2018-11-08 18:18:14","379570"
"ARYHFQRAS0L7X","cs_wg_mon_single_v1_pilot2","32Z9ZLUT1LL3BG7SM3SDF5LYYI5OHE","23","0","JANUARY","4",,"0","4","6335",,,,,"1","2018-11-08 18:18:14","379571"
"A218ZWPYRMUXJN","cs_wg_mon_single_v1_pilot2","3TXMY6UCAEPFFK9SFO6GTJJI0RJCQ2","19","0","JUNE","12",,"0","12","2628",,,,,"1","2018-11-08 18:18:16","379572"
"A2RXRQF1AHH57S","cs_wg_mon_single_v1_pilot2","3X0H8UUIT1P06YUAOJVM0D5MAVLSWF","0","0","JANUARY","10",,"0","10","7769",,,,,"1","2018-11-08 18:18:17","379573"
"A218ZWPYRMUXJN","cs_wg_mon_single_v1_pilot2","3TXMY6UCAEPFFK9SFO6GTJJI0RJCQ2","20","0","APRIL","2",,"0","2","2196",,,,,"1","2018-11-08 18:18:22","379574"
"ALZDJ7DBWN919","cs_wg_mon_single_v1_pilot2","3M1CVSFP606RM5CUVAAPNOTU0OYAQY","17","0","FEBRUARY","8",,"0","8","7949",,,,,"1","2018-11-08 18:18:25","379575"
"A2RXRQF1AHH57S","cs_wg_mon_single_v1_pilot2","3X0H8UUIT1P06YUAOJVM0D5MAVLSWF","1","0","FEBRUARY","2",,"0","2","5679",,,,,"1","2018-11-08 18:18:25","379576"
"ARYHFQRAS0L7X","cs_wg_mon_single_v1_pilot2","32Z9ZLUT1LL3BG7SM3SDF5LYYI5OHE","24","0","OCTOBER","6",,"0","6","10201",,,,,"1","2018-11-08 18:18:26","379577"
"A29YMPA27FG8BM","cs_wg_mon_single_v1_pilot2","37UQDCYH6XW18BADA6SFJKQCG87V7M","7","0","NOVEMBER","2",,"0","2","17301",,,,,"1","2018-11-08 18:18:28","379578"
"AKC7CAVN6QS52","cs_wg_mon_single_v1_pilot2","3EFE17QCRC6I98ZLTK9MZAVZV78SHF","36","0","DECEMBER","12",,"0","12","27632",,,,,"1","2018-11-08 18:18:31","379579"
"ALZDJ7DBWN919","cs_wg_mon_single_v1_pilot2","3M1CVSFP606RM5CUVAAPNOTU0OYAQY","18","0","DECEMBER","4",,"0","4","4427",,,,,"1","2018-11-08 18:18:31","379580"
"A2RXRQF1AHH57S","cs_wg_mon_single_v1_pilot2","3X0H8UUIT1P06YUAOJVM0D5MAVLSWF","2","0","DECEMBER","2",,"0","2","5615",,,,,"1","2018-11-08 18:18:34","379581"
"AKC7CAVN6QS52","cs_wg_mon_single_v1_pilot2","3EFE17QCRC6I98ZLTK9MZAVZV78SHF","37","0","SEPTEMBER","4",,"0","4","2413",,,,,"1","2018-11-08 18:18:35","379582"
"ARYHFQRAS0L7X","cs_wg_mon_single_v1_pilot2","32Z9ZLUT1LL3BG7SM3SDF5LYYI5OHE","25","0","SEPTEMBER","2",,"0","2","4147",,,,,"1","2018-11-08 18:18:37","379583"
"AKC7CAVN6QS52","cs_wg_mon_single_v1_pilot2","3EFE17QCRC6I98ZLTK9MZAVZV78SHF","38","0","JANUARY","4",,"0","4","1637",,,,,"1","2018-11-08 18:18:38","379584"
"ALZDJ7DBWN919","cs_wg_mon_single_v1_pilot2","3M1CVSFP606RM5CUVAAPNOTU0OYAQY","19","0","DECEMBER","6",,"0","6","4725",,,,,"1","2018-11-08 18:18:39","379585"
"A29YMPA27FG8BM","cs_wg_mon_single_v1_pilot2","37UQDCYH6XW18BADA6SFJKQCG87V7M","8","0","AUGUST","6",,"0","6","10139",,,,,"1","2018-11-08 18:18:41","379586"
"AKC7CAVN6QS52","cs_wg_mon_single_v1_pilot2","3EFE17QCRC6I98ZLTK9MZAVZV78SHF","39","0","APRIL","4",,"0","4","1612",,,,,"1","2018-11-08 18:18:42","379587"
"A2RXRQF1AHH57S","cs_wg_mon_single_v1_pilot2","3X0H8UUIT1P06YUAOJVM0D5MAVLSWF","3","0","MAY","10",,"0","10","6202",,,,,"1","2018-11-08 18:18:43","379588"
"ARYHFQRAS0L7X","cs_wg_mon_single_v1_pilot2","32Z9ZLUT1LL3BG7SM3SDF5LYYI5OHE","26","0","JUNE","12",,"0","12","4088",,,,,"1","2018-11-08 18:18:47","379589"
"AKC7CAVN6QS52","cs_wg_mon_single_v1_pilot2","3EFE17QCRC6I98ZLTK9MZAVZV78SHF","40","0","DECEMBER","12",,"0","12","2925",,,,,"0","2018-11-08 18:18:47","379590"
"ALZDJ7DBWN919","cs_wg_mon_single_v1_pilot2","3M1CVSFP606RM5CUVAAPNOTU0OYAQY","20","0","NOVEMBER","4",,"0","4","4205",,,,,"1","2018-11-08 18:18:48","379591"
"AKC7CAVN6QS52","cs_wg_mon_single_v1_pilot2","3EFE17QCRC6I98ZLTK9MZAVZV78SHF","41","0","JANUARY","8",,"0","10","1629",,,,,"0","2018-11-08 18:18:51","379592"
"A2RXRQF1AHH57S","cs_wg_mon_single_v1_pilot2","3X0H8UUIT1P06YUAOJVM0D5MAVLSWF","4","0","JANUARY","12",,"0","10","4407",,,,,"0","2018-11-08 18:18:53","379593"
"AKC7CAVN6QS52","cs_wg_mon_single_v1_pilot2","3EFE17QCRC6I98ZLTK9MZAVZV78SHF","42","0","OCTOBER","4",,"0","6","1038",,,,,"0","2018-11-08 18:18:53","379594"
"ARYHFQRAS0L7X","cs_wg_mon_single_v1_pilot2","32Z9ZLUT1LL3BG7SM3SDF5LYYI5OHE","27","0","SEPTEMBER","12",,"0","12","4041",,,,,"1","2018-11-08 18:18:55","379595"
"AKC7CAVN6QS52","cs_wg_mon_single_v1_pilot2","3EFE17QCRC6I98ZLTK9MZAVZV78SHF","43","0","JUNE","8",,"0","10","1813",,,,,"0","2018-11-08 18:18:56","379596"
"A218ZWPYRMUXJN","cs_wg_mon_single_v1_pilot2","3TXMY6UCAEPFFK9SFO6GTJJI0RJCQ2","21","0","MARCH","12",,"0","12","5676",,,,,"1","2018-11-08 18:18:57","379597"
"AKC7CAVN6QS52","cs_wg_mon_single_v1_pilot2","3EFE17QCRC6I98ZLTK9MZAVZV78SHF","44","0","SEPTEMBER","8",,"0","12","1613",,,,,"0","2018-11-08 18:19:00","379598"
"A29YMPA27FG8BM","cs_wg_mon_single_v1_pilot2","37UQDCYH6XW18BADA6SFJKQCG87V7M","9","0","JUNE","8",,"0","8","16113",,,,,"1","2018-11-08 18:19:00","379599"
"A2RXRQF1AHH57S","cs_wg_mon_single_v1_pilot2","3X0H8UUIT1P06YUAOJVM0D5MAVLSWF","5","0","JUNE","6",,"0","6","5209",,,,,"1","2018-11-08 18:19:01","379600"
"ARYHFQRAS0L7X","cs_wg_mon_single_v1_pilot2","32Z9ZLUT1LL3BG7SM3SDF5LYYI5OHE","28","0","SEPTEMBER","10",,"0","10","4968",,,,,"1","2018-11-08 18:19:02","379601"
"AKC7CAVN6QS52","cs_wg_mon_single_v1_pilot2","3EFE17QCRC6I98ZLTK9MZAVZV78SHF","45","0","JUNE","4",,"0","4","1005",,,,,"0","2018-11-08 18:19:02","379602"
"ALZDJ7DBWN919","cs_wg_mon_single_v1_pilot2","3M1CVSFP606RM5CUVAAPNOTU0OYAQY","21","0","OCTOBER","10",,"0","10","13188",,,,,"1","2018-11-08 18:19:04","379603"
"A218ZWPYRMUXJN","cs_wg_mon_single_v1_pilot2","3TXMY6UCAEPFFK9SFO6GTJJI0RJCQ2","22","0","DECEMBER","8",,"0","8","6133",,,,,"1","2018-11-08 18:19:04","379604"
"AKC7CAVN6QS52","cs_wg_mon_single_v1_pilot2","3EFE17QCRC6I98ZLTK9MZAVZV78SHF","46","0","MAY","12",,"0","2","941",,,,,"0","2018-11-08 18:19:05","379605"
"AKC7CAVN6QS52","cs_wg_mon_single_v1_pilot2","3EFE17QCRC6I98ZLTK9MZAVZV78SHF","47","0","SEPTEMBER","8",,"0","10","982",,,,,"0","2018-11-08 18:19:08","379606"
"A2RXRQF1AHH57S","cs_wg_mon_single_v1_pilot2","3X0H8UUIT1P06YUAOJVM0D5MAVLSWF","6","0","FEBRUARY","2",,"0","2","4449",,,,,"1","2018-11-08 18:19:08","379607"
"ARYHFQRAS0L7X","cs_wg_mon_single_v1_pilot2","32Z9ZLUT1LL3BG7SM3SDF5LYYI5OHE","29","0","JULY","2",,"0","2","5442",,,,,"1","2018-11-08 18:19:10","379608"
"AKC7CAVN6QS52","cs_wg_mon_single_v1_pilot2","3EFE17QCRC6I98ZLTK9MZAVZV78SHF","48","0","MARCH","10",,"0","4","1525",,,,,"0","2018-11-08 18:19:11","379609"
"ALZDJ7DBWN919","cs_wg_mon_single_v1_pilot2","3M1CVSFP606RM5CUVAAPNOTU0OYAQY","22","0","OCTOBER","6",,"0","6","4710",,,,,"1","2018-11-08 18:19:11","379610"
"AKC7CAVN6QS52","cs_wg_mon_single_v1_pilot2","3EFE17QCRC6I98ZLTK9MZAVZV78SHF","49","0","JUNE","2",,"0","12","1085",,,,,"0","2018-11-08 18:19:13","379611"
"A29YMPA27FG8BM","cs_wg_mon_single_v1_pilot2","37UQDCYH6XW18BADA6SFJKQCG87V7M","10","0","SEPTEMBER","8",,"0","8","13467",,,,,"1","2018-11-08 18:19:16","379612"
"AKC7CAVN6QS52","cs_wg_mon_single_v1_pilot2","3EFE17QCRC6I98ZLTK9MZAVZV78SHF","50","0","AUGUST","2",,"0","2","1061",,,,,"0","2018-11-08 18:19:16","379613"
"A218ZWPYRMUXJN","cs_wg_mon_single_v1_pilot2","3TXMY6UCAEPFFK9SFO6GTJJI0RJCQ2","23","0","JULY","12",,"0","12","3957",,,,,"1","2018-11-08 18:19:18","379614"
"A2RXRQF1AHH57S","cs_wg_mon_single_v1_pilot2","3X0H8UUIT1P06YUAOJVM0D5MAVLSWF","7","0","MAY","6",,"0","6","8842",,,,,"1","2018-11-08 18:19:20","379615"
"AKC7CAVN6QS52","cs_wg_mon_single_v1_pilot2","3EFE17QCRC6I98ZLTK9MZAVZV78SHF","51","0","MARCH","10",,"0","12","2477",,,,,"0","2018-11-08 18:19:20","379616"
"ALZDJ7DBWN919","cs_wg_mon_single_v1_pilot2","3M1CVSFP606RM5CUVAAPNOTU0OYAQY","23","0","JULY","2",,"0","2","5404",,,,,"1","2018-11-08 18:19:23","379617"
"AKC7CAVN6QS52","cs_wg_mon_single_v1_pilot2","3EFE17QCRC6I98ZLTK9MZAVZV78SHF","52","0","OCTOBER","8",,"0","4","1837",,,,,"0","2018-11-08 18:19:23","379618"
"A29YMPA27FG8BM","cs_wg_mon_single_v1_pilot2","37UQDCYH6XW18BADA6SFJKQCG87V7M","11","0","FEBRUARY","10",,"0","10","5575",,,,,"1","2018-11-08 18:19:23","379619"
"ARYHFQRAS0L7X","cs_wg_mon_single_v1_pilot2","32Z9ZLUT1LL3BG7SM3SDF5LYYI5OHE","30","0","OCTOBER","12",,"0","12","10111",,,,,"1","2018-11-08 18:19:23","379620"
"A218ZWPYRMUXJN","cs_wg_mon_single_v1_pilot2","3TXMY6UCAEPFFK9SFO6GTJJI0RJCQ2","24","0","JUNE","4",,"0","12","2937",,,,,"0","2018-11-08 18:19:24","379621"
"AKC7CAVN6QS52","cs_wg_mon_single_v1_pilot2","3EFE17QCRC6I98ZLTK9MZAVZV78SHF","53","0","APRIL","2",,"0","8","1830",,,,,"0","2018-11-08 18:19:27","379622"
"AKC7CAVN6QS52","cs_wg_mon_single_v1_pilot2","3EFE17QCRC6I98ZLTK9MZAVZV78SHF","54","0","FEBRUARY","8",,"0","3","2113",,,,,"0","2018-11-08 18:19:31","379623"
"A2RXRQF1AHH57S","cs_wg_mon_single_v1_pilot2","3X0H8UUIT1P06YUAOJVM0D5MAVLSWF","8","0","DECEMBER","4",,"0","4","6981",,,,,"1","2018-11-08 18:19:31","379624"
"ALZDJ7DBWN919","cs_wg_mon_single_v1_pilot2","3M1CVSFP606RM5CUVAAPNOTU0OYAQY","24","0","JULY","12",,"0","12","4449",,,,,"1","2018-11-08 18:19:31","379625"
"A218ZWPYRMUXJN","cs_wg_mon_single_v1_pilot2","3TXMY6UCAEPFFK9SFO6GTJJI0RJCQ2","25","0","JUNE","8",,"0","8","3664",,,,,"1","2018-11-08 18:19:31","379626"
"ARYHFQRAS0L7X","cs_wg_mon_single_v1_pilot2","32Z9ZLUT1LL3BG7SM3SDF5LYYI5OHE","31","0","NOVEMBER","12",,"0","12","6352",,,,,"1","2018-11-08 18:19:32","379627"
"A29YMPA27FG8BM","cs_wg_mon_single_v1_pilot2","37UQDCYH6XW18BADA6SFJKQCG87V7M","12","0","OCTOBER","10",,"0","10","7255",,,,,"1","2018-11-08 18:19:33","379628"
"AKC7CAVN6QS52","cs_wg_mon_single_v1_pilot2","3EFE17QCRC6I98ZLTK9MZAVZV78SHF","55","0","SEPTEMBER","10",,"0","10","1374",,,,,"0","2018-11-08 18:19:33","379629"
"AKC7CAVN6QS52","cs_wg_mon_single_v1_pilot2","3EFE17QCRC6I98ZLTK9MZAVZV78SHF","56","0","JUNE","2",,"0","4","2420",,,,,"0","2018-11-08 18:19:38","379630"
"A2RXRQF1AHH57S","cs_wg_mon_single_v1_pilot2","3X0H8UUIT1P06YUAOJVM0D5MAVLSWF","9","0","OCTOBER","12",,"0","12","5410",,,,,"1","2018-11-08 18:19:39","379631"
"A29YMPA27FG8BM","cs_wg_mon_single_v1_pilot2","37UQDCYH6XW18BADA6SFJKQCG87V7M","13","0","OCTOBER","2",,"0","2","4489",,,,,"1","2018-11-08 18:19:40","379632"
"ALZDJ7DBWN919","cs_wg_mon_single_v1_pilot2","3M1CVSFP606RM5CUVAAPNOTU0OYAQY","25","0","JUNE","12",,"0","12","6775",,,,,"1","2018-11-08 18:19:40","379633"
"ARYHFQRAS0L7X","cs_wg_mon_single_v1_pilot2","32Z9ZLUT1LL3BG7SM3SDF5LYYI5OHE","32","0","AUGUST","12",,"0","12","4032",,,,,"1","2018-11-08 18:19:40","379634"
"AKC7CAVN6QS52","cs_wg_mon_single_v1_pilot2","3EFE17QCRC6I98ZLTK9MZAVZV78SHF","57","0","FEBRUARY","12",,"0","8","2549",,,,,"0","2018-11-08 18:19:42","379635"
"A218ZWPYRMUXJN","cs_wg_mon_single_v1_pilot2","3TXMY6UCAEPFFK9SFO6GTJJI0RJCQ2","26","0","MAY","2",,"0","2","3354",,,,,"1","2018-11-08 18:19:43","379636"
"AKC7CAVN6QS52","cs_wg_mon_single_v1_pilot2","3EFE17QCRC6I98ZLTK9MZAVZV78SHF","58","0","OCTOBER","6",,"0","10","1382",,,,,"0","2018-11-08 18:19:45","379637"
"ARYHFQRAS0L7X","cs_wg_mon_single_v1_pilot2","32Z9ZLUT1LL3BG7SM3SDF5LYYI5OHE","33","0","MAY","2",,"0","2","4938",,,,,"1","2018-11-08 18:19:47","379638"
"AKC7CAVN6QS52","cs_wg_mon_single_v1_pilot2","3EFE17QCRC6I98ZLTK9MZAVZV78SHF","59","0","OCTOBER","6",,"0","6","1533",,,,,"0","2018-11-08 18:19:48","379639"
"A2RXRQF1AHH57S","cs_wg_mon_single_v1_pilot2","3X0H8UUIT1P06YUAOJVM0D5MAVLSWF","10","0","MAY","6",,"0","6","6373",,,,,"1","2018-11-08 18:19:49","379640"
"A218ZWPYRMUXJN","cs_wg_mon_single_v1_pilot2","3TXMY6UCAEPFFK9SFO6GTJJI0RJCQ2","27","0","APRIL","4",,"0","4","2788",,,,,"1","2018-11-08 18:19:50","379641"
"AKC7CAVN6QS52","cs_wg_mon_single_v1_pilot2","3EFE17QCRC6I98ZLTK9MZAVZV78SHF","60","0","APRIL","10",,"0","4","1613",,,,,"0","2018-11-08 18:19:52","379642"
"A29YMPA27FG8BM","cs_wg_mon_single_v1_pilot2","37UQDCYH6XW18BADA6SFJKQCG87V7M","14","0","JANUARY","2",,"0","2","8118",,,,,"1","2018-11-08 18:19:52","379643"
"AKC7CAVN6QS52","cs_wg_mon_single_v1_pilot2","3EFE17QCRC6I98ZLTK9MZAVZV78SHF","61","0","JULY","12",,"0","3","2117",,,,,"0","2018-11-08 18:19:56","379644"
"ALZDJ7DBWN919","cs_wg_mon_single_v1_pilot2","3M1CVSFP606RM5CUVAAPNOTU0OYAQY","26","0","SEPTEMBER","2",,"0","2","13927",,,,,"1","2018-11-08 18:19:57","379645"
"ARYHFQRAS0L7X","cs_wg_mon_single_v1_pilot2","32Z9ZLUT1LL3BG7SM3SDF5LYYI5OHE","34","0","MARCH","6",,"0","6","5484",,,,,"1","2018-11-08 18:19:58","379646"
"A218ZWPYRMUXJN","cs_wg_mon_single_v1_pilot2","3TXMY6UCAEPFFK9SFO6GTJJI0RJCQ2","28","0","AUGUST","12",,"0","12","6012",,,,,"1","2018-11-08 18:19:58","379647"
"A2RXRQF1AHH57S","cs_wg_mon_single_v1_pilot2","3X0H8UUIT1P06YUAOJVM0D5MAVLSWF","11","0","DECEMBER","6",,"0","6","6547",,,,,"1","2018-11-08 18:19:58","379648"
"A218ZWPYRMUXJN","cs_wg_mon_single_v1_pilot2","3TXMY6UCAEPFFK9SFO6GTJJI0RJCQ2","29","0","JUNE","10",,"0","10","2646",,,,,"1","2018-11-08 18:20:02","379649"
"ALZDJ7DBWN919","cs_wg_mon_single_v1_pilot2","3M1CVSFP606RM5CUVAAPNOTU0OYAQY","27","0","SEPTEMBER","12",,"0","12","4982",,,,,"1","2018-11-08 18:20:04","379650"
"A29YMPA27FG8BM","cs_wg_mon_single_v1_pilot2","37UQDCYH6XW18BADA6SFJKQCG87V7M","15","0","JUNE","4",,"0","12","8737",,,,,"1","2018-11-08 18:20:05","379651"
"ARYHFQRAS0L7X","cs_wg_mon_single_v1_pilot2","32Z9ZLUT1LL3BG7SM3SDF5LYYI5OHE","35","0","APRIL","2",,"0","2","3969",,,,,"1","2018-11-08 18:20:07","379652"
"A218ZWPYRMUXJN","cs_wg_mon_single_v1_pilot2","3TXMY6UCAEPFFK9SFO6GTJJI0RJCQ2","30","0","JULY","8",,"0","8","2973",,,,,"1","2018-11-08 18:20:07","379653"
"A2RXRQF1AHH57S","cs_wg_mon_single_v1_pilot2","3X0H8UUIT1P06YUAOJVM0D5MAVLSWF","12","0","JUNE","10",,"0","10","8740",,,,,"1","2018-11-08 18:20:10","379654"
"A218ZWPYRMUXJN","cs_wg_mon_single_v1_pilot2","3TXMY6UCAEPFFK9SFO6GTJJI0RJCQ2","31","0","OCTOBER","4",,"0","4","1855",,,,,"1","2018-11-08 18:20:10","379655"
"A29YMPA27FG8BM","cs_wg_mon_single_v1_pilot2","37UQDCYH6XW18BADA6SFJKQCG87V7M","16","0","JUNE","2",,"0","2","3761",,,,,"1","2018-11-08 18:20:11","379656"
"ARYHFQRAS0L7X","cs_wg_mon_single_v1_pilot2","32Z9ZLUT1LL3BG7SM3SDF5LYYI5OHE","36","0","SEPTEMBER","6",,"0","6","4964",,,,,"1","2018-11-08 18:20:14","379657"
"A218ZWPYRMUXJN","cs_wg_mon_single_v1_pilot2","3TXMY6UCAEPFFK9SFO6GTJJI0RJCQ2","32","0","OCTOBER","10",,"0","10","3188",,,,,"1","2018-11-08 18:20:16","379658"
"AKC7CAVN6QS52","cs_wg_mon_single_v1_pilot2","3EFE17QCRC6I98ZLTK9MZAVZV78SHF","62","0","JANUARY","6",,"0","2","15941",,,,,"0","2018-11-08 18:20:17","379659"
"A2RXRQF1AHH57S","cs_wg_mon_single_v1_pilot2","3X0H8UUIT1P06YUAOJVM0D5MAVLSWF","13","0","MARCH","12",,"0","12","5841",,,,,"1","2018-11-08 18:20:18","379660"
"A29YMPA27FG8BM","cs_wg_mon_single_v1_pilot2","37UQDCYH6XW18BADA6SFJKQCG87V7M","17","0","NOVEMBER","2",,"0","2","5604",,,,,"1","2018-11-08 18:20:19","379661"
"A218ZWPYRMUXJN","cs_wg_mon_single_v1_pilot2","3TXMY6UCAEPFFK9SFO6GTJJI0RJCQ2","33","0","APRIL","2",,"0","2","1979",,,,,"1","2018-11-08 18:20:20","379662"
"ARYHFQRAS0L7X","cs_wg_mon_single_v1_pilot2","32Z9ZLUT1LL3BG7SM3SDF5LYYI5OHE","37","0","NOVEMBER","6",,"0","6","6744",,,,,"1","2018-11-08 18:20:23","379663"
"ALZDJ7DBWN919","cs_wg_mon_single_v1_pilot2","3M1CVSFP606RM5CUVAAPNOTU0OYAQY","28","0","JULY","4",,"0","4","16692",,,,,"1","2018-11-08 18:20:24","379664"
"AKC7CAVN6QS52","cs_wg_mon_single_v1_pilot2","3EFE17QCRC6I98ZLTK9MZAVZV78SHF","63","0","MARCH","6",,"0","4","3437",,,,,"0","2018-11-08 18:20:25","379665"
"A218ZWPYRMUXJN","cs_wg_mon_single_v1_pilot2","3TXMY6UCAEPFFK9SFO6GTJJI0RJCQ2","34","0","OCTOBER","8",,"0","8","3188",,,,,"1","2018-11-08 18:20:26","379666"
"A29YMPA27FG8BM","cs_wg_mon_single_v1_pilot2","37UQDCYH6XW18BADA6SFJKQCG87V7M","18","0","JUNE","12",,"0","12","4713",,,,,"1","2018-11-08 18:20:26","379667"
"A2RXRQF1AHH57S","cs_wg_mon_single_v1_pilot2","3X0H8UUIT1P06YUAOJVM0D5MAVLSWF","14","0","OCTOBER","4",,"0","4","7310",,,,,"1","2018-11-08 18:20:28","379668"
"A218ZWPYRMUXJN","cs_wg_mon_single_v1_pilot2","3TXMY6UCAEPFFK9SFO6GTJJI0RJCQ2","35","0","OCTOBER","4",,"0","4","2252",,,,,"1","2018-11-08 18:20:30","379669"
"ALZDJ7DBWN919","cs_wg_mon_single_v1_pilot2","3M1CVSFP606RM5CUVAAPNOTU0OYAQY","29","0","NOVEMBER","10",,"0","10","5554",,,,,"1","2018-11-08 18:20:32","379670"
"ARYHFQRAS0L7X","cs_wg_mon_single_v1_pilot2","32Z9ZLUT1LL3BG7SM3SDF5LYYI5OHE","38","0","JANUARY","4",,"0","4","3715",,,,,"1","2018-11-08 18:20:32","379671"
"AKC7CAVN6QS52","cs_wg_mon_single_v1_pilot2","3EFE17QCRC6I98ZLTK9MZAVZV78SHF","64","0","MAY","10",,"0","8","3718",,,,,"0","2018-11-08 18:20:33","379672"
"A2RXRQF1AHH57S","cs_wg_mon_single_v1_pilot2","3X0H8UUIT1P06YUAOJVM0D5MAVLSWF","15","0","NOVEMBER","2",,"0","2","5437",,,,,"1","2018-11-08 18:20:36","379673"
"A29YMPA27FG8BM","cs_wg_mon_single_v1_pilot2","37UQDCYH6XW18BADA6SFJKQCG87V7M","19","0","APRIL","12",,"0","12","6730",,,,,"1","2018-11-08 18:20:38","379674"
"ALZDJ7DBWN919","cs_wg_mon_single_v1_pilot2","3M1CVSFP606RM5CUVAAPNOTU0OYAQY","30","0","JULY","2",,"0","2","4130",,,,,"1","2018-11-08 18:20:38","379675"
"ARYHFQRAS0L7X","cs_wg_mon_single_v1_pilot2","32Z9ZLUT1LL3BG7SM3SDF5LYYI5OHE","39","0","FEBRUARY","2",,"0","2","3577",,,,,"1","2018-11-08 18:20:41","379676"
"AKC7CAVN6QS52","cs_wg_mon_single_v1_pilot2","3EFE17QCRC6I98ZLTK9MZAVZV78SHF","65","0","FEBRUARY","10",,"0","6","4270",,,,,"0","2018-11-08 18:20:43","379677"
"A2RXRQF1AHH57S","cs_wg_mon_single_v1_pilot2","3X0H8UUIT1P06YUAOJVM0D5MAVLSWF","16","0","DECEMBER","4",,"0","4","6855",,,,,"1","2018-11-08 18:20:46","379678"
"ALZDJ7DBWN919","cs_wg_mon_single_v1_pilot2","3M1CVSFP606RM5CUVAAPNOTU0OYAQY","31","0","OCTOBER","10",,"0","10","5364",,,,,"1","2018-11-08 18:20:46","379679"
"A29YMPA27FG8BM","cs_wg_mon_single_v1_pilot2","37UQDCYH6XW18BADA6SFJKQCG87V7M","20","0","DECEMBER","10",,"0","10","7277",,,,,"1","2018-11-08 18:20:48","379680"
"AKC7CAVN6QS52","cs_wg_mon_single_v1_pilot2","3EFE17QCRC6I98ZLTK9MZAVZV78SHF","66","0","OCTOBER","6",,"0","10","4094",,,,,"0","2018-11-08 18:20:48","379681"
"ARYHFQRAS0L7X","cs_wg_mon_single_v1_pilot2","32Z9ZLUT1LL3BG7SM3SDF5LYYI5OHE","40","0","MAY","2",,"0","6","7282",,,,,"0","2018-11-08 18:20:51","379682"
"AKC7CAVN6QS52","cs_wg_mon_single_v1_pilot2","3EFE17QCRC6I98ZLTK9MZAVZV78SHF","67","0","JULY","10",,"0","12","3301",,,,,"0","2018-11-08 18:20:53","379683"
"ALZDJ7DBWN919","cs_wg_mon_single_v1_pilot2","3M1CVSFP606RM5CUVAAPNOTU0OYAQY","32","0","MAY","6",,"0","6","4783",,,,,"1","2018-11-08 18:20:53","379684"
"A218ZWPYRMUXJN","cs_wg_mon_single_v1_pilot2","3TXMY6UCAEPFFK9SFO6GTJJI0RJCQ2","36","0","AUGUST","10",,"0","10","3300",,,,,"1","2018-11-08 18:20:54","379685"
"A2RXRQF1AHH57S","cs_wg_mon_single_v1_pilot2","3X0H8UUIT1P06YUAOJVM0D5MAVLSWF","17","0","APRIL","4",,"0","4","6429",,,,,"1","2018-11-08 18:20:55","379686"
"A29YMPA27FG8BM","cs_wg_mon_single_v1_pilot2","37UQDCYH6XW18BADA6SFJKQCG87V7M","21","0","JUNE","4",,"0","4","5585",,,,,"1","2018-11-08 18:20:55","379687"
"A218ZWPYRMUXJN","cs_wg_mon_single_v1_pilot2","3TXMY6UCAEPFFK9SFO6GTJJI0RJCQ2","37","0","DECEMBER","10",,"0","10","2771",,,,,"1","2018-11-08 18:20:58","379688"
"ARYHFQRAS0L7X","cs_wg_mon_single_v1_pilot2","32Z9ZLUT1LL3BG7SM3SDF5LYYI5OHE","41","0","FEBRUARY","6",,"0","6","6100",,,,,"0","2018-11-08 18:21:00","379689"
"A29YMPA27FG8BM","cs_wg_mon_single_v1_pilot2","37UQDCYH6XW18BADA6SFJKQCG87V7M","22","0","OCTOBER","4",,"0","4","3926",,,,,"1","2018-11-08 18:21:02","379690"
"AKC7CAVN6QS52","cs_wg_mon_single_v1_pilot2","3EFE17QCRC6I98ZLTK9MZAVZV78SHF","68","0","SEPTEMBER","12",,"0","6","5692",,,,,"0","2018-11-08 18:21:02","379691"
"ALZDJ7DBWN919","cs_wg_mon_single_v1_pilot2","3M1CVSFP606RM5CUVAAPNOTU0OYAQY","33","0","JUNE","6",,"0","6","6458",,,,,"1","2018-11-08 18:21:03","379692"
"A218ZWPYRMUXJN","cs_wg_mon_single_v1_pilot2","3TXMY6UCAEPFFK9SFO6GTJJI0RJCQ2","38","0","AUGUST","6",,"0","6","2620",,,,,"1","2018-11-08 18:21:03","379693"
"ARYHFQRAS0L7X","cs_wg_mon_single_v1_pilot2","32Z9ZLUT1LL3BG7SM3SDF5LYYI5OHE","42","0","MARCH","8",,"0","2","4371",,,,,"0","2018-11-08 18:21:06","379694"
"A218ZWPYRMUXJN","cs_wg_mon_single_v1_pilot2","3TXMY6UCAEPFFK9SFO6GTJJI0RJCQ2","39","0","APRIL","6",,"0","6","2165",,,,,"1","2018-11-08 18:21:07","379695"
"AKC7CAVN6QS52","cs_wg_mon_single_v1_pilot2","3EFE17QCRC6I98ZLTK9MZAVZV78SHF","69","0","APRIL","10",,"0","10","2733",,,,,"0","2018-11-08 18:21:07","379696"
"A29YMPA27FG8BM","cs_wg_mon_single_v1_pilot2","37UQDCYH6XW18BADA6SFJKQCG87V7M","23","0","MARCH","4",,"0","4","3372",,,,,"1","2018-11-08 18:21:08","379697"
"A2RXRQF1AHH57S","cs_wg_mon_single_v1_pilot2","3X0H8UUIT1P06YUAOJVM0D5MAVLSWF","18","0","OCTOBER","10",,"0","10","8008",,,,,"1","2018-11-08 18:21:08","379698"
"ALZDJ7DBWN919","cs_wg_mon_single_v1_pilot2","3M1CVSFP606RM5CUVAAPNOTU0OYAQY","34","0","MARCH","12",,"0","12","5629",,,,,"1","2018-11-08 18:21:11","379699"
"ARYHFQRAS0L7X","cs_wg_mon_single_v1_pilot2","32Z9ZLUT1LL3BG7SM3SDF5LYYI5OHE","43","0","FEBRUARY","10",,"0","12","3330",,,,,"0","2018-11-08 18:21:11","379700"
"A218ZWPYRMUXJN","cs_wg_mon_single_v1_pilot2","3TXMY6UCAEPFFK9SFO6GTJJI0RJCQ2","40","0","OCTOBER","10",,"0","4","5652",,,,,"0","2018-11-08 18:21:14","379701"
"A29YMPA27FG8BM","cs_wg_mon_single_v1_pilot2","37UQDCYH6XW18BADA6SFJKQCG87V7M","24","0","APRIL","8",,"0","8","4669",,,,,"1","2018-11-08 18:21:15","379702"
"ARYHFQRAS0L7X","cs_wg_mon_single_v1_pilot2","32Z9ZLUT1LL3BG7SM3SDF5LYYI5OHE","44","0","OCTOBER","2",,"0","12","2663",,,,,"0","2018-11-08 18:21:16","379703"
"A2RXRQF1AHH57S","cs_wg_mon_single_v1_pilot2","3X0H8UUIT1P06YUAOJVM0D5MAVLSWF","19","0","DECEMBER","6",,"0","6","7176",,,,,"1","2018-11-08 18:21:18","379704"
"A218ZWPYRMUXJN","cs_wg_mon_single_v1_pilot2","3TXMY6UCAEPFFK9SFO6GTJJI0RJCQ2","41","0","JUNE","4",,"0","12","2821",,,,,"0","2018-11-08 18:21:19","379705"
"ALZDJ7DBWN919","cs_wg_mon_single_v1_pilot2","3M1CVSFP606RM5CUVAAPNOTU0OYAQY","35","0","NOVEMBER","6",,"0","6","5061",,,,,"1","2018-11-08 18:21:19","379706"
"ARYHFQRAS0L7X","cs_wg_mon_single_v1_pilot2","32Z9ZLUT1LL3BG7SM3SDF5LYYI5OHE","45","0","NOVEMBER","12",,"0","12","3335",,,,,"0","2018-11-08 18:21:21","379707"
"A29YMPA27FG8BM","cs_wg_mon_single_v1_pilot2","37UQDCYH6XW18BADA6SFJKQCG87V7M","25","0","APRIL","6",,"0","6","6348",,,,,"1","2018-11-08 18:21:23","379708"
"ALZDJ7DBWN919","cs_wg_mon_single_v1_pilot2","3M1CVSFP606RM5CUVAAPNOTU0OYAQY","36","0","DECEMBER","8",,"0","8","4231",,,,,"1","2018-11-08 18:21:25","379709"
"A2RXRQF1AHH57S","cs_wg_mon_single_v1_pilot2","3X0H8UUIT1P06YUAOJVM0D5MAVLSWF","20","0","JANUARY","10",,"0","10","6255",,,,,"1","2018-11-08 18:21:27","379710"
"ARYHFQRAS0L7X","cs_wg_mon_single_v1_pilot2","32Z9ZLUT1LL3BG7SM3SDF5LYYI5OHE","46","0","MAY","12",,"0","4","3330",,,,,"0","2018-11-08 18:21:27","379711"
"ARYHFQRAS0L7X","cs_wg_mon_single_v1_pilot2","32Z9ZLUT1LL3BG7SM3SDF5LYYI5OHE","47","0","DECEMBER","10",,"0","6","3226",,,,,"0","2018-11-08 18:21:32","379712"
"A29YMPA27FG8BM","cs_wg_mon_single_v1_pilot2","37UQDCYH6XW18BADA6SFJKQCG87V7M","26","0","MARCH","6",,"0","6","6878",,,,,"1","2018-11-08 18:21:32","379713"
"ALZDJ7DBWN919","cs_wg_mon_single_v1_pilot2","3M1CVSFP606RM5CUVAAPNOTU0OYAQY","37","0","SEPTEMBER","10",,"0","10","4774",,,,,"1","2018-11-08 18:21:33","379714"
"A2RXRQF1AHH57S","cs_wg_mon_single_v1_pilot2","3X0H8UUIT1P06YUAOJVM0D5MAVLSWF","21","0","MARCH","6",,"0","6","5142",,,,,"1","2018-11-08 18:21:34","379715"
"A218ZWPYRMUXJN","cs_wg_mon_single_v1_pilot2","3TXMY6UCAEPFFK9SFO6GTJJI0RJCQ2","42","0","MAY","4",,"0","10","3060",,,,,"0","2018-11-08 18:21:35","379716"
"ARYHFQRAS0L7X","cs_wg_mon_single_v1_pilot2","32Z9ZLUT1LL3BG7SM3SDF5LYYI5OHE","48","0","JUNE","6",,"0","2","2762",,,,,"0","2018-11-08 18:21:37","379717"
"ALZDJ7DBWN919","cs_wg_mon_single_v1_pilot2","3M1CVSFP606RM5CUVAAPNOTU0OYAQY","38","0","SEPTEMBER","4",,"0","4","4033",,,,,"1","2018-11-08 18:21:39","379718"
"A29YMPA27FG8BM","cs_wg_mon_single_v1_pilot2","37UQDCYH6XW18BADA6SFJKQCG87V7M","27","0","JULY","2",,"0","2","6392",,,,,"1","2018-11-08 18:21:41","379719"
"A2RXRQF1AHH57S","cs_wg_mon_single_v1_pilot2","3X0H8UUIT1P06YUAOJVM0D5MAVLSWF","22","0","SEPTEMBER","2",,"0","2","4632",,,,,"1","2018-11-08 18:21:41","379720"
"ARYHFQRAS0L7X","cs_wg_mon_single_v1_pilot2","32Z9ZLUT1LL3BG7SM3SDF5LYYI5OHE","49","0","JUNE","12",,"0","4","2810",,,,,"0","2018-11-08 18:21:41","379721"
"A218ZWPYRMUXJN","cs_wg_mon_single_v1_pilot2","3TXMY6UCAEPFFK9SFO6GTJJI0RJCQ2","43","0","MAY","10",,"0","10","7389",,,,,"0","2018-11-08 18:21:45","379722"
"ARYHFQRAS0L7X","cs_wg_mon_single_v1_pilot2","32Z9ZLUT1LL3BG7SM3SDF5LYYI5OHE","50","0","AUGUST","4",,"0","8","2844",,,,,"0","2018-11-08 18:21:46","379723"
"AKC7CAVN6QS52","cs_wg_mon_single_v1_pilot2","3EFE17QCRC6I98ZLTK9MZAVZV78SHF","70","0","FEBRUARY","8",,"0","10","36158",,,,,"0","2018-11-08 18:21:46","379724"
"ALZDJ7DBWN919","cs_wg_mon_single_v1_pilot2","3M1CVSFP606RM5CUVAAPNOTU0OYAQY","39","0","FEBRUARY","4",,"0","4","4692",,,,,"1","2018-11-08 18:21:48","379725"
"A218ZWPYRMUXJN","cs_wg_mon_single_v1_pilot2","3TXMY6UCAEPFFK9SFO6GTJJI0RJCQ2","44","0","DECEMBER","10",,"0","8","2956",,,,,"0","2018-11-08 18:21:50","379726"
"ARYHFQRAS0L7X","cs_wg_mon_single_v1_pilot2","32Z9ZLUT1LL3BG7SM3SDF5LYYI5OHE","51","0","FEBRUARY","4",,"0","12","2486",,,,,"0","2018-11-08 18:21:50","379727"
"A2RXRQF1AHH57S","cs_wg_mon_single_v1_pilot2","3X0H8UUIT1P06YUAOJVM0D5MAVLSWF","23","0","JUNE","10",,"0","10","7054",,,,,"1","2018-11-08 18:21:51","379728"
"A29YMPA27FG8BM","cs_wg_mon_single_v1_pilot2","37UQDCYH6XW18BADA6SFJKQCG87V7M","28","0","AUGUST","12",,"0","12","8482",,,,,"1","2018-11-08 18:21:51","379729"
"A218ZWPYRMUXJN","cs_wg_mon_single_v1_pilot2","3TXMY6UCAEPFFK9SFO6GTJJI0RJCQ2","45","0","DECEMBER","6",,"0","8","1852",,,,,"0","2018-11-08 18:21:53","379730"
"AKC7CAVN6QS52","cs_wg_mon_single_v1_pilot2","3EFE17QCRC6I98ZLTK9MZAVZV78SHF","71","0","AUGUST","6",,"0","8","3942",,,,,"0","2018-11-08 18:21:55","379731"
"ARYHFQRAS0L7X","cs_wg_mon_single_v1_pilot2","32Z9ZLUT1LL3BG7SM3SDF5LYYI5OHE","52","0","JANUARY","4",,"0","8","3298",,,,,"0","2018-11-08 18:21:55","379732"
"ALZDJ7DBWN919","cs_wg_mon_single_v1_pilot2","3M1CVSFP606RM5CUVAAPNOTU0OYAQY","40","0","NOVEMBER","2",,"0","10","5581",,,,,"0","2018-11-08 18:21:57","379733"
"A29YMPA27FG8BM","cs_wg_mon_single_v1_pilot2","37UQDCYH6XW18BADA6SFJKQCG87V7M","29","0","DECEMBER","4",,"0","4","3849",,,,,"1","2018-11-08 18:21:58","379734"
"A218ZWPYRMUXJN","cs_wg_mon_single_v1_pilot2","3TXMY6UCAEPFFK9SFO6GTJJI0RJCQ2","46","0","JANUARY","12",,"0","12","2435",,,,,"0","2018-11-08 18:21:58","379735"
"A2RXRQF1AHH57S","cs_wg_mon_single_v1_pilot2","3X0H8UUIT1P06YUAOJVM0D5MAVLSWF","24","0","NOVEMBER","2",,"0","2","6428",,,,,"1","2018-11-08 18:22:00","379736"
"ARYHFQRAS0L7X","cs_wg_mon_single_v1_pilot2","32Z9ZLUT1LL3BG7SM3SDF5LYYI5OHE","53","0","MARCH","10",,"0","12","2466",,,,,"0","2018-11-08 18:22:00","379737"
"A218ZWPYRMUXJN","cs_wg_mon_single_v1_pilot2","3TXMY6UCAEPFFK9SFO6GTJJI0RJCQ2","47","0","JUNE","6",,"0","12","2372",,,,,"0","2018-11-08 18:22:02","379738"
"AKC7CAVN6QS52","cs_wg_mon_single_v1_pilot2","3EFE17QCRC6I98ZLTK9MZAVZV78SHF","72","0","JUNE","10",,"0","12","3357",,,,,"0","2018-11-08 18:22:03","379739"
"A29YMPA27FG8BM","cs_wg_mon_single_v1_pilot2","37UQDCYH6XW18BADA6SFJKQCG87V7M","30","0","APRIL","2",,"0","2","4385",,,,,"1","2018-11-08 18:22:04","379740"
"ARYHFQRAS0L7X","cs_wg_mon_single_v1_pilot2","32Z9ZLUT1LL3BG7SM3SDF5LYYI5OHE","54","0","FEBRUARY","4",,"0","12","2994",,,,,"0","2018-11-08 18:22:05","379741"
"A218ZWPYRMUXJN","cs_wg_mon_single_v1_pilot2","3TXMY6UCAEPFFK9SFO6GTJJI0RJCQ2","48","0","JULY","10",,"0","6","2931",,,,,"0","2018-11-08 18:22:06","379742"
"ALZDJ7DBWN919","cs_wg_mon_single_v1_pilot2","3M1CVSFP606RM5CUVAAPNOTU0OYAQY","41","0","FEBRUARY","10",,"0","6","6779",,,,,"0","2018-11-08 18:22:07","379743"
"AKC7CAVN6QS52","cs_wg_mon_single_v1_pilot2","3EFE17QCRC6I98ZLTK9MZAVZV78SHF","73","0","JANUARY","12",,"0","6","3037",,,,,"0","2018-11-08 18:22:07","379744"
"A218ZWPYRMUXJN","cs_wg_mon_single_v1_pilot2","3TXMY6UCAEPFFK9SFO6GTJJI0RJCQ2","49","0","JULY","6",,"0","12","1740",,,,,"0","2018-11-08 18:22:10","379745"
"ARYHFQRAS0L7X","cs_wg_mon_single_v1_pilot2","32Z9ZLUT1LL3BG7SM3SDF5LYYI5OHE","55","0","AUGUST","6",,"0","8","2755",,,,,"0","2018-11-08 18:22:10","379746"
"A29YMPA27FG8BM","cs_wg_mon_single_v1_pilot2","37UQDCYH6XW18BADA6SFJKQCG87V7M","31","0","AUGUST","10",,"0","10","4239",,,,,"1","2018-11-08 18:22:11","379747"
"A2RXRQF1AHH57S","cs_wg_mon_single_v1_pilot2","3X0H8UUIT1P06YUAOJVM0D5MAVLSWF","25","0","MAY","2",,"0","2","9616",,,,,"1","2018-11-08 18:22:12","379748"
"AKC7CAVN6QS52","cs_wg_mon_single_v1_pilot2","3EFE17QCRC6I98ZLTK9MZAVZV78SHF","74","0","JULY","10",,"0","24","3317",,,,,"0","2018-11-08 18:22:13","379749"
"ALZDJ7DBWN919","cs_wg_mon_single_v1_pilot2","3M1CVSFP606RM5CUVAAPNOTU0OYAQY","42","0","MAY","12",,"0","6","3840",,,,,"0","2018-11-08 18:22:14","379750"
"A218ZWPYRMUXJN","cs_wg_mon_single_v1_pilot2","3TXMY6UCAEPFFK9SFO6GTJJI0RJCQ2","50","0","FEBRUARY","8",,"0","10","3832",,,,,"0","2018-11-08 18:22:15","379751"
"AKC7CAVN6QS52","cs_wg_mon_single_v1_pilot2","3EFE17QCRC6I98ZLTK9MZAVZV78SHF","75","0","NOVEMBER","2",,"0","2","1557",,,,,"0","2018-11-08 18:22:16","379752"
"ARYHFQRAS0L7X","cs_wg_mon_single_v1_pilot2","32Z9ZLUT1LL3BG7SM3SDF5LYYI5OHE","56","0","AUGUST","12",,"0","10","5587",,,,,"0","2018-11-08 18:22:18","379753"
"A2RXRQF1AHH57S","cs_wg_mon_single_v1_pilot2","3X0H8UUIT1P06YUAOJVM0D5MAVLSWF","26","0","MAY","10",,"0","2","3862",,,,,"0","2018-11-08 18:22:19","379754"
"AKC7CAVN6QS52","cs_wg_mon_single_v1_pilot2","3EFE17QCRC6I98ZLTK9MZAVZV78SHF","76","0","AUGUST","12",,"0","10","1941",,,,,"0","2018-11-08 18:22:19","379755"
"A218ZWPYRMUXJN","cs_wg_mon_single_v1_pilot2","3TXMY6UCAEPFFK9SFO6GTJJI0RJCQ2","51","0","NOVEMBER","10",,"0","10","3435",,,,,"0","2018-11-08 18:22:20","379756"
"A29YMPA27FG8BM","cs_wg_mon_single_v1_pilot2","37UQDCYH6XW18BADA6SFJKQCG87V7M","32","0","MARCH","10",,"0","10","7546",,,,,"1","2018-11-08 18:22:21","379757"
"AKC7CAVN6QS52","cs_wg_mon_single_v1_pilot2","3EFE17QCRC6I98ZLTK9MZAVZV78SHF","77","0","MARCH","8",,"0","12","1245",,,,,"0","2018-11-08 18:22:22","379758"
"ALZDJ7DBWN919","cs_wg_mon_single_v1_pilot2","3M1CVSFP606RM5CUVAAPNOTU0OYAQY","43","0","JANUARY","8",,"0","6","5832",,,,,"0","2018-11-08 18:22:22","379759"
"ARYHFQRAS0L7X","cs_wg_mon_single_v1_pilot2","32Z9ZLUT1LL3BG7SM3SDF5LYYI5OHE","57","0","JANUARY","8",,"0","12","3099",,,,,"0","2018-11-08 18:22:23","379760"
"A218ZWPYRMUXJN","cs_wg_mon_single_v1_pilot2","3TXMY6UCAEPFFK9SFO6GTJJI0RJCQ2","52","0","NOVEMBER","6",,"0","10","1885",,,,,"0","2018-11-08 18:22:24","379761"
"AKC7CAVN6QS52","cs_wg_mon_single_v1_pilot2","3EFE17QCRC6I98ZLTK9MZAVZV78SHF","78","0","DECEMBER","2",,"0","8","1253",,,,,"0","2018-11-08 18:22:25","379762"
"A29YMPA27FG8BM","cs_wg_mon_single_v1_pilot2","37UQDCYH6XW18BADA6SFJKQCG87V7M","33","0","DECEMBER","10",,"0","10","4521",,,,,"1","2018-11-08 18:22:28","379763"
"AKC7CAVN6QS52","cs_wg_mon_single_v1_pilot2","3EFE17QCRC6I98ZLTK9MZAVZV78SHF","79","0","MARCH","2",,"0","4","941",,,,,"0","2018-11-08 18:22:28","379764"
"A2RXRQF1AHH57S","cs_wg_mon_single_v1_pilot2","3X0H8UUIT1P06YUAOJVM0D5MAVLSWF","27","0","AUGUST","8",,"0","8","5547",,,,,"1","2018-11-08 18:22:28","379765"
"ARYHFQRAS0L7X","cs_wg_mon_single_v1_pilot2","32Z9ZLUT1LL3BG7SM3SDF5LYYI5OHE","58","0","OCTOBER","8",,"0","10","2576",,,,,"0","2018-11-08 18:22:28","379766"
"A218ZWPYRMUXJN","cs_wg_mon_single_v1_pilot2","3TXMY6UCAEPFFK9SFO6GTJJI0RJCQ2","53","0","AUGUST","10",,"0","8","3276",,,,,"0","2018-11-08 18:22:29","379767"
"ALZDJ7DBWN919","cs_wg_mon_single_v1_pilot2","3M1CVSFP606RM5CUVAAPNOTU0OYAQY","44","0","JUNE","12",,"0","2","5169",,,,,"0","2018-11-08 18:22:30","379768"
"AKC7CAVN6QS52","cs_wg_mon_single_v1_pilot2","3EFE17QCRC6I98ZLTK9MZAVZV78SHF","80","0","JANUARY","6",,"0","2","1262",,,,,"0","2018-11-08 18:22:31","379769"
"ARYHFQRAS0L7X","cs_wg_mon_single_v1_pilot2","32Z9ZLUT1LL3BG7SM3SDF5LYYI5OHE","59","0","APRIL","4",,"0","4","2764",,,,,"0","2018-11-08 18:22:33","379770"
"AKC7CAVN6QS52","cs_wg_mon_single_v1_pilot2","3EFE17QCRC6I98ZLTK9MZAVZV78SHF","81","0","FEBRUARY","4",,"0","6","1182",,,,,"0","2018-11-08 18:22:34","379771"
"A29YMPA27FG8BM","cs_wg_mon_single_v1_pilot2","37UQDCYH6XW18BADA6SFJKQCG87V7M","34","0","JULY","12",,"0","12","4269",,,,,"1","2018-11-08 18:22:34","379772"
"A218ZWPYRMUXJN","cs_wg_mon_single_v1_pilot2","3TXMY6UCAEPFFK9SFO6GTJJI0RJCQ2","54","0","MAY","12",,"0","10","3916",,,,,"0","2018-11-08 18:22:35","379773"
"ALZDJ7DBWN919","cs_wg_mon_single_v1_pilot2","3M1CVSFP606RM5CUVAAPNOTU0OYAQY","45","0","AUGUST","10",,"0","4","2673",,,,,"0","2018-11-08 18:22:35","379774"
"AKC7CAVN6QS52","cs_wg_mon_single_v1_pilot2","3EFE17QCRC6I98ZLTK9MZAVZV78SHF","82","0","APRIL","4",,"0","4","997",,,,,"0","2018-11-08 18:22:36","379775"
"A2RXRQF1AHH57S","cs_wg_mon_single_v1_pilot2","3X0H8UUIT1P06YUAOJVM0D5MAVLSWF","28","0","JANUARY","6",,"0","6","6630",,,,,"1","2018-11-08 18:22:37","379776"
"ARYHFQRAS0L7X","cs_wg_mon_single_v1_pilot2","32Z9ZLUT1LL3BG7SM3SDF5LYYI5OHE","60","0","AUGUST","2",,"0","6","3579",,,,,"0","2018-11-08 18:22:39","379777"
"A29YMPA27FG8BM","cs_wg_mon_single_v1_pilot2","37UQDCYH6XW18BADA6SFJKQCG87V7M","35","0","DECEMBER","4",,"0","4","3566",,,,,"1","2018-11-08 18:22:40","379778"
"AKC7CAVN6QS52","cs_wg_mon_single_v1_pilot2","3EFE17QCRC6I98ZLTK9MZAVZV78SHF","83","0","JULY","4",,"0","8","2053",,,,,"0","2018-11-08 18:22:40","379779"
"A218ZWPYRMUXJN","cs_wg_mon_single_v1_pilot2","3TXMY6UCAEPFFK9SFO6GTJJI0RJCQ2","55","0","SEPTEMBER","8",,"0","12","4148",,,,,"0","2018-11-08 18:22:41","379780"
"ALZDJ7DBWN919","cs_wg_mon_single_v1_pilot2","3M1CVSFP606RM5CUVAAPNOTU0OYAQY","46","0","MARCH","2",,"0","6","3291",,,,,"0","2018-11-08 18:22:41","379781"
"AKC7CAVN6QS52","cs_wg_mon_single_v1_pilot2","3EFE17QCRC6I98ZLTK9MZAVZV78SHF","84","0","JULY","12",,"0","4","2013",,,,,"0","2018-11-08 18:22:44","379782"
"ARYHFQRAS0L7X","cs_wg_mon_single_v1_pilot2","32Z9ZLUT1LL3BG7SM3SDF5LYYI5OHE","61","0","FEBRUARY","2",,"0","12","3354",,,,,"0","2018-11-08 18:22:44","379783"
"A2RXRQF1AHH57S","cs_wg_mon_single_v1_pilot2","3X0H8UUIT1P06YUAOJVM0D5MAVLSWF","29","0","JULY","6",,"0","6","4284",,,,,"1","2018-11-08 18:22:44","379784"
"A218ZWPYRMUXJN","cs_wg_mon_single_v1_pilot2","3TXMY6UCAEPFFK9SFO6GTJJI0RJCQ2","56","0","JANUARY","2",,"0","10","2548",,,,,"0","2018-11-08 18:22:45","379785"
"A29YMPA27FG8BM","cs_wg_mon_single_v1_pilot2","37UQDCYH6XW18BADA6SFJKQCG87V7M","36","0","NOVEMBER","2",,"0","2","3623",,,,,"1","2018-11-08 18:22:45","379786"
"ALZDJ7DBWN919","cs_wg_mon_single_v1_pilot2","3M1CVSFP606RM5CUVAAPNOTU0OYAQY","47","0","MAY","8",,"0","6","3937",,,,,"0","2018-11-08 18:22:47","379787"
"A1WOAY9J3T4EUG","cs_wg_mon_single_v1_pilot2","3KJYX6QCM9CUS6BFBFHCMAVL739JVJ","0","0","JUNE","4",,"0","120","16898",,,,,"0","2018-11-08 18:22:49","379788"
"A218ZWPYRMUXJN","cs_wg_mon_single_v1_pilot2","3TXMY6UCAEPFFK9SFO6GTJJI0RJCQ2","57","0","JULY","12",,"0","6","2429",,,,,"0","2018-11-08 18:22:50","379789"
"ARYHFQRAS0L7X","cs_wg_mon_single_v1_pilot2","32Z9ZLUT1LL3BG7SM3SDF5LYYI5OHE","62","0","APRIL","10",,"0","8","3017",,,,,"0","2018-11-08 18:22:50","379790"
"A29YMPA27FG8BM","cs_wg_mon_single_v1_pilot2","37UQDCYH6XW18BADA6SFJKQCG87V7M","37","0","MAY","8",,"0","8","3975",,,,,"1","2018-11-08 18:22:51","379791"
"A218ZWPYRMUXJN","cs_wg_mon_single_v1_pilot2","3TXMY6UCAEPFFK9SFO6GTJJI0RJCQ2","58","0","SEPTEMBER","4",,"0","8","2404",,,,,"0","2018-11-08 18:22:54","379792"
"A2RXRQF1AHH57S","cs_wg_mon_single_v1_pilot2","3X0H8UUIT1P06YUAOJVM0D5MAVLSWF","30","0","SEPTEMBER","2",,"0","2","8864",,,,,"1","2018-11-08 18:22:56","379793"
"A29YMPA27FG8BM","cs_wg_mon_single_v1_pilot2","37UQDCYH6XW18BADA6SFJKQCG87V7M","38","0","JANUARY","12",,"0","12","4130",,,,,"1","2018-11-08 18:22:58","379794"
"A218ZWPYRMUXJN","cs_wg_mon_single_v1_pilot2","3TXMY6UCAEPFFK9SFO6GTJJI0RJCQ2","59","0","NOVEMBER","12",,"0","10","2213",,,,,"0","2018-11-08 18:22:58","379795"
"ARYHFQRAS0L7X","cs_wg_mon_single_v1_pilot2","32Z9ZLUT1LL3BG7SM3SDF5LYYI5OHE","63","0","AUGUST","6",,"0","6","6298",,,,,"0","2018-11-08 18:22:59","379796"
"A1WOAY9J3T4EUG","cs_wg_mon_single_v1_pilot2","3KJYX6QCM9CUS6BFBFHCMAVL739JVJ","1","0","JUNE","4",,"0","4","7317",,,,,"0","2018-11-08 18:23:00","379797"
"ALZDJ7DBWN919","cs_wg_mon_single_v1_pilot2","3M1CVSFP606RM5CUVAAPNOTU0OYAQY","48","0","FEBRUARY","2",,"0","8","10609",,,,,"0","2018-11-08 18:23:01","379798"
"AKC7CAVN6QS52","cs_wg_mon_single_v1_pilot2","3EFE17QCRC6I98ZLTK9MZAVZV78SHF","85","0","JANUARY","8",,"0","6","19164",,,,,"0","2018-11-08 18:23:05","379799"
"A2RXRQF1AHH57S","cs_wg_mon_single_v1_pilot2","3X0H8UUIT1P06YUAOJVM0D5MAVLSWF","31","0","JANUARY","12",,"0","12","8055",,,,,"1","2018-11-08 18:23:06","379800"
"ARYHFQRAS0L7X","cs_wg_mon_single_v1_pilot2","32Z9ZLUT1LL3BG7SM3SDF5LYYI5OHE","64","0","SEPTEMBER","8",,"0","10","6104",,,,,"0","2018-11-08 18:23:07","379801"
"A29YMPA27FG8BM","cs_wg_mon_single_v1_pilot2","37UQDCYH6XW18BADA6SFJKQCG87V7M","39","0","FEBRUARY","8",,"0","8","4356",,,,,"1","2018-11-08 18:23:07","379802"
"AKC7CAVN6QS52","cs_wg_mon_single_v1_pilot2","3EFE17QCRC6I98ZLTK9MZAVZV78SHF","86","0","OCTOBER","12",,"0","100","1485",,,,,"0","2018-11-08 18:23:09","379803"
"ALZDJ7DBWN919","cs_wg_mon_single_v1_pilot2","3M1CVSFP606RM5CUVAAPNOTU0OYAQY","49","0","AUGUST","12",,"0","10","4879",,,,,"0","2018-11-08 18:23:09","379804"
"AKC7CAVN6QS52","cs_wg_mon_single_v1_pilot2","3EFE17QCRC6I98ZLTK9MZAVZV78SHF","87","0","DECEMBER","10",,"0","2","1269",,,,,"0","2018-11-08 18:23:11","379805"
"ARYHFQRAS0L7X","cs_wg_mon_single_v1_pilot2","32Z9ZLUT1LL3BG7SM3SDF5LYYI5OHE","65","0","JUNE","4",,"0","10","2964",,,,,"0","2018-11-08 18:23:11","379806"
"A218ZWPYRMUXJN","cs_wg_mon_single_v1_pilot2","3TXMY6UCAEPFFK9SFO6GTJJI0RJCQ2","60","0","NOVEMBER","6",,"0","8","11898",,,,,"0","2018-11-08 18:23:12","379807"
"A1WOAY9J3T4EUG","cs_wg_mon_single_v1_pilot2","3KJYX6QCM9CUS6BFBFHCMAVL739JVJ","2","0","MAY","12",,"0","10","6602",,,,,"0","2018-11-08 18:23:13","379808"
"ALZDJ7DBWN919","cs_wg_mon_single_v1_pilot2","3M1CVSFP606RM5CUVAAPNOTU0OYAQY","50","0","JUNE","10",,"0","2","2595",,,,,"0","2018-11-08 18:23:14","379809"
"A2RXRQF1AHH57S","cs_wg_mon_single_v1_pilot2","3X0H8UUIT1P06YUAOJVM0D5MAVLSWF","32","0","SEPTEMBER","10",,"0","10","5096",,,,,"1","2018-11-08 18:23:14","379810"
"AKC7CAVN6QS52","cs_wg_mon_single_v1_pilot2","3EFE17QCRC6I98ZLTK9MZAVZV78SHF","88","0","AUGUST","6",,"0","8","1334",,,,,"0","2018-11-08 18:23:14","379811"
"AKC7CAVN6QS52","cs_wg_mon_single_v1_pilot2","3EFE17QCRC6I98ZLTK9MZAVZV78SHF","89","0","JUNE","8",,"0","6","694",,,,,"0","2018-11-08 18:23:16","379812"
"A218ZWPYRMUXJN","cs_wg_mon_single_v1_pilot2","3TXMY6UCAEPFFK9SFO6GTJJI0RJCQ2","61","0","AUGUST","8",,"0","10","3213",,,,,"0","2018-11-08 18:23:16","379813"
"ARYHFQRAS0L7X","cs_wg_mon_single_v1_pilot2","32Z9ZLUT1LL3BG7SM3SDF5LYYI5OHE","66","0","JULY","8",,"0","12","5258",,,,,"0","2018-11-08 18:23:19","379814"
"AKC7CAVN6QS52","cs_wg_mon_single_v1_pilot2","3EFE17QCRC6I98ZLTK9MZAVZV78SHF","90","0","MARCH","12",,"0","8","837",,,,,"0","2018-11-08 18:23:19","379815"
"A1WOAY9J3T4EUG","cs_wg_mon_single_v1_pilot2","3KJYX6QCM9CUS6BFBFHCMAVL739JVJ","3","0","SEPTEMBER","6",,"0","12","3865",,,,,"0","2018-11-08 18:23:20","379816"
"A218ZWPYRMUXJN","cs_wg_mon_single_v1_pilot2","3TXMY6UCAEPFFK9SFO6GTJJI0RJCQ2","62","0","JANUARY","2",,"0","10","2372",,,,,"0","2018-11-08 18:23:20","379817"
"AKC7CAVN6QS52","cs_wg_mon_single_v1_pilot2","3EFE17QCRC6I98ZLTK9MZAVZV78SHF","91","0","SEPTEMBER","8",,"0","12","862",,,,,"0","2018-11-08 18:23:21","379818"
"A29YMPA27FG8BM","cs_wg_mon_single_v1_pilot2","37UQDCYH6XW18BADA6SFJKQCG87V7M","40","0","AUGUST","8",,"0","0","6599",,,,,"0","2018-11-08 18:23:22","379819"
"A2RXRQF1AHH57S","cs_wg_mon_single_v1_pilot2","3X0H8UUIT1P06YUAOJVM0D5MAVLSWF","33","0","FEBRUARY","4",,"0","4","6129",,,,,"1","2018-11-08 18:23:23","379820"
"AKC7CAVN6QS52","cs_wg_mon_single_v1_pilot2","3EFE17QCRC6I98ZLTK9MZAVZV78SHF","92","0","JANUARY","8",,"0","4","1124",,,,,"0","2018-11-08 18:23:24","379821"
"ARYHFQRAS0L7X","cs_wg_mon_single_v1_pilot2","32Z9ZLUT1LL3BG7SM3SDF5LYYI5OHE","67","0","OCTOBER","8",,"0","10","3081",,,,,"0","2018-11-08 18:23:24","379822"
"A218ZWPYRMUXJN","cs_wg_mon_single_v1_pilot2","3TXMY6UCAEPFFK9SFO6GTJJI0RJCQ2","63","0","DECEMBER","4",,"0","8","2725",,,,,"0","2018-11-08 18:23:25","379823"
"ALZDJ7DBWN919","cs_wg_mon_single_v1_pilot2","3M1CVSFP606RM5CUVAAPNOTU0OYAQY","51","0","MAY","2",,"0","2","9087",,,,,"0","2018-11-08 18:23:26","379824"
"AKC7CAVN6QS52","cs_wg_mon_single_v1_pilot2","3EFE17QCRC6I98ZLTK9MZAVZV78SHF","93","0","JUNE","10",,"0","8","1013",,,,,"0","2018-11-08 18:23:26","379825"
"A1WOAY9J3T4EUG","cs_wg_mon_single_v1_pilot2","3KJYX6QCM9CUS6BFBFHCMAVL739JVJ","4","0","FEBRUARY","4",,"0","3","3592",,,,,"0","2018-11-08 18:23:28","379826"
"A218ZWPYRMUXJN","cs_wg_mon_single_v1_pilot2","3TXMY6UCAEPFFK9SFO6GTJJI0RJCQ2","64","0","MARCH","8",,"0","12","2092",,,,,"0","2018-11-08 18:23:29","379827"
"AKC7CAVN6QS52","cs_wg_mon_single_v1_pilot2","3EFE17QCRC6I98ZLTK9MZAVZV78SHF","94","0","NOVEMBER","8",,"0","10","933",,,,,"0","2018-11-08 18:23:30","379828"
"ARYHFQRAS0L7X","cs_wg_mon_single_v1_pilot2","32Z9ZLUT1LL3BG7SM3SDF5LYYI5OHE","68","0","AUGUST","10",,"0","12","3345",,,,,"0","2018-11-08 18:23:30","379829"
"A29YMPA27FG8BM","cs_wg_mon_single_v1_pilot2","37UQDCYH6XW18BADA6SFJKQCG87V7M","41","0","OCTOBER","8",,"0","10","5425",,,,,"0","2018-11-08 18:23:31","379830"
"ALZDJ7DBWN919","cs_wg_mon_single_v1_pilot2","3M1CVSFP606RM5CUVAAPNOTU0OYAQY","52","0","AUGUST","8",,"0","8","3199",,,,,"0","2018-11-08 18:23:32","379831"
"A218ZWPYRMUXJN","cs_wg_mon_single_v1_pilot2","3TXMY6UCAEPFFK9SFO6GTJJI0RJCQ2","65","0","SEPTEMBER","10",,"0","10","1893",,,,,"0","2018-11-08 18:23:32","379832"
"AKC7CAVN6QS52","cs_wg_mon_single_v1_pilot2","3EFE17QCRC6I98ZLTK9MZAVZV78SHF","95","0","MAY","6",,"0","2","1095",,,,,"0","2018-11-08 18:23:32","379833"
"ARYHFQRAS0L7X","cs_wg_mon_single_v1_pilot2","32Z9ZLUT1LL3BG7SM3SDF5LYYI5OHE","69","0","JANUARY","12",,"0","8","2562",,,,,"0","2018-11-08 18:23:35","379834"
"A218ZWPYRMUXJN","cs_wg_mon_single_v1_pilot2","3TXMY6UCAEPFFK9SFO6GTJJI0RJCQ2","66","0","FEBRUARY","12",,"0","12","1869",,,,,"0","2018-11-08 18:23:36","379835"
"A29YMPA27FG8BM","cs_wg_mon_single_v1_pilot2","37UQDCYH6XW18BADA6SFJKQCG87V7M","42","0","JANUARY","10",,"0","4","4285",,,,,"0","2018-11-08 18:23:37","379836"
"ALZDJ7DBWN919","cs_wg_mon_single_v1_pilot2","3M1CVSFP606RM5CUVAAPNOTU0OYAQY","53","0","MAY","2",,"0","12","3550",,,,,"0","2018-11-08 18:23:38","379837"
"A218ZWPYRMUXJN","cs_wg_mon_single_v1_pilot2","3TXMY6UCAEPFFK9SFO6GTJJI0RJCQ2","67","0","FEBRUARY","10",,"0","12","1275",,,,,"0","2018-11-08 18:23:39","379838"
"AKC7CAVN6QS52","cs_wg_mon_single_v1_pilot2","3EFE17QCRC6I98ZLTK9MZAVZV78SHF","96","0","FEBRUARY","4",,"0","10","4243",,,,,"0","2018-11-08 18:23:39","379839"
"ARYHFQRAS0L7X","cs_wg_mon_single_v1_pilot2","32Z9ZLUT1LL3BG7SM3SDF5LYYI5OHE","70","0","JUNE","2",,"0","6","4472",,,,,"0","2018-11-08 18:23:41","379840"
"AKC7CAVN6QS52","cs_wg_mon_single_v1_pilot2","3EFE17QCRC6I98ZLTK9MZAVZV78SHF","97","0","APRIL","12",,"0","2","864",,,,,"0","2018-11-08 18:23:41","379841"
"A218ZWPYRMUXJN","cs_wg_mon_single_v1_pilot2","3TXMY6UCAEPFFK9SFO6GTJJI0RJCQ2","68","0","JUNE","12",,"0","12","1828",,,,,"0","2018-11-08 18:23:42","379842"
"ALZDJ7DBWN919","cs_wg_mon_single_v1_pilot2","3M1CVSFP606RM5CUVAAPNOTU0OYAQY","54","0","APRIL","4",,"0","4","2790",,,,,"0","2018-11-08 18:23:43","379843"
"A29YMPA27FG8BM","cs_wg_mon_single_v1_pilot2","37UQDCYH6XW18BADA6SFJKQCG87V7M","43","0","DECEMBER","6",,"0","8","3578",,,,,"0","2018-11-08 18:23:43","379844"
"A2RXRQF1AHH57S","cs_wg_mon_single_v1_pilot2","3X0H8UUIT1P06YUAOJVM0D5MAVLSWF","34","0","NOVEMBER","12",,"0","12","18243",,,,,"1","2018-11-08 18:23:44","379845"
"AKC7CAVN6QS52","cs_wg_mon_single_v1_pilot2","3EFE17QCRC6I98ZLTK9MZAVZV78SHF","98","0","FEBRUARY","4",,"0","4","989",,,,,"0","2018-11-08 18:23:44","379846"
"A218ZWPYRMUXJN","cs_wg_mon_single_v1_pilot2","3TXMY6UCAEPFFK9SFO6GTJJI0RJCQ2","69","0","FEBRUARY","4",,"0","12","1948",,,,,"0","2018-11-08 18:23:46","379847"
"ARYHFQRAS0L7X","cs_wg_mon_single_v1_pilot2","32Z9ZLUT1LL3BG7SM3SDF5LYYI5OHE","71","0","SEPTEMBER","2",,"0","8","3931",,,,,"0","2018-11-08 18:23:47","379848"
"A1WOAY9J3T4EUG","cs_wg_mon_single_v1_pilot2","3KJYX6QCM9CUS6BFBFHCMAVL739JVJ","5","0","DECEMBER","10",,"0","4","13409",,,,,"0","2018-11-08 18:23:48","379849"
"AKC7CAVN6QS52","cs_wg_mon_single_v1_pilot2","3EFE17QCRC6I98ZLTK9MZAVZV78SHF","99","0","MAY","12",,"0","2","1981",,,,,"0","2018-11-08 18:23:48","379850"
"ALZDJ7DBWN919","cs_wg_mon_single_v1_pilot2","3M1CVSFP606RM5CUVAAPNOTU0OYAQY","55","0","APRIL","12",,"0","12","2845",,,,,"0","2018-11-08 18:23:48","379851"
"A29YMPA27FG8BM","cs_wg_mon_single_v1_pilot2","37UQDCYH6XW18BADA6SFJKQCG87V7M","44","0","NOVEMBER","2",,"0","8","2738",,,,,"0","2018-11-08 18:23:48","379852"
"A218ZWPYRMUXJN","cs_wg_mon_single_v1_pilot2","3TXMY6UCAEPFFK9SFO6GTJJI0RJCQ2","70","0","AUGUST","4",,"0","10","1765",,,,,"0","2018-11-08 18:23:49","379853"
"ARYHFQRAS0L7X","cs_wg_mon_single_v1_pilot2","32Z9ZLUT1LL3BG7SM3SDF5LYYI5OHE","72","0","JULY","4",,"0","12","2761",,,,,"0","2018-11-08 18:23:51","379854"
"AKC7CAVN6QS52","cs_wg_mon_single_v1_pilot2","3EFE17QCRC6I98ZLTK9MZAVZV78SHF","100","0","JULY","2",,"0","12","886",,,,,"0","2018-11-08 18:23:51","379855"
"A218ZWPYRMUXJN","cs_wg_mon_single_v1_pilot2","3TXMY6UCAEPFFK9SFO6GTJJI0RJCQ2","71","0","NOVEMBER","10",,"0","12","1319",,,,,"0","2018-11-08 18:23:52","379856"
"AKC7CAVN6QS52","cs_wg_mon_single_v1_pilot2","3EFE17QCRC6I98ZLTK9MZAVZV78SHF","101","0","NOVEMBER","8",,"0","2","854",,,,,"0","2018-11-08 18:23:54","379857"
"ALZDJ7DBWN919","cs_wg_mon_single_v1_pilot2","3M1CVSFP606RM5CUVAAPNOTU0OYAQY","56","0","DECEMBER","2",,"0","12","3755",,,,,"0","2018-11-08 18:23:54","379858"
"A29YMPA27FG8BM","cs_wg_mon_single_v1_pilot2","37UQDCYH6XW18BADA6SFJKQCG87V7M","45","0","MAY","12",,"0","8","3951",,,,,"0","2018-11-08 18:23:55","379859"
"A218ZWPYRMUXJN","cs_wg_mon_single_v1_pilot2","3TXMY6UCAEPFFK9SFO6GTJJI0RJCQ2","72","0","APRIL","12",,"0","8","1991",,,,,"0","2018-11-08 18:23:55","379860"
"ARYHFQRAS0L7X","cs_wg_mon_single_v1_pilot2","32Z9ZLUT1LL3BG7SM3SDF5LYYI5OHE","73","0","MAY","10",,"0","8","2568",,,,,"0","2018-11-08 18:23:56","379861"
"AKC7CAVN6QS52","cs_wg_mon_single_v1_pilot2","3EFE17QCRC6I98ZLTK9MZAVZV78SHF","102","0","NOVEMBER","4",,"0","8","1558",,,,,"0","2018-11-08 18:23:57","379862"
"A218ZWPYRMUXJN","cs_wg_mon_single_v1_pilot2","3TXMY6UCAEPFFK9SFO6GTJJI0RJCQ2","73","0","MARCH","10",,"0","6","1980",,,,,"0","2018-11-08 18:23:59","379863"
"AKC7CAVN6QS52","cs_wg_mon_single_v1_pilot2","3EFE17QCRC6I98ZLTK9MZAVZV78SHF","103","0","JULY","4",,"0","4","1077",,,,,"0","2018-11-08 18:24:00","379864"
"ARYHFQRAS0L7X","cs_wg_mon_single_v1_pilot2","32Z9ZLUT1LL3BG7SM3SDF5LYYI5OHE","74","0","MAY","6",,"0","12","2377",,,,,"0","2018-11-08 18:24:00","379865"
"A29YMPA27FG8BM","cs_wg_mon_single_v1_pilot2","37UQDCYH6XW18BADA6SFJKQCG87V7M","46","0","OCTOBER","2",,"0","12","2848",,,,,"0","2018-11-08 18:24:00","379866"
"A2RXRQF1AHH57S","cs_wg_mon_single_v1_pilot2","3X0H8UUIT1P06YUAOJVM0D5MAVLSWF","35","0","NOVEMBER","4",,"0","4","14561",,,,,"1","2018-11-08 18:24:01","379867"
"A1WOAY9J3T4EUG","cs_wg_mon_single_v1_pilot2","3KJYX6QCM9CUS6BFBFHCMAVL739JVJ","6","0","JULY","10",,"0","10","6270",,,,,"0","2018-11-08 18:24:02","379868"
"A218ZWPYRMUXJN","cs_wg_mon_single_v1_pilot2","3TXMY6UCAEPFFK9SFO6GTJJI0RJCQ2","74","0","APRIL","2",,"0","8","1829",,,,,"0","2018-11-08 18:24:02","379869"
"AKC7CAVN6QS52","cs_wg_mon_single_v1_pilot2","3EFE17QCRC6I98ZLTK9MZAVZV78SHF","104","0","FEBRUARY","6",,"0","4","1438",,,,,"0","2018-11-08 18:24:03","379870"
"ARYHFQRAS0L7X","cs_wg_mon_single_v1_pilot2","32Z9ZLUT1LL3BG7SM3SDF5LYYI5OHE","75","0","DECEMBER","10",,"0","4","2337",,,,,"0","2018-11-08 18:24:04","379871"
"ALZDJ7DBWN919","cs_wg_mon_single_v1_pilot2","3M1CVSFP606RM5CUVAAPNOTU0OYAQY","57","0","OCTOBER","8",,"0","10","7406",,,,,"0","2018-11-08 18:24:04","379872"
"AKC7CAVN6QS52","cs_wg_mon_single_v1_pilot2","3EFE17QCRC6I98ZLTK9MZAVZV78SHF","105","0","NOVEMBER","4",,"0","4","804",,,,,"0","2018-11-08 18:24:05","379873"
"A218ZWPYRMUXJN","cs_wg_mon_single_v1_pilot2","3TXMY6UCAEPFFK9SFO6GTJJI0RJCQ2","75","0","OCTOBER","2",,"0","12","1837",,,,,"0","2018-11-08 18:24:06","379874"
"A29YMPA27FG8BM","cs_wg_mon_single_v1_pilot2","37UQDCYH6XW18BADA6SFJKQCG87V7M","47","0","JANUARY","12",,"0","12","2125",,,,,"0","2018-11-08 18:24:07","379875"
"AKC7CAVN6QS52","cs_wg_mon_single_v1_pilot2","3EFE17QCRC6I98ZLTK9MZAVZV78SHF","106","0","MARCH","4",,"0","4","838",,,,,"0","2018-11-08 18:24:07","379876"
"ARYHFQRAS0L7X","cs_wg_mon_single_v1_pilot2","32Z9ZLUT1LL3BG7SM3SDF5LYYI5OHE","76","0","APRIL","8",,"0","12","2938",,,,,"0","2018-11-08 18:24:08","379877"
"A2RXRQF1AHH57S","cs_wg_mon_single_v1_pilot2","3X0H8UUIT1P06YUAOJVM0D5MAVLSWF","36","0","AUGUST","8",,"0","8","5471",,,,,"1","2018-11-08 18:24:09","379878"
"A218ZWPYRMUXJN","cs_wg_mon_single_v1_pilot2","3TXMY6UCAEPFFK9SFO6GTJJI0RJCQ2","76","0","JUNE","6",,"0","6","1701",,,,,"0","2018-11-08 18:24:09","379879"
"ALZDJ7DBWN919","cs_wg_mon_single_v1_pilot2","3M1CVSFP606RM5CUVAAPNOTU0OYAQY","58","0","AUGUST","8",,"0","8","3551",,,,,"0","2018-11-08 18:24:10","379880"
"AKC7CAVN6QS52","cs_wg_mon_single_v1_pilot2","3EFE17QCRC6I98ZLTK9MZAVZV78SHF","107","0","JULY","6",,"0","6","1413",,,,,"0","2018-11-08 18:24:10","379881"
"A218ZWPYRMUXJN","cs_wg_mon_single_v1_pilot2","3TXMY6UCAEPFFK9SFO6GTJJI0RJCQ2","77","0","DECEMBER","6",,"0","12","1371",,,,,"0","2018-11-08 18:24:12","379882"
"A29YMPA27FG8BM","cs_wg_mon_single_v1_pilot2","37UQDCYH6XW18BADA6SFJKQCG87V7M","48","0","DECEMBER","12",,"0","12","2162",,,,,"0","2018-11-08 18:24:13","379883"
"AKC7CAVN6QS52","cs_wg_mon_single_v1_pilot2","3EFE17QCRC6I98ZLTK9MZAVZV78SHF","108","0","JULY","2",,"0","6","965",,,,,"0","2018-11-08 18:24:13","379884"
"ARYHFQRAS0L7X","cs_wg_mon_single_v1_pilot2","32Z9ZLUT1LL3BG7SM3SDF5LYYI5OHE","77","0","JUNE","8",,"0","4","2918",,,,,"0","2018-11-08 18:24:13","379885"
"A1WOAY9J3T4EUG","cs_wg_mon_single_v1_pilot2","3KJYX6QCM9CUS6BFBFHCMAVL739JVJ","7","0","JUNE","6",,"0","20","8343",,,,,"0","2018-11-08 18:24:14","379886"
"AKC7CAVN6QS52","cs_wg_mon_single_v1_pilot2","3EFE17QCRC6I98ZLTK9MZAVZV78SHF","109","0","MARCH","2",,"0","6","732",,,,,"0","2018-11-08 18:24:15","379887"
"A218ZWPYRMUXJN","cs_wg_mon_single_v1_pilot2","3TXMY6UCAEPFFK9SFO6GTJJI0RJCQ2","78","0","SEPTEMBER","4",,"0","10","2125",,,,,"0","2018-11-08 18:24:15","379888"
"ALZDJ7DBWN919","cs_wg_mon_single_v1_pilot2","3M1CVSFP606RM5CUVAAPNOTU0OYAQY","59","0","AUGUST","4",,"0","12","4046",,,,,"0","2018-11-08 18:24:17","379889"
"A29YMPA27FG8BM","cs_wg_mon_single_v1_pilot2","37UQDCYH6XW18BADA6SFJKQCG87V7M","49","0","SEPTEMBER","6",,"0","12","2129",,,,,"0","2018-11-08 18:24:17","379890"
"ARYHFQRAS0L7X","cs_wg_mon_single_v1_pilot2","32Z9ZLUT1LL3BG7SM3SDF5LYYI5OHE","78","0","SEPTEMBER","10",,"0","4","2381",,,,,"0","2018-11-08 18:24:18","379891"
"AKC7CAVN6QS52","cs_wg_mon_single_v1_pilot2","3EFE17QCRC6I98ZLTK9MZAVZV78SHF","110","0","APRIL","6",,"0","6","901",,,,,"0","2018-11-08 18:24:18","379892"
"A2RXRQF1AHH57S","cs_wg_mon_single_v1_pilot2","3X0H8UUIT1P06YUAOJVM0D5MAVLSWF","37","0","FEBRUARY","12",,"0","12","6157",,,,,"1","2018-11-08 18:24:18","379893"
"A218ZWPYRMUXJN","cs_wg_mon_single_v1_pilot2","3TXMY6UCAEPFFK9SFO6GTJJI0RJCQ2","79","0","MARCH","12",,"0","12","1421",,,,,"0","2018-11-08 18:24:18","379894"
"AKC7CAVN6QS52","cs_wg_mon_single_v1_pilot2","3EFE17QCRC6I98ZLTK9MZAVZV78SHF","111","0","SEPTEMBER","2",,"0","4","981",,,,,"0","2018-11-08 18:24:21","379895"
"A218ZWPYRMUXJN","cs_wg_mon_single_v1_pilot2","3TXMY6UCAEPFFK9SFO6GTJJI0RJCQ2","80","0","OCTOBER","8",,"0","10","1604",,,,,"0","2018-11-08 18:24:21","379896"
"A29YMPA27FG8BM","cs_wg_mon_single_v1_pilot2","37UQDCYH6XW18BADA6SFJKQCG87V7M","50","0","APRIL","4",,"0","12","1685",,,,,"0","2018-11-08 18:24:22","379897"
"ARYHFQRAS0L7X","cs_wg_mon_single_v1_pilot2","32Z9ZLUT1LL3BG7SM3SDF5LYYI5OHE","79","0","OCTOBER","12",,"0","12","2777",,,,,"0","2018-11-08 18:24:23","379898"
"AKC7CAVN6QS52","cs_wg_mon_single_v1_pilot2","3EFE17QCRC6I98ZLTK9MZAVZV78SHF","112","0","NOVEMBER","6",,"0","4","1341",,,,,"0","2018-11-08 18:24:24","379899"
"A218ZWPYRMUXJN","cs_wg_mon_single_v1_pilot2","3TXMY6UCAEPFFK9SFO6GTJJI0RJCQ2","81","0","NOVEMBER","4",,"0","12","1893",,,,,"0","2018-11-08 18:24:25","379900"
"AKC7CAVN6QS52","cs_wg_mon_single_v1_pilot2","3EFE17QCRC6I98ZLTK9MZAVZV78SHF","113","0","SEPTEMBER","8",,"0","4","1013",,,,,"0","2018-11-08 18:24:26","379901"
"A29YMPA27FG8BM","cs_wg_mon_single_v1_pilot2","37UQDCYH6XW18BADA6SFJKQCG87V7M","51","0","SEPTEMBER","10",,"0","12","1800",,,,,"0","2018-11-08 18:24:26","379902"
"ARYHFQRAS0L7X","cs_wg_mon_single_v1_pilot2","32Z9ZLUT1LL3BG7SM3SDF5LYYI5OHE","80","0","AUGUST","2",,"0","4","2922",,,,,"0","2018-11-08 18:24:28","379903"
"A218ZWPYRMUXJN","cs_wg_mon_single_v1_pilot2","3TXMY6UCAEPFFK9SFO6GTJJI0RJCQ2","82","0","AUGUST","6",,"0","8","1589",,,,,"0","2018-11-08 18:24:28","379904"
"A2RXRQF1AHH57S","cs_wg_mon_single_v1_pilot2","3X0H8UUIT1P06YUAOJVM0D5MAVLSWF","38","0","MARCH","2",,"0","2","7041",,,,,"1","2018-11-08 18:24:28","379905"
"AKC7CAVN6QS52","cs_wg_mon_single_v1_pilot2","3EFE17QCRC6I98ZLTK9MZAVZV78SHF","114","0","MAY","6",,"0","4","798",,,,,"0","2018-11-08 18:24:28","379906"
"ALZDJ7DBWN919","cs_wg_mon_single_v1_pilot2","3M1CVSFP606RM5CUVAAPNOTU0OYAQY","60","0","APRIL","4",,"0","2","10385",,,,,"0","2018-11-08 18:24:29","379907"
"A29YMPA27FG8BM","cs_wg_mon_single_v1_pilot2","37UQDCYH6XW18BADA6SFJKQCG87V7M","52","0","FEBRUARY","8",,"0","12","2005",,,,,"0","2018-11-08 18:24:31","379908"
"AKC7CAVN6QS52","cs_wg_mon_single_v1_pilot2","3EFE17QCRC6I98ZLTK9MZAVZV78SHF","115","0","MAY","4",,"0","4","805",,,,,"0","2018-11-08 18:24:31","379909"
"A218ZWPYRMUXJN","cs_wg_mon_single_v1_pilot2","3TXMY6UCAEPFFK9SFO6GTJJI0RJCQ2","83","0","DECEMBER","8",,"0","10","2021",,,,,"0","2018-11-08 18:24:32","379910"
"A1WOAY9J3T4EUG","cs_wg_mon_single_v1_pilot2","3KJYX6QCM9CUS6BFBFHCMAVL739JVJ","8","0","JANUARY","10",,"0","10","8847",,,,,"0","2018-11-08 18:24:32","379911"
"ARYHFQRAS0L7X","cs_wg_mon_single_v1_pilot2","32Z9ZLUT1LL3BG7SM3SDF5LYYI5OHE","81","0","APRIL","4",,"0","4","2481",,,,,"0","2018-11-08 18:24:32","379912"
"AKC7CAVN6QS52","cs_wg_mon_single_v1_pilot2","3EFE17QCRC6I98ZLTK9MZAVZV78SHF","116","0","AUGUST","6",,"0","4","1364",,,,,"0","2018-11-08 18:24:34","379913"
"A218ZWPYRMUXJN","cs_wg_mon_single_v1_pilot2","3TXMY6UCAEPFFK9SFO6GTJJI0RJCQ2","84","0","MAY","12",,"0","6","1788",,,,,"0","2018-11-08 18:24:35","379914"
"A29YMPA27FG8BM","cs_wg_mon_single_v1_pilot2","37UQDCYH6XW18BADA6SFJKQCG87V7M","53","0","DECEMBER","12",,"0","12","1661",,,,,"0","2018-11-08 18:24:35","379915"
"ARYHFQRAS0L7X","cs_wg_mon_single_v1_pilot2","32Z9ZLUT1LL3BG7SM3SDF5LYYI5OHE","82","0","JANUARY","8",,"0","6","2346",,,,,"0","2018-11-08 18:24:36","379916"
"ALZDJ7DBWN919","cs_wg_mon_single_v1_pilot2","3M1CVSFP606RM5CUVAAPNOTU0OYAQY","61","0","APRIL","6",,"0","12","4339",,,,,"0","2018-11-08 18:24:36","379917"
"AKC7CAVN6QS52","cs_wg_mon_single_v1_pilot2","3EFE17QCRC6I98ZLTK9MZAVZV78SHF","117","0","JANUARY","8",,"0","6","813",,,,,"0","2018-11-08 18:24:36","379918"
"A2RXRQF1AHH57S","cs_wg_mon_single_v1_pilot2","3X0H8UUIT1P06YUAOJVM0D5MAVLSWF","39","0","APRIL","12",,"0","12","6027",,,,,"1","2018-11-08 18:24:37","379919"
"A218ZWPYRMUXJN","cs_wg_mon_single_v1_pilot2","3TXMY6UCAEPFFK9SFO6GTJJI0RJCQ2","85","0","NOVEMBER","4",,"0","8","2109",,,,,"0","2018-11-08 18:24:39","379920"
"AKC7CAVN6QS52","cs_wg_mon_single_v1_pilot2","3EFE17QCRC6I98ZLTK9MZAVZV78SHF","118","0","APRIL","10",,"0","6","1005",,,,,"0","2018-11-08 18:24:39","379921"
"A29YMPA27FG8BM","cs_wg_mon_single_v1_pilot2","37UQDCYH6XW18BADA6SFJKQCG87V7M","54","0","OCTOBER","8",,"0","12","1877",,,,,"0","2018-11-08 18:24:39","379922"
"ARYHFQRAS0L7X","cs_wg_mon_single_v1_pilot2","32Z9ZLUT1LL3BG7SM3SDF5LYYI5OHE","83","0","DECEMBER","8",,"0","10","3321",,,,,"0","2018-11-08 18:24:41","379923"
"AKC7CAVN6QS52","cs_wg_mon_single_v1_pilot2","3EFE17QCRC6I98ZLTK9MZAVZV78SHF","119","0","JANUARY","2",,"0","6","967",,,,,"0","2018-11-08 18:24:41","379924"
"A218ZWPYRMUXJN","cs_wg_mon_single_v1_pilot2","3TXMY6UCAEPFFK9SFO6GTJJI0RJCQ2","86","0","JULY","2",,"0","12","1613",,,,,"0","2018-11-08 18:24:42","379925"
"ALZDJ7DBWN919","cs_wg_mon_single_v1_pilot2","3M1CVSFP606RM5CUVAAPNOTU0OYAQY","62","0","OCTOBER","8",,"0","10","3606",,,,,"0","2018-11-08 18:24:42","379926"
"A29YMPA27FG8BM","cs_wg_mon_single_v1_pilot2","37UQDCYH6XW18BADA6SFJKQCG87V7M","55","0","JULY","10",,"0","12","1615",,,,,"0","2018-11-08 18:24:43","379927"
"A1WOAY9J3T4EUG","cs_wg_mon_single_v1_pilot2","3KJYX6QCM9CUS6BFBFHCMAVL739JVJ","9","0","FEBRUARY","8",,"0","10","9882",,,,,"0","2018-11-08 18:24:45","379928"
"A2RXRQF1AHH57S","cs_wg_mon_single_v1_pilot2","3X0H8UUIT1P06YUAOJVM0D5MAVLSWF","40","0","APRIL","8",,"0","12","5616",,,,,"0","2018-11-08 18:24:46","379929"
"A218ZWPYRMUXJN","cs_wg_mon_single_v1_pilot2","3TXMY6UCAEPFFK9SFO6GTJJI0RJCQ2","87","0","FEBRUARY","2",,"0","10","2485",,,,,"0","2018-11-08 18:24:46","379930"
"A29YMPA27FG8BM","cs_wg_mon_single_v1_pilot2","37UQDCYH6XW18BADA6SFJKQCG87V7M","56","0","DECEMBER","6",,"0","12","1452",,,,,"0","2018-11-08 18:24:47","379931"
"A218ZWPYRMUXJN","cs_wg_mon_single_v1_pilot2","3TXMY6UCAEPFFK9SFO6GTJJI0RJCQ2","88","0","FEBRUARY","10",,"0","8","1932",,,,,"0","2018-11-08 18:24:49","379932"
"ARYHFQRAS0L7X","cs_wg_mon_single_v1_pilot2","32Z9ZLUT1LL3BG7SM3SDF5LYYI5OHE","84","0","JUNE","12",,"0","12","7785",,,,,"0","2018-11-08 18:24:51","379933"
"ALZDJ7DBWN919","cs_wg_mon_single_v1_pilot2","3M1CVSFP606RM5CUVAAPNOTU0OYAQY","63","0","NOVEMBER","6",,"0","10","6041",,,,,"0","2018-11-08 18:24:51","379934"
"A29YMPA27FG8BM","cs_wg_mon_single_v1_pilot2","37UQDCYH6XW18BADA6SFJKQCG87V7M","57","0","JULY","4",,"0","12","1843",,,,,"0","2018-11-08 18:24:52","379935"
"A218ZWPYRMUXJN","cs_wg_mon_single_v1_pilot2","3TXMY6UCAEPFFK9SFO6GTJJI0RJCQ2","89","0","JULY","6",,"0","6","1549",,,,,"0","2018-11-08 18:24:52","379936"
"ARYHFQRAS0L7X","cs_wg_mon_single_v1_pilot2","32Z9ZLUT1LL3BG7SM3SDF5LYYI5OHE","85","0","MAY","10",,"0","12","2612",,,,,"0","2018-11-08 18:24:55","379937"
"A1WOAY9J3T4EUG","cs_wg_mon_single_v1_pilot2","3KJYX6QCM9CUS6BFBFHCMAVL739JVJ","10","0","OCTOBER","12",,"0","10","7036",,,,,"0","2018-11-08 18:24:56","379938"
"A218ZWPYRMUXJN","cs_wg_mon_single_v1_pilot2","3TXMY6UCAEPFFK9SFO6GTJJI0RJCQ2","90","0","OCTOBER","8",,"0","10","1828",,,,,"0","2018-11-08 18:24:56","379939"
"A29YMPA27FG8BM","cs_wg_mon_single_v1_pilot2","37UQDCYH6XW18BADA6SFJKQCG87V7M","58","0","MARCH","4",,"0","12","1796",,,,,"0","2018-11-08 18:24:56","379940"
"ALZDJ7DBWN919","cs_wg_mon_single_v1_pilot2","3M1CVSFP606RM5CUVAAPNOTU0OYAQY","64","0","JUNE","6",,"0","2","5986",,,,,"0","2018-11-08 18:25:00","379941"
"A218ZWPYRMUXJN","cs_wg_mon_single_v1_pilot2","3TXMY6UCAEPFFK9SFO6GTJJI0RJCQ2","91","0","JANUARY","10",,"0","6","2300",,,,,"0","2018-11-08 18:25:00","379942"
"A29YMPA27FG8BM","cs_wg_mon_single_v1_pilot2","37UQDCYH6XW18BADA6SFJKQCG87V7M","59","0","JANUARY","6",,"0","12","1998",,,,,"0","2018-11-08 18:25:01","379943"
"ARYHFQRAS0L7X","cs_wg_mon_single_v1_pilot2","32Z9ZLUT1LL3BG7SM3SDF5LYYI5OHE","86","0","DECEMBER","10",,"0","10","4608",,,,,"0","2018-11-08 18:25:02","379944"
"A218ZWPYRMUXJN","cs_wg_mon_single_v1_pilot2","3TXMY6UCAEPFFK9SFO6GTJJI0RJCQ2","92","0","MARCH","2",,"0","12","2077",,,,,"0","2018-11-08 18:25:03","379945"
"A29YMPA27FG8BM","cs_wg_mon_single_v1_pilot2","37UQDCYH6XW18BADA6SFJKQCG87V7M","60","0","APRIL","6",,"0","12","1811",,,,,"0","2018-11-08 18:25:05","379946"
"A1WOAY9J3T4EUG","cs_wg_mon_single_v1_pilot2","3KJYX6QCM9CUS6BFBFHCMAVL739JVJ","11","0","MARCH","6",,"0","24","5038",,,,,"0","2018-11-08 18:25:05","379947"
"ALZDJ7DBWN919","cs_wg_mon_single_v1_pilot2","3M1CVSFP606RM5CUVAAPNOTU0OYAQY","65","0","JULY","6",,"0","2","3056",,,,,"0","2018-11-08 18:25:05","379948"
"ARYHFQRAS0L7X","cs_wg_mon_single_v1_pilot2","32Z9ZLUT1LL3BG7SM3SDF5LYYI5OHE","87","0","JANUARY","2",,"0","8","2227",,,,,"0","2018-11-08 18:25:06","379949"
"A218ZWPYRMUXJN","cs_wg_mon_single_v1_pilot2","3TXMY6UCAEPFFK9SFO6GTJJI0RJCQ2","93","0","JANUARY","8",,"0","10","1702",,,,,"0","2018-11-08 18:25:06","379950"
"A2RXRQF1AHH57S","cs_wg_mon_single_v1_pilot2","3X0H8UUIT1P06YUAOJVM0D5MAVLSWF","41","0","SEPTEMBER","10",,"0","10","17688",,,,,"0","2018-11-08 18:25:08","379951"
"A218ZWPYRMUXJN","cs_wg_mon_single_v1_pilot2","3TXMY6UCAEPFFK9SFO6GTJJI0RJCQ2","94","0","APRIL","8",,"0","4","1595",,,,,"0","2018-11-08 18:25:10","379952"
"ARYHFQRAS0L7X","cs_wg_mon_single_v1_pilot2","32Z9ZLUT1LL3BG7SM3SDF5LYYI5OHE","88","0","JULY","12",,"0","4","2463",,,,,"0","2018-11-08 18:25:10","379953"
"A29YMPA27FG8BM","cs_wg_mon_single_v1_pilot2","37UQDCYH6XW18BADA6SFJKQCG87V7M","61","0","APRIL","12",,"0","12","1794",,,,,"0","2018-11-08 18:25:11","379954"
"A218ZWPYRMUXJN","cs_wg_mon_single_v1_pilot2","3TXMY6UCAEPFFK9SFO6GTJJI0RJCQ2","95","0","MARCH","8",,"0","10","2068",,,,,"0","2018-11-08 18:25:13","379955"
"A1WOAY9J3T4EUG","cs_wg_mon_single_v1_pilot2","3KJYX6QCM9CUS6BFBFHCMAVL739JVJ","12","0","NOVEMBER","2",,"0","10","5439",,,,,"0","2018-11-08 18:25:14","379956"
"ARYHFQRAS0L7X","cs_wg_mon_single_v1_pilot2","32Z9ZLUT1LL3BG7SM3SDF5LYYI5OHE","89","0","OCTOBER","2",,"0","10","2513",,,,,"0","2018-11-08 18:25:15","379957"
"A29YMPA27FG8BM","cs_wg_mon_single_v1_pilot2","37UQDCYH6XW18BADA6SFJKQCG87V7M","62","0","MAY","4",,"0","12","1685",,,,,"0","2018-11-08 18:25:15","379958"
"A218ZWPYRMUXJN","cs_wg_mon_single_v1_pilot2","3TXMY6UCAEPFFK9SFO6GTJJI0RJCQ2","96","0","MAY","2",,"0","6","1965",,,,,"0","2018-11-08 18:25:17","379959"
"ARYHFQRAS0L7X","cs_wg_mon_single_v1_pilot2","32Z9ZLUT1LL3BG7SM3SDF5LYYI5OHE","90","0","JULY","10",,"0","4","2263",,,,,"0","2018-11-08 18:25:19","379960"
"A29YMPA27FG8BM","cs_wg_mon_single_v1_pilot2","37UQDCYH6XW18BADA6SFJKQCG87V7M","63","0","MARCH","4",,"0","12","1514",,,,,"0","2018-11-08 18:25:19","379961"
"A218ZWPYRMUXJN","cs_wg_mon_single_v1_pilot2","3TXMY6UCAEPFFK9SFO6GTJJI0RJCQ2","97","0","OCTOBER","4",,"0","10","2252",,,,,"0","2018-11-08 18:25:22","379962"
"ALZDJ7DBWN919","cs_wg_mon_single_v1_pilot2","3M1CVSFP606RM5CUVAAPNOTU0OYAQY","66","0","FEBRUARY","2",,"0","8","15045",,,,,"0","2018-11-08 18:25:23","379963"
"ARYHFQRAS0L7X","cs_wg_mon_single_v1_pilot2","32Z9ZLUT1LL3BG7SM3SDF5LYYI5OHE","91","0","JULY","8",,"0","12","2448",,,,,"0","2018-11-08 18:25:23","379964"
"A29YMPA27FG8BM","cs_wg_mon_single_v1_pilot2","37UQDCYH6XW18BADA6SFJKQCG87V7M","64","0","JUNE","10",,"0","12","2661",,,,,"0","2018-11-08 18:25:24","379965"
"A2RXRQF1AHH57S","cs_wg_mon_single_v1_pilot2","3X0H8UUIT1P06YUAOJVM0D5MAVLSWF","42","0","MARCH","10",,"0","6","16461",,,,,"0","2018-11-08 18:25:27","379966"
"ARYHFQRAS0L7X","cs_wg_mon_single_v1_pilot2","32Z9ZLUT1LL3BG7SM3SDF5LYYI5OHE","92","0","JANUARY","6",,"0","6","2338",,,,,"0","2018-11-08 18:25:27","379967"
"A29YMPA27FG8BM","cs_wg_mon_single_v1_pilot2","37UQDCYH6XW18BADA6SFJKQCG87V7M","65","0","SEPTEMBER","4",,"0","12","1583",,,,,"0","2018-11-08 18:25:28","379968"
"ALZDJ7DBWN919","cs_wg_mon_single_v1_pilot2","3M1CVSFP606RM5CUVAAPNOTU0OYAQY","67","0","OCTOBER","4",,"0","8","4070",,,,,"0","2018-11-08 18:25:30","379969"
"A218ZWPYRMUXJN","cs_wg_mon_single_v1_pilot2","3TXMY6UCAEPFFK9SFO6GTJJI0RJCQ2","98","0","SEPTEMBER","12",,"0","8","1828",,,,,"0","2018-11-08 18:25:31","379970"
"ARYHFQRAS0L7X","cs_wg_mon_single_v1_pilot2","32Z9ZLUT1LL3BG7SM3SDF5LYYI5OHE","93","0","JANUARY","12",,"0","4","2282",,,,,"0","2018-11-08 18:25:32","379971"
"A2RXRQF1AHH57S","cs_wg_mon_single_v1_pilot2","3X0H8UUIT1P06YUAOJVM0D5MAVLSWF","43","0","SEPTEMBER","2",,"0","10","4026",,,,,"0","2018-11-08 18:25:33","379972"
"A218ZWPYRMUXJN","cs_wg_mon_single_v1_pilot2","3TXMY6UCAEPFFK9SFO6GTJJI0RJCQ2","99","0","APRIL","2",,"0","4","1330",,,,,"0","2018-11-08 18:25:34","379973"
"A29YMPA27FG8BM","cs_wg_mon_single_v1_pilot2","37UQDCYH6XW18BADA6SFJKQCG87V7M","66","0","AUGUST","4",,"0","12","2378",,,,,"0","2018-11-08 18:25:35","379974"
"ARYHFQRAS0L7X","cs_wg_mon_single_v1_pilot2","32Z9ZLUT1LL3BG7SM3SDF5LYYI5OHE","94","0","MAY","6",,"0","10","2926",,,,,"0","2018-11-08 18:25:36","379975"
"ALZDJ7DBWN919","cs_wg_mon_single_v1_pilot2","3M1CVSFP606RM5CUVAAPNOTU0OYAQY","68","0","JANUARY","2",,"0","4","4900",,,,,"0","2018-11-08 18:25:37","379976"
"A218ZWPYRMUXJN","cs_wg_mon_single_v1_pilot2","3TXMY6UCAEPFFK9SFO6GTJJI0RJCQ2","100","0","JUNE","2",,"0","6","1757",,,,,"0","2018-11-08 18:25:37","379977"
"A29YMPA27FG8BM","cs_wg_mon_single_v1_pilot2","37UQDCYH6XW18BADA6SFJKQCG87V7M","67","0","NOVEMBER","2",,"0","12","1801",,,,,"0","2018-11-08 18:25:38","379978"
"ARYHFQRAS0L7X","cs_wg_mon_single_v1_pilot2","32Z9ZLUT1LL3BG7SM3SDF5LYYI5OHE","95","0","OCTOBER","12",,"0","2","2299",,,,,"0","2018-11-08 18:25:40","379979"
"A218ZWPYRMUXJN","cs_wg_mon_single_v1_pilot2","3TXMY6UCAEPFFK9SFO6GTJJI0RJCQ2","101","0","OCTOBER","6",,"0","10","2324",,,,,"0","2018-11-08 18:25:41","379980"
"A29YMPA27FG8BM","cs_wg_mon_single_v1_pilot2","37UQDCYH6XW18BADA6SFJKQCG87V7M","68","0","AUGUST","12",,"0","12","1444",,,,,"0","2018-11-08 18:25:43","379981"
"ALZDJ7DBWN919","cs_wg_mon_single_v1_pilot2","3M1CVSFP606RM5CUVAAPNOTU0OYAQY","69","0","SEPTEMBER","2",,"0","10","4044",,,,,"0","2018-11-08 18:25:43","379982"
"ARYHFQRAS0L7X","cs_wg_mon_single_v1_pilot2","32Z9ZLUT1LL3BG7SM3SDF5LYYI5OHE","96","0","SEPTEMBER","2",,"0","12","2434",,,,,"0","2018-11-08 18:25:45","379983"
"A218ZWPYRMUXJN","cs_wg_mon_single_v1_pilot2","3TXMY6UCAEPFFK9SFO6GTJJI0RJCQ2","102","0","FEBRUARY","10",,"0","6","2629",,,,,"0","2018-11-08 18:25:46","379984"
"A2RXRQF1AHH57S","cs_wg_mon_single_v1_pilot2","3X0H8UUIT1P06YUAOJVM0D5MAVLSWF","44","0","MAY","4",,"0","12","10471",,,,,"0","2018-11-08 18:25:46","379985"
"A29YMPA27FG8BM","cs_wg_mon_single_v1_pilot2","37UQDCYH6XW18BADA6SFJKQCG87V7M","69","0","MARCH","8",,"0","12","2153",,,,,"0","2018-11-08 18:25:48","379986"
"ALZDJ7DBWN919","cs_wg_mon_single_v1_pilot2","3M1CVSFP606RM5CUVAAPNOTU0OYAQY","70","0","NOVEMBER","2",,"0","10","2347",,,,,"0","2018-11-08 18:25:48","379987"
"A218ZWPYRMUXJN","cs_wg_mon_single_v1_pilot2","3TXMY6UCAEPFFK9SFO6GTJJI0RJCQ2","103","0","JANUARY","12",,"0","10","1916",,,,,"0","2018-11-08 18:25:49","379988"
"ARYHFQRAS0L7X","cs_wg_mon_single_v1_pilot2","32Z9ZLUT1LL3BG7SM3SDF5LYYI5OHE","97","0","APRIL","2",,"0","4","2627",,,,,"0","2018-11-08 18:25:49","379989"
"A29YMPA27FG8BM","cs_wg_mon_single_v1_pilot2","37UQDCYH6XW18BADA6SFJKQCG87V7M","70","0","JULY","2",,"0","12","1413",,,,,"0","2018-11-08 18:25:51","379990"
"ALZDJ7DBWN919","cs_wg_mon_single_v1_pilot2","3M1CVSFP606RM5CUVAAPNOTU0OYAQY","71","0","AUGUST","2",,"0","6","2340",,,,,"0","2018-11-08 18:25:52","379991"
"A218ZWPYRMUXJN","cs_wg_mon_single_v1_pilot2","3TXMY6UCAEPFFK9SFO6GTJJI0RJCQ2","104","0","MARCH","6",,"0","8","2092",,,,,"0","2018-11-08 18:25:53","379992"
"ARYHFQRAS0L7X","cs_wg_mon_single_v1_pilot2","32Z9ZLUT1LL3BG7SM3SDF5LYYI5OHE","98","0","OCTOBER","4",,"0","4","2866",,,,,"0","2018-11-08 18:25:54","379993"
"A2RXRQF1AHH57S","cs_wg_mon_single_v1_pilot2","3X0H8UUIT1P06YUAOJVM0D5MAVLSWF","45","0","APRIL","4",,"0","10","6549",,,,,"0","2018-11-08 18:25:55","379994"
"A218ZWPYRMUXJN","cs_wg_mon_single_v1_pilot2","3TXMY6UCAEPFFK9SFO6GTJJI0RJCQ2","105","0","MARCH","12",,"0","12","1780",,,,,"0","2018-11-08 18:25:56","379995"
"ALZDJ7DBWN919","cs_wg_mon_single_v1_pilot2","3M1CVSFP606RM5CUVAAPNOTU0OYAQY","72","0","JANUARY","8",,"0","10","2363",,,,,"0","2018-11-08 18:25:56","379996"
"A29YMPA27FG8BM","cs_wg_mon_single_v1_pilot2","37UQDCYH6XW18BADA6SFJKQCG87V7M","71","0","DECEMBER","6",,"0","12","3976",,,,,"0","2018-11-08 18:25:57","379997"
"ARYHFQRAS0L7X","cs_wg_mon_single_v1_pilot2","32Z9ZLUT1LL3BG7SM3SDF5LYYI5OHE","99","0","JULY","2",,"0","12","3403",,,,,"0","2018-11-08 18:25:59","379998"
"A218ZWPYRMUXJN","cs_wg_mon_single_v1_pilot2","3TXMY6UCAEPFFK9SFO6GTJJI0RJCQ2","106","0","JULY","4",,"0","6","1852",,,,,"0","2018-11-08 18:26:00","379999"
"A2RXRQF1AHH57S","cs_wg_mon_single_v1_pilot2","3X0H8UUIT1P06YUAOJVM0D5MAVLSWF","46","0","FEBRUARY","8",,"0","2","2950",,,,,"0","2018-11-08 18:26:00","380000"
"ALZDJ7DBWN919","cs_wg_mon_single_v1_pilot2","3M1CVSFP606RM5CUVAAPNOTU0OYAQY","73","0","FEBRUARY","12",,"0","2","2361",,,,,"0","2018-11-08 18:26:01","380001"
"A29YMPA27FG8BM","cs_wg_mon_single_v1_pilot2","37UQDCYH6XW18BADA6SFJKQCG87V7M","72","0","FEBRUARY","8",,"0","12","1561",,,,,"0","2018-11-08 18:26:01","380002"
"A218ZWPYRMUXJN","cs_wg_mon_single_v1_pilot2","3TXMY6UCAEPFFK9SFO6GTJJI0RJCQ2","107","0","JUNE","4",,"0","10","2323",,,,,"0","2018-11-08 18:26:04","380003"
"ARYHFQRAS0L7X","cs_wg_mon_single_v1_pilot2","32Z9ZLUT1LL3BG7SM3SDF5LYYI5OHE","100","0","JULY","10",,"0","6","2863",,,,,"0","2018-11-08 18:26:04","380004"
"A29YMPA27FG8BM","cs_wg_mon_single_v1_pilot2","37UQDCYH6XW18BADA6SFJKQCG87V7M","73","0","JANUARY","12",,"0","12","1928",,,,,"0","2018-11-08 18:26:06","380005"
"ALZDJ7DBWN919","cs_wg_mon_single_v1_pilot2","3M1CVSFP606RM5CUVAAPNOTU0OYAQY","74","0","APRIL","8",,"0","4","4451",,,,,"0","2018-11-08 18:26:07","380006"
"A218ZWPYRMUXJN","cs_wg_mon_single_v1_pilot2","3TXMY6UCAEPFFK9SFO6GTJJI0RJCQ2","108","0","JANUARY","2",,"0","10","2005",,,,,"0","2018-11-08 18:26:07","380007"
"A2RXRQF1AHH57S","cs_wg_mon_single_v1_pilot2","3X0H8UUIT1P06YUAOJVM0D5MAVLSWF","47","0","NOVEMBER","4",,"0","12","3609",,,,,"0","2018-11-08 18:26:08","380008"
"ARYHFQRAS0L7X","cs_wg_mon_single_v1_pilot2","32Z9ZLUT1LL3BG7SM3SDF5LYYI5OHE","101","0","DECEMBER","10",,"0","12","2635",,,,,"0","2018-11-08 18:26:09","380009"
"A29YMPA27FG8BM","cs_wg_mon_single_v1_pilot2","37UQDCYH6XW18BADA6SFJKQCG87V7M","74","0","MAY","10",,"0","12","1690",,,,,"0","2018-11-08 18:26:10","380010"
"A218ZWPYRMUXJN","cs_wg_mon_single_v1_pilot2","3TXMY6UCAEPFFK9SFO6GTJJI0RJCQ2","109","0","AUGUST","2",,"0","8","2300",,,,,"0","2018-11-08 18:26:11","380011"
"ARYHFQRAS0L7X","cs_wg_mon_single_v1_pilot2","32Z9ZLUT1LL3BG7SM3SDF5LYYI5OHE","102","0","FEBRUARY","4",,"0","12","2603",,,,,"0","2018-11-08 18:26:14","380012"
"A218ZWPYRMUXJN","cs_wg_mon_single_v1_pilot2","3TXMY6UCAEPFFK9SFO6GTJJI0RJCQ2","110","0","SEPTEMBER","6",,"0","12","1720",,,,,"0","2018-11-08 18:26:14","380013"
"ALZDJ7DBWN919","cs_wg_mon_single_v1_pilot2","3M1CVSFP606RM5CUVAAPNOTU0OYAQY","75","0","MARCH","6",,"0","6","4749",,,,,"0","2018-11-08 18:26:14","380014"
"A29YMPA27FG8BM","cs_wg_mon_single_v1_pilot2","37UQDCYH6XW18BADA6SFJKQCG87V7M","75","0","MARCH","8",,"0","12","1589",,,,,"0","2018-11-08 18:26:15","380015"
"A2RXRQF1AHH57S","cs_wg_mon_single_v1_pilot2","3X0H8UUIT1P06YUAOJVM0D5MAVLSWF","48","0","FEBRUARY","8",,"0","12","6094",,,,,"0","2018-11-08 18:26:16","380016"
"A218ZWPYRMUXJN","cs_wg_mon_single_v1_pilot2","3TXMY6UCAEPFFK9SFO6GTJJI0RJCQ2","111","0","DECEMBER","4",,"0","10","1797",,,,,"0","2018-11-08 18:26:17","380017"
"ARYHFQRAS0L7X","cs_wg_mon_single_v1_pilot2","32Z9ZLUT1LL3BG7SM3SDF5LYYI5OHE","103","0","MARCH","8",,"0","12","2312",,,,,"0","2018-11-08 18:26:18","380018"
"A29YMPA27FG8BM","cs_wg_mon_single_v1_pilot2","37UQDCYH6XW18BADA6SFJKQCG87V7M","76","0","JUNE","10",,"0","12","1443",,,,,"0","2018-11-08 18:26:19","380019"
"A218ZWPYRMUXJN","cs_wg_mon_single_v1_pilot2","3TXMY6UCAEPFFK9SFO6GTJJI0RJCQ2","112","0","FEBRUARY","12",,"0","6","2012",,,,,"0","2018-11-08 18:26:21","380020"
"A29YMPA27FG8BM","cs_wg_mon_single_v1_pilot2","37UQDCYH6XW18BADA6SFJKQCG87V7M","77","0","JULY","10",,"0","12","1590",,,,,"0","2018-11-08 18:26:23","380021"
"ARYHFQRAS0L7X","cs_wg_mon_single_v1_pilot2","32Z9ZLUT1LL3BG7SM3SDF5LYYI5OHE","104","0","OCTOBER","6",,"0","12","2553",,,,,"0","2018-11-08 18:26:23","380022"
"A218ZWPYRMUXJN","cs_wg_mon_single_v1_pilot2","3TXMY6UCAEPFFK9SFO6GTJJI0RJCQ2","113","0","FEBRUARY","8",,"0","6","1989",,,,,"0","2018-11-08 18:26:25","380023"
"A2RXRQF1AHH57S","cs_wg_mon_single_v1_pilot2","3X0H8UUIT1P06YUAOJVM0D5MAVLSWF","49","0","OCTOBER","2",,"0","8","7816",,,,,"0","2018-11-08 18:26:27","380024"
"ARYHFQRAS0L7X","cs_wg_mon_single_v1_pilot2","32Z9ZLUT1LL3BG7SM3SDF5LYYI5OHE","105","0","JANUARY","8",,"0","8","1834",,,,,"0","2018-11-08 18:26:27","380025"
"A29YMPA27FG8BM","cs_wg_mon_single_v1_pilot2","37UQDCYH6XW18BADA6SFJKQCG87V7M","78","0","AUGUST","10",,"0","12","1489",,,,,"0","2018-11-08 18:26:28","380026"
"A218ZWPYRMUXJN","cs_wg_mon_single_v1_pilot2","3TXMY6UCAEPFFK9SFO6GTJJI0RJCQ2","114","0","SEPTEMBER","6",,"0","10","2117",,,,,"0","2018-11-08 18:26:28","380027"
"ALZDJ7DBWN919","cs_wg_mon_single_v1_pilot2","3M1CVSFP606RM5CUVAAPNOTU0OYAQY","76","0","MARCH","8",,"0","12","10495",,,,,"0","2018-11-08 18:26:30","380028"
"ARYHFQRAS0L7X","cs_wg_mon_single_v1_pilot2","32Z9ZLUT1LL3BG7SM3SDF5LYYI5OHE","106","0","DECEMBER","12",,"0","10","1666",,,,,"0","2018-11-08 18:26:30","380029"
"A218ZWPYRMUXJN","cs_wg_mon_single_v1_pilot2","3TXMY6UCAEPFFK9SFO6GTJJI0RJCQ2","115","0","MAY","4",,"0","6","1565",,,,,"0","2018-11-08 18:26:31","380030"
"A29YMPA27FG8BM","cs_wg_mon_single_v1_pilot2","37UQDCYH6XW18BADA6SFJKQCG87V7M","79","0","MAY","2",,"0","12","2948",,,,,"0","2018-11-08 18:26:32","380031"
"A2RXRQF1AHH57S","cs_wg_mon_single_v1_pilot2","3X0H8UUIT1P06YUAOJVM0D5MAVLSWF","50","0","DECEMBER","6",,"0","12","3975",,,,,"0","2018-11-08 18:26:32","380032"
"ARYHFQRAS0L7X","cs_wg_mon_single_v1_pilot2","32Z9ZLUT1LL3BG7SM3SDF5LYYI5OHE","107","0","MAY","12",,"0","10","2067",,,,,"0","2018-11-08 18:26:34","380033"
"A218ZWPYRMUXJN","cs_wg_mon_single_v1_pilot2","3TXMY6UCAEPFFK9SFO6GTJJI0RJCQ2","116","0","SEPTEMBER","6",,"0","10","1612",,,,,"0","2018-11-08 18:26:35","380034"
"A29YMPA27FG8BM","cs_wg_mon_single_v1_pilot2","37UQDCYH6XW18BADA6SFJKQCG87V7M","80","0","MARCH","8",,"0","12","1411",,,,,"0","2018-11-08 18:26:35","380035"
"ARYHFQRAS0L7X","cs_wg_mon_single_v1_pilot2","32Z9ZLUT1LL3BG7SM3SDF5LYYI5OHE","108","0","MAY","6",,"0","10","1915",,,,,"0","2018-11-08 18:26:38","380036"
"A218ZWPYRMUXJN","cs_wg_mon_single_v1_pilot2","3TXMY6UCAEPFFK9SFO6GTJJI0RJCQ2","117","0","AUGUST","2",,"0","8","1572",,,,,"0","2018-11-08 18:26:38","380037"
"A1E7W1FSRXBXE2","cs_wg_mon_single_v1_pilot2","3B1NLC6UGZX7WKOIHXNAJ5ENTNPPGY","0","0","AUGUST","4",,"0","10","28788",,,,,"1","2018-11-08 18:26:38","380038"
"A29YMPA27FG8BM","cs_wg_mon_single_v1_pilot2","37UQDCYH6XW18BADA6SFJKQCG87V7M","81","0","APRIL","6",,"0","12","1567",,,,,"0","2018-11-08 18:26:38","380039"
"A2RXRQF1AHH57S","cs_wg_mon_single_v1_pilot2","3X0H8UUIT1P06YUAOJVM0D5MAVLSWF","51","0","MAY","12",,"0","4","4397",,,,,"0","2018-11-08 18:26:39","380040"
"ARYHFQRAS0L7X","cs_wg_mon_single_v1_pilot2","32Z9ZLUT1LL3BG7SM3SDF5LYYI5OHE","109","0","NOVEMBER","4",,"0","10","1632",,,,,"0","2018-11-08 18:26:41","380041"
"ALZDJ7DBWN919","cs_wg_mon_single_v1_pilot2","3M1CVSFP606RM5CUVAAPNOTU0OYAQY","77","0","MARCH","8",,"0","10","9298",,,,,"0","2018-11-08 18:26:41","380042"
"A218ZWPYRMUXJN","cs_wg_mon_single_v1_pilot2","3TXMY6UCAEPFFK9SFO6GTJJI0RJCQ2","118","0","DECEMBER","8",,"0","12","1651",,,,,"0","2018-11-08 18:26:41","380043"
"A29YMPA27FG8BM","cs_wg_mon_single_v1_pilot2","37UQDCYH6XW18BADA6SFJKQCG87V7M","82","0","MAY","4",,"0","12","1925",,,,,"0","2018-11-08 18:26:42","380044"
"A2RXRQF1AHH57S","cs_wg_mon_single_v1_pilot2","3X0H8UUIT1P06YUAOJVM0D5MAVLSWF","52","0","JULY","10",,"0","6","3388",,,,,"0","2018-11-08 18:26:44","380045"
"A218ZWPYRMUXJN","cs_wg_mon_single_v1_pilot2","3TXMY6UCAEPFFK9SFO6GTJJI0RJCQ2","119","0","SEPTEMBER","4",,"0","10","2172",,,,,"0","2018-11-08 18:26:45","380046"
"ARYHFQRAS0L7X","cs_wg_mon_single_v1_pilot2","32Z9ZLUT1LL3BG7SM3SDF5LYYI5OHE","110","0","NOVEMBER","10",,"0","6","2306",,,,,"0","2018-11-08 18:26:45","380047"
"A29YMPA27FG8BM","cs_wg_mon_single_v1_pilot2","37UQDCYH6XW18BADA6SFJKQCG87V7M","83","0","NOVEMBER","12",,"0","12","1858",,,,,"0","2018-11-08 18:26:47","380048"
"ARYHFQRAS0L7X","cs_wg_mon_single_v1_pilot2","32Z9ZLUT1LL3BG7SM3SDF5LYYI5OHE","111","0","APRIL","10",,"0","10","2695",,,,,"0","2018-11-08 18:26:49","380049"
"A2RXRQF1AHH57S","cs_wg_mon_single_v1_pilot2","3X0H8UUIT1P06YUAOJVM0D5MAVLSWF","53","0","NOVEMBER","6",,"0","2","3550",,,,,"0","2018-11-08 18:26:50","380050"
"A29YMPA27FG8BM","cs_wg_mon_single_v1_pilot2","37UQDCYH6XW18BADA6SFJKQCG87V7M","84","0","AUGUST","6",,"0","12","2154",,,,,"0","2018-11-08 18:26:52","380051"
"ALZDJ7DBWN919","cs_wg_mon_single_v1_pilot2","3M1CVSFP606RM5CUVAAPNOTU0OYAQY","78","0","APRIL","2",,"0","4","8803",,,,,"0","2018-11-08 18:26:52","380052"
"ARYHFQRAS0L7X","cs_wg_mon_single_v1_pilot2","32Z9ZLUT1LL3BG7SM3SDF5LYYI5OHE","112","0","MARCH","6",,"0","8","3108",,,,,"0","2018-11-08 18:26:54","380053"
"A2RXRQF1AHH57S","cs_wg_mon_single_v1_pilot2","3X0H8UUIT1P06YUAOJVM0D5MAVLSWF","54","0","JUNE","10",,"0","6","3265",,,,,"0","2018-11-08 18:26:55","380054"
"A29YMPA27FG8BM","cs_wg_mon_single_v1_pilot2","37UQDCYH6XW18BADA6SFJKQCG87V7M","85","0","JULY","8",,"0","12","1990",,,,,"0","2018-11-08 18:26:56","380055"
"ARYHFQRAS0L7X","cs_wg_mon_single_v1_pilot2","32Z9ZLUT1LL3BG7SM3SDF5LYYI5OHE","113","0","FEBRUARY","4",,"0","8","2026",,,,,"0","2018-11-08 18:26:58","380056"
"ALZDJ7DBWN919","cs_wg_mon_single_v1_pilot2","3M1CVSFP606RM5CUVAAPNOTU0OYAQY","79","0","JUNE","10",,"0","2","4947",,,,,"0","2018-11-08 18:26:59","380057"
"ARYHFQRAS0L7X","cs_wg_mon_single_v1_pilot2","32Z9ZLUT1LL3BG7SM3SDF5LYYI5OHE","114","0","APRIL","8",,"0","2","1171",,,,,"0","2018-11-08 18:27:01","380058"
"A29YMPA27FG8BM","cs_wg_mon_single_v1_pilot2","37UQDCYH6XW18BADA6SFJKQCG87V7M","86","0","JANUARY","12",,"0","12","1527",,,,,"0","2018-11-08 18:27:03","380059"
"A29YMPA27FG8BM","cs_wg_mon_single_v1_pilot2","37UQDCYH6XW18BADA6SFJKQCG87V7M","87","0","MAY","8",,"0","12","1452",,,,,"0","2018-11-08 18:27:03","380060"
"ARYHFQRAS0L7X","cs_wg_mon_single_v1_pilot2","32Z9ZLUT1LL3BG7SM3SDF5LYYI5OHE","115","0","NOVEMBER","4",,"0","2","1796",,,,,"0","2018-11-08 18:27:05","380061"
"A2RXRQF1AHH57S","cs_wg_mon_single_v1_pilot2","3X0H8UUIT1P06YUAOJVM0D5MAVLSWF","55","0","MAY","8",,"0","10","7638",,,,,"0","2018-11-08 18:27:05","380062"
"A29YMPA27FG8BM","cs_wg_mon_single_v1_pilot2","37UQDCYH6XW18BADA6SFJKQCG87V7M","88","0","MARCH","2",,"0","12","1427",,,,,"0","2018-11-08 18:27:07","380063"
"ALZDJ7DBWN919","cs_wg_mon_single_v1_pilot2","3M1CVSFP606RM5CUVAAPNOTU0OYAQY","80","0","MAY","10",,"0","10","6274",,,,,"0","2018-11-08 18:27:07","380064"
"ARYHFQRAS0L7X","cs_wg_mon_single_v1_pilot2","32Z9ZLUT1LL3BG7SM3SDF5LYYI5OHE","116","0","MARCH","4",,"0","12","1637",,,,,"0","2018-11-08 18:27:08","380065"
"A3HLIJUBLECL5T","cs_wg_mon_single_v1_pilot2","34X6J5FLPTZ2NYFYPGN2GNWDQBRQJT","0","0","FEBRUARY","2",,"0","2","5285",,,,,"1","2018-11-08 18:27:10","380066"
"A29YMPA27FG8BM","cs_wg_mon_single_v1_pilot2","37UQDCYH6XW18BADA6SFJKQCG87V7M","89","0","SEPTEMBER","2",,"0","12","1543",,,,,"0","2018-11-08 18:27:11","380067"
"ARYHFQRAS0L7X","cs_wg_mon_single_v1_pilot2","32Z9ZLUT1LL3BG7SM3SDF5LYYI5OHE","117","0","JUNE","8",,"0","12","1668",,,,,"0","2018-11-08 18:27:12","380068"
"A2RXRQF1AHH57S","cs_wg_mon_single_v1_pilot2","3X0H8UUIT1P06YUAOJVM0D5MAVLSWF","56","0","JANUARY","4",,"0","2","4988",,,,,"0","2018-11-08 18:27:13","380069"
"A29YMPA27FG8BM","cs_wg_mon_single_v1_pilot2","37UQDCYH6XW18BADA6SFJKQCG87V7M","90","0","JANUARY","2",,"0","12","1623",,,,,"0","2018-11-08 18:27:15","380070"
"ARYHFQRAS0L7X","cs_wg_mon_single_v1_pilot2","32Z9ZLUT1LL3BG7SM3SDF5LYYI5OHE","118","0","FEBRUARY","8",,"0","12","2226",,,,,"0","2018-11-08 18:27:15","380071"
"A29YMPA27FG8BM","cs_wg_mon_single_v1_pilot2","37UQDCYH6XW18BADA6SFJKQCG87V7M","91","0","JULY","6",,"0","12","1722",,,,,"0","2018-11-08 18:27:18","380072"
"ARYHFQRAS0L7X","cs_wg_mon_single_v1_pilot2","32Z9ZLUT1LL3BG7SM3SDF5LYYI5OHE","119","0","MARCH","8",,"0","12","1110",,,,,"0","2018-11-08 18:27:19","380073"
"ALZDJ7DBWN919","cs_wg_mon_single_v1_pilot2","3M1CVSFP606RM5CUVAAPNOTU0OYAQY","81","0","MAY","12",,"0","2","9866",,,,,"0","2018-11-08 18:27:20","380074"
"A29YMPA27FG8BM","cs_wg_mon_single_v1_pilot2","37UQDCYH6XW18BADA6SFJKQCG87V7M","92","0","MAY","2",,"0","12","1365",,,,,"0","2018-11-08 18:27:22","380075"
"A2RXRQF1AHH57S","cs_wg_mon_single_v1_pilot2","3X0H8UUIT1P06YUAOJVM0D5MAVLSWF","57","0","DECEMBER","6",,"0","2","11966",,,,,"0","2018-11-08 18:27:27","380076"
"A29YMPA27FG8BM","cs_wg_mon_single_v1_pilot2","37UQDCYH6XW18BADA6SFJKQCG87V7M","93","0","FEBRUARY","12",,"0","12","1632",,,,,"0","2018-11-08 18:27:27","380077"
"ALZDJ7DBWN919","cs_wg_mon_single_v1_pilot2","3M1CVSFP606RM5CUVAAPNOTU0OYAQY","82","0","OCTOBER","2",,"0","10","4897",,,,,"0","2018-11-08 18:27:28","380078"
"A2RXRQF1AHH57S","cs_wg_mon_single_v1_pilot2","3X0H8UUIT1P06YUAOJVM0D5MAVLSWF","58","0","MARCH","12",,"0","8","3362",,,,,"0","2018-11-08 18:27:32","380079"
"A29YMPA27FG8BM","cs_wg_mon_single_v1_pilot2","37UQDCYH6XW18BADA6SFJKQCG87V7M","94","0","SEPTEMBER","6",,"0","12","3890",,,,,"0","2018-11-08 18:27:33","380080"
"ALZDJ7DBWN919","cs_wg_mon_single_v1_pilot2","3M1CVSFP606RM5CUVAAPNOTU0OYAQY","83","0","MAY","4",,"0","2","3612",,,,,"0","2018-11-08 18:27:33","380081"
"A3HLIJUBLECL5T","cs_wg_mon_single_v1_pilot2","34X6J5FLPTZ2NYFYPGN2GNWDQBRQJT","1","0","AUGUST","12",,"0","12","20083",,,,,"1","2018-11-08 18:27:34","380082"
"A2RXRQF1AHH57S","cs_wg_mon_single_v1_pilot2","3X0H8UUIT1P06YUAOJVM0D5MAVLSWF","59","0","SEPTEMBER","12",,"0","10","4439",,,,,"0","2018-11-08 18:27:39","380083"
"A3HLIJUBLECL5T","cs_wg_mon_single_v1_pilot2","34X6J5FLPTZ2NYFYPGN2GNWDQBRQJT","2","0","MARCH","2",,"0","2","3532",,,,,"1","2018-11-08 18:27:39","380084"
"A29YMPA27FG8BM","cs_wg_mon_single_v1_pilot2","37UQDCYH6XW18BADA6SFJKQCG87V7M","95","0","FEBRUARY","12",,"0","12","3990",,,,,"0","2018-11-08 18:27:40","380085"
"ALZDJ7DBWN919","cs_wg_mon_single_v1_pilot2","3M1CVSFP606RM5CUVAAPNOTU0OYAQY","84","0","APRIL","6",,"0","8","4162",,,,,"0","2018-11-08 18:27:40","380086"
"A29YMPA27FG8BM","cs_wg_mon_single_v1_pilot2","37UQDCYH6XW18BADA6SFJKQCG87V7M","96","0","OCTOBER","6",,"0","12","2179",,,,,"0","2018-11-08 18:27:44","380087"
"A2RXRQF1AHH57S","cs_wg_mon_single_v1_pilot2","3X0H8UUIT1P06YUAOJVM0D5MAVLSWF","60","0","MAY","8",,"0","8","5371",,,,,"0","2018-11-08 18:27:47","380088"
"A29YMPA27FG8BM","cs_wg_mon_single_v1_pilot2","37UQDCYH6XW18BADA6SFJKQCG87V7M","97","0","APRIL","8",,"0","12","1435",,,,,"0","2018-11-08 18:27:47","380089"
"ALZDJ7DBWN919","cs_wg_mon_single_v1_pilot2","3M1CVSFP606RM5CUVAAPNOTU0OYAQY","85","0","DECEMBER","10",,"0","6","5763",,,,,"0","2018-11-08 18:27:47","380090"
"A1WOAY9J3T4EUG","cs_wg_mon_single_v1_pilot2","3KJYX6QCM9CUS6BFBFHCMAVL739JVJ","13","0","AUGUST","4",,"0","10","149532",,,,,"0","2018-11-08 18:27:48","380091"
"A29YMPA27FG8BM","cs_wg_mon_single_v1_pilot2","37UQDCYH6XW18BADA6SFJKQCG87V7M","98","0","FEBRUARY","8",,"0","12","1653",,,,,"0","2018-11-08 18:27:51","380092"
"A29YMPA27FG8BM","cs_wg_mon_single_v1_pilot2","37UQDCYH6XW18BADA6SFJKQCG87V7M","99","0","MARCH","6",,"0","12","1684",,,,,"0","2018-11-08 18:27:55","380093"
"A2RXRQF1AHH57S","cs_wg_mon_single_v1_pilot2","3X0H8UUIT1P06YUAOJVM0D5MAVLSWF","61","0","JANUARY","4",,"0","10","6600",,,,,"0","2018-11-08 18:27:55","380094"
"A3HLIJUBLECL5T","cs_wg_mon_single_v1_pilot2","34X6J5FLPTZ2NYFYPGN2GNWDQBRQJT","3","0","AUGUST","8",,"0","8","5523",,,,,"1","2018-11-08 18:27:56","380095"
"ALZDJ7DBWN919","cs_wg_mon_single_v1_pilot2","3M1CVSFP606RM5CUVAAPNOTU0OYAQY","86","0","SEPTEMBER","10",,"0","4","7574",,,,,"0","2018-11-08 18:27:57","380096"
"A29YMPA27FG8BM","cs_wg_mon_single_v1_pilot2","37UQDCYH6XW18BADA6SFJKQCG87V7M","100","0","SEPTEMBER","6",,"0","12","1514",,,,,"0","2018-11-08 18:27:58","380097"
"A2RXRQF1AHH57S","cs_wg_mon_single_v1_pilot2","3X0H8UUIT1P06YUAOJVM0D5MAVLSWF","62","0","JULY","4",,"0","6","2573",,,,,"0","2018-11-08 18:28:00","380098"
"ALZDJ7DBWN919","cs_wg_mon_single_v1_pilot2","3M1CVSFP606RM5CUVAAPNOTU0OYAQY","87","0","AUGUST","10",,"0","8","2776",,,,,"0","2018-11-08 18:28:02","380099"
"A3HLIJUBLECL5T","cs_wg_mon_single_v1_pilot2","34X6J5FLPTZ2NYFYPGN2GNWDQBRQJT","4","0","NOVEMBER","6",,"0","6","4133",,,,,"1","2018-11-08 18:28:02","380100"
"A1WOAY9J3T4EUG","cs_wg_mon_single_v1_pilot2","3KJYX6QCM9CUS6BFBFHCMAVL739JVJ","14","0","SEPTEMBER","10",,"0","10","10202",,,,,"0","2018-11-08 18:28:04","380101"
