"subject","version","assignmentId","trial","trial_type","word","value","alt","value2","choice","rt","resp","resp2","resp3","resp4","used_hint","stamp","id"
"A2LI8283SXAJS9","cs_wg_mon_single_v1_real1","3NPI0JQDAO6B1PAO1XMHIOTCJOBPTZ","0","0","JULY","8",,"0","8","5263",,,,,"1","2018-11-09 16:51:15","383473"
"A2LI8283SXAJS9","cs_wg_mon_single_v1_real1","3NPI0JQDAO6B1PAO1XMHIOTCJOBPTZ","1","0","NOVEMBER","4",,"0","11","2777",,,,,"0","2018-11-09 16:51:21","383474"
"A2LI8283SXAJS9","cs_wg_mon_single_v1_real1","3NPI0JQDAO6B1PAO1XMHIOTCJOBPTZ","2","0","OCTOBER","12",,"0","12","4451",,,,,"1","2018-11-09 16:51:28","383475"
"A1QRCJFX76DELI","cs_wg_mon_single_v1_real1","3AMYWKA6YBNNERNBQK19IEW8PB4O66","0","0","OCTOBER","10",,"0","10","13219",,,,,"1","2018-11-09 16:51:38","383476"
"A2LI8283SXAJS9","cs_wg_mon_single_v1_real1","3NPI0JQDAO6B1PAO1XMHIOTCJOBPTZ","3","0","AUGUST","4",,"0","4","4291",,,,,"1","2018-11-09 16:51:34","383477"
"A2LI8283SXAJS9","cs_wg_mon_single_v1_real1","3NPI0JQDAO6B1PAO1XMHIOTCJOBPTZ","4","0","MAY","6",,"0","6","5847",,,,,"1","2018-11-09 16:51:42","383478"
"A1QRCJFX76DELI","cs_wg_mon_single_v1_real1","3AMYWKA6YBNNERNBQK19IEW8PB4O66","1","0","DECEMBER","6",,"0","6","7122",,,,,"1","2018-11-09 16:51:48","383479"
"A2LI8283SXAJS9","cs_wg_mon_single_v1_real1","3NPI0JQDAO6B1PAO1XMHIOTCJOBPTZ","5","0","FEBRUARY","10",,"0","10","3976",,,,,"0","2018-11-09 16:51:51","383480"
"A1QRCJFX76DELI","cs_wg_mon_single_v1_real1","3AMYWKA6YBNNERNBQK19IEW8PB4O66","2","0","JUNE","8",,"0","8","5151",,,,,"1","2018-11-09 16:51:57","383481"
"A2LI8283SXAJS9","cs_wg_mon_single_v1_real1","3NPI0JQDAO6B1PAO1XMHIOTCJOBPTZ","6","0","OCTOBER","12",,"0","8","3132",,,,,"0","2018-11-09 16:51:58","383482"
"A2LI8283SXAJS9","cs_wg_mon_single_v1_real1","3NPI0JQDAO6B1PAO1XMHIOTCJOBPTZ","7","0","JULY","8",,"0","8","2436",,,,,"0","2018-11-09 16:52:02","383483"
"A2TGT3EVYQOJ8P","cs_wg_mon_single_v1_real1","3NC5L260MONJXKGMRD4DCK9LIA7FO0","0","0","AUGUST","12",,"0","12","6121",,,,,"1","2018-11-09 16:52:04","383484"
"A1335PAW6E5SE2","cs_wg_mon_single_v1_real1","32VNZTT0A75CWHBDZOPYFBHZ47IR4X","0","0","DECEMBER","4",,"0","4","6735",,,,,"1","2018-11-09 16:52:05","383485"
"A1QRCJFX76DELI","cs_wg_mon_single_v1_real1","3AMYWKA6YBNNERNBQK19IEW8PB4O66","3","0","MARCH","12",,"0","7","5726",,,,,"0","2018-11-09 16:52:06","383486"
"A2LI8283SXAJS9","cs_wg_mon_single_v1_real1","3NPI0JQDAO6B1PAO1XMHIOTCJOBPTZ","8","0","APRIL","2",,"0","2","5402",,,,,"1","2018-11-09 16:52:10","383487"
"A2TGT3EVYQOJ8P","cs_wg_mon_single_v1_real1","3NC5L260MONJXKGMRD4DCK9LIA7FO0","1","0","MARCH","4",,"0","4","4364",,,,,"1","2018-11-09 16:52:11","383488"
"A1335PAW6E5SE2","cs_wg_mon_single_v1_real1","32VNZTT0A75CWHBDZOPYFBHZ47IR4X","1","0","JANUARY","8",,"0","8","5337",,,,,"1","2018-11-09 16:52:13","383489"
"A2LI8283SXAJS9","cs_wg_mon_single_v1_real1","3NPI0JQDAO6B1PAO1XMHIOTCJOBPTZ","9","0","DECEMBER","6",,"0","6","4000",,,,,"1","2018-11-09 16:52:17","383490"
"A1QRCJFX76DELI","cs_wg_mon_single_v1_real1","3AMYWKA6YBNNERNBQK19IEW8PB4O66","4","0","MAY","4",,"0","4","10539",,,,,"1","2018-11-09 16:52:19","383491"
"A2LI8283SXAJS9","cs_wg_mon_single_v1_real1","3NPI0JQDAO6B1PAO1XMHIOTCJOBPTZ","10","0","DECEMBER","6",,"0","6","2256",,,,,"0","2018-11-09 16:52:22","383492"
"A1QRCJFX76DELI","cs_wg_mon_single_v1_real1","3AMYWKA6YBNNERNBQK19IEW8PB4O66","5","0","JULY","10",,"0","10","3739",,,,,"1","2018-11-09 16:52:25","383493"
"A1335PAW6E5SE2","cs_wg_mon_single_v1_real1","32VNZTT0A75CWHBDZOPYFBHZ47IR4X","2","0","JANUARY","8",,"0","8","5600",,,,,"1","2018-11-09 16:52:27","383494"
"A2LI8283SXAJS9","cs_wg_mon_single_v1_real1","3NPI0JQDAO6B1PAO1XMHIOTCJOBPTZ","11","0","MARCH","10",,"0","10","5180",,,,,"1","2018-11-09 16:52:29","383495"
"A2TGT3EVYQOJ8P","cs_wg_mon_single_v1_real1","3NC5L260MONJXKGMRD4DCK9LIA7FO0","2","0","JUNE","8",,"0","8","13809",,,,,"1","2018-11-09 16:52:31","383496"
"A1QRCJFX76DELI","cs_wg_mon_single_v1_real1","3AMYWKA6YBNNERNBQK19IEW8PB4O66","6","0","SEPTEMBER","8",,"0","10","5174",,,,,"0","2018-11-09 16:52:34","383497"
"A2LI8283SXAJS9","cs_wg_mon_single_v1_real1","3NPI0JQDAO6B1PAO1XMHIOTCJOBPTZ","12","0","JANUARY","12",,"0","12","3658",,,,,"1","2018-11-09 16:52:35","383498"
"A1335PAW6E5SE2","cs_wg_mon_single_v1_real1","32VNZTT0A75CWHBDZOPYFBHZ47IR4X","3","0","SEPTEMBER","6",,"0","6","4085",,,,,"1","2018-11-09 16:52:36","383499"
"A2LI8283SXAJS9","cs_wg_mon_single_v1_real1","3NPI0JQDAO6B1PAO1XMHIOTCJOBPTZ","13","0","JANUARY","12",,"0","12","2429",,,,,"0","2018-11-09 16:52:39","383500"
"A1QRCJFX76DELI","cs_wg_mon_single_v1_real1","3AMYWKA6YBNNERNBQK19IEW8PB4O66","7","0","APRIL","4",,"0","4","5374",,,,,"1","2018-11-09 16:52:42","383501"
"A2LI8283SXAJS9","cs_wg_mon_single_v1_real1","3NPI0JQDAO6B1PAO1XMHIOTCJOBPTZ","14","0","SEPTEMBER","2",,"0","2","4023",,,,,"1","2018-11-09 16:52:46","383502"
"A1335PAW6E5SE2","cs_wg_mon_single_v1_real1","32VNZTT0A75CWHBDZOPYFBHZ47IR4X","4","0","NOVEMBER","4",,"0","4","5378",,,,,"1","2018-11-09 16:52:46","383503"
"AYW016I0MGCB7","cs_wg_mon_single_v1_real1","3DZQRBDBSLG3F0SMEZKKVGUPC963SD","0","0","JANUARY","6",,"0","6","6553",,,,,"1","2018-11-09 16:52:48","383504"
"A1QRCJFX76DELI","cs_wg_mon_single_v1_real1","3AMYWKA6YBNNERNBQK19IEW8PB4O66","8","0","AUGUST","12",,"0","12","4111",,,,,"1","2018-11-09 16:52:48","383505"
"A2TGT3EVYQOJ8P","cs_wg_mon_single_v1_real1","3NC5L260MONJXKGMRD4DCK9LIA7FO0","3","0","SEPTEMBER","6",,"0","6","15029",,,,,"1","2018-11-09 16:52:49","383506"
"AV11S93KI37X3","cs_wg_mon_single_v1_real1","3IFS6Q0HJIKI53A5Z2R7ZMWEVR2ISR","0","0","DECEMBER","12",,"0","12","24176",,,,,"1","2018-11-09 16:52:52","383507"
"A2LI8283SXAJS9","cs_wg_mon_single_v1_real1","3NPI0JQDAO6B1PAO1XMHIOTCJOBPTZ","15","0","DECEMBER","6",,"0","10","4668",,,,,"0","2018-11-09 16:52:52","383508"
"A1QRCJFX76DELI","cs_wg_mon_single_v1_real1","3AMYWKA6YBNNERNBQK19IEW8PB4O66","9","0","JANUARY","6",,"0","6","3425",,,,,"1","2018-11-09 16:52:54","383509"
"A1335PAW6E5SE2","cs_wg_mon_single_v1_real1","32VNZTT0A75CWHBDZOPYFBHZ47IR4X","5","0","APRIL","10",,"0","10","4884",,,,,"1","2018-11-09 16:52:55","383510"
"A2TGT3EVYQOJ8P","cs_wg_mon_single_v1_real1","3NC5L260MONJXKGMRD4DCK9LIA7FO0","4","0","MARCH","4",,"0","4","6274",,,,,"1","2018-11-09 16:52:57","383511"
"A2LI8283SXAJS9","cs_wg_mon_single_v1_real1","3NPI0JQDAO6B1PAO1XMHIOTCJOBPTZ","16","0","FEBRUARY","10",,"0","10","3040",,,,,"0","2018-11-09 16:52:57","383512"
"AYW016I0MGCB7","cs_wg_mon_single_v1_real1","3DZQRBDBSLG3F0SMEZKKVGUPC963SD","1","0","JUNE","2",,"0","2","5200",,,,,"1","2018-11-09 16:52:58","383513"
"A1QRCJFX76DELI","cs_wg_mon_single_v1_real1","3AMYWKA6YBNNERNBQK19IEW8PB4O66","10","0","OCTOBER","10",,"0","10","3064",,,,,"0","2018-11-09 16:52:59","383514"
"A1335PAW6E5SE2","cs_wg_mon_single_v1_real1","32VNZTT0A75CWHBDZOPYFBHZ47IR4X","6","0","MARCH","2",,"0","2","3615",,,,,"1","2018-11-09 16:53:03","383515"
"AV11S93KI37X3","cs_wg_mon_single_v1_real1","3IFS6Q0HJIKI53A5Z2R7ZMWEVR2ISR","1","0","MAY","6",,"0","6","8987",,,,,"1","2018-11-09 16:53:04","383516"
"A1QRCJFX76DELI","cs_wg_mon_single_v1_real1","3AMYWKA6YBNNERNBQK19IEW8PB4O66","11","0","AUGUST","12",,"0","12","4339",,,,,"0","2018-11-09 16:53:05","383517"
"AYW016I0MGCB7","cs_wg_mon_single_v1_real1","3DZQRBDBSLG3F0SMEZKKVGUPC963SD","2","0","OCTOBER","10",,"0","10","5967",,,,,"1","2018-11-09 16:53:06","383518"
"A2LI8283SXAJS9","cs_wg_mon_single_v1_real1","3NPI0JQDAO6B1PAO1XMHIOTCJOBPTZ","17","0","NOVEMBER","4",,"0","4","8266",,,,,"1","2018-11-09 16:53:08","383519"
"A1335PAW6E5SE2","cs_wg_mon_single_v1_real1","32VNZTT0A75CWHBDZOPYFBHZ47IR4X","7","0","JANUARY","8",,"0","8","3720",,,,,"0","2018-11-09 16:53:09","383520"
"A1QRCJFX76DELI","cs_wg_mon_single_v1_real1","3AMYWKA6YBNNERNBQK19IEW8PB4O66","12","0","AUGUST","12",,"0","12","2022",,,,,"0","2018-11-09 16:53:09","383521"
"AHJ6FRXMQUDEH","cs_wg_mon_single_v1_real1","3RKNTXVS3MZKX0PWXD3CKLSP43VA49","0","0","DECEMBER","6",,"0","6","4542",,,,,"1","2018-11-09 16:53:10","383522"
"A2TGT3EVYQOJ8P","cs_wg_mon_single_v1_real1","3NC5L260MONJXKGMRD4DCK9LIA7FO0","5","0","APRIL","2",,"0","2","5073",,,,,"1","2018-11-09 16:53:11","383523"
"A2LI8283SXAJS9","cs_wg_mon_single_v1_real1","3NPI0JQDAO6B1PAO1XMHIOTCJOBPTZ","18","0","MAY","6",,"0","6","4305",,,,,"1","2018-11-09 16:53:14","383524"
"A1335PAW6E5SE2","cs_wg_mon_single_v1_real1","32VNZTT0A75CWHBDZOPYFBHZ47IR4X","8","0","JUNE","10",,"0","10","6076",,,,,"1","2018-11-09 16:53:17","383525"
"AV11S93KI37X3","cs_wg_mon_single_v1_real1","3IFS6Q0HJIKI53A5Z2R7ZMWEVR2ISR","2","0","AUGUST","4",,"0","4","11296",,,,,"1","2018-11-09 16:53:17","383526"
"A1QRCJFX76DELI","cs_wg_mon_single_v1_real1","3AMYWKA6YBNNERNBQK19IEW8PB4O66","13","0","NOVEMBER","2",,"0","2","6026",,,,,"1","2018-11-09 16:53:17","383527"
"AHJ6FRXMQUDEH","cs_wg_mon_single_v1_real1","3RKNTXVS3MZKX0PWXD3CKLSP43VA49","1","0","JANUARY","4",,"0","4","4159",,,,,"1","2018-11-09 16:53:17","383528"
"A2LI8283SXAJS9","cs_wg_mon_single_v1_real1","3NPI0JQDAO6B1PAO1XMHIOTCJOBPTZ","19","0","JULY","8",,"0","8","2176",,,,,"0","2018-11-09 16:53:19","383529"
"AYW016I0MGCB7","cs_wg_mon_single_v1_real1","3DZQRBDBSLG3F0SMEZKKVGUPC963SD","3","0","SEPTEMBER","8",,"0","8","12617",,,,,"1","2018-11-09 16:53:21","383530"
"A2TGT3EVYQOJ8P","cs_wg_mon_single_v1_real1","3NC5L260MONJXKGMRD4DCK9LIA7FO0","6","0","AUGUST","12",,"0","12","8656",,,,,"1","2018-11-09 16:53:22","383531"
"A2LI8283SXAJS9","cs_wg_mon_single_v1_real1","3NPI0JQDAO6B1PAO1XMHIOTCJOBPTZ","20","0","JANUARY","12",,"0","12","2162",,,,,"0","2018-11-09 16:53:23","383532"
"A1QRCJFX76DELI","cs_wg_mon_single_v1_real1","3AMYWKA6YBNNERNBQK19IEW8PB4O66","14","0","MARCH","12",,"0","12","4478",,,,,"1","2018-11-09 16:53:24","383533"
"AHJ6FRXMQUDEH","cs_wg_mon_single_v1_real1","3RKNTXVS3MZKX0PWXD3CKLSP43VA49","2","0","APRIL","8",,"0","8","4448",,,,,"1","2018-11-09 16:53:24","383534"
"A1335PAW6E5SE2","cs_wg_mon_single_v1_real1","32VNZTT0A75CWHBDZOPYFBHZ47IR4X","9","0","FEBRUARY","2",,"0","2","4389",,,,,"1","2018-11-09 16:53:25","383535"
"AV11S93KI37X3","cs_wg_mon_single_v1_real1","3IFS6Q0HJIKI53A5Z2R7ZMWEVR2ISR","3","0","FEBRUARY","10",,"0","10","7215",,,,,"1","2018-11-09 16:53:26","383536"
"AYW016I0MGCB7","cs_wg_mon_single_v1_real1","3DZQRBDBSLG3F0SMEZKKVGUPC963SD","4","0","DECEMBER","12",,"0","12","4138",,,,,"1","2018-11-09 16:53:28","383537"
"A2LI8283SXAJS9","cs_wg_mon_single_v1_real1","3NPI0JQDAO6B1PAO1XMHIOTCJOBPTZ","21","0","DECEMBER","6",,"0","10","2911",,,,,"0","2018-11-09 16:53:28","383538"
"A2TGT3EVYQOJ8P","cs_wg_mon_single_v1_real1","3NC5L260MONJXKGMRD4DCK9LIA7FO0","7","0","AUGUST","12",,"0","12","3607",,,,,"0","2018-11-09 16:53:28","383539"
"A1QRCJFX76DELI","cs_wg_mon_single_v1_real1","3AMYWKA6YBNNERNBQK19IEW8PB4O66","15","0","SEPTEMBER","8",,"0","8","4723",,,,,"1","2018-11-09 16:53:30","383540"
"A1335PAW6E5SE2","cs_wg_mon_single_v1_real1","32VNZTT0A75CWHBDZOPYFBHZ47IR4X","10","0","NOVEMBER","4",,"0","4","3317",,,,,"0","2018-11-09 16:53:31","383541"
"A2L3TU04PQ346A","cs_wg_mon_single_v1_real1","39N5ACM9HEOSHA1A3RH0ROS0PH99PK","0","0","NOVEMBER","4",,"0","4","13611",,,,,"1","2018-11-09 16:53:32","383542"
"AHJ6FRXMQUDEH","cs_wg_mon_single_v1_real1","3RKNTXVS3MZKX0PWXD3CKLSP43VA49","3","0","FEBRUARY","2",,"0","2","3167",,,,,"1","2018-11-09 16:53:32","383543"
"A2LI8283SXAJS9","cs_wg_mon_single_v1_real1","3NPI0JQDAO6B1PAO1XMHIOTCJOBPTZ","22","0","AUGUST","4",,"0","4","2588",,,,,"0","2018-11-09 16:53:32","383544"
"A1EIKI2CBBKLEV","cs_wg_mon_single_v1_real1","3JC6VJ2SABK2TJTWBIMMPDY34ZQA5E","0","0","JANUARY","12",,"0","12","13414",,,,,"1","2018-11-09 16:53:33","383545"
"AV11S93KI37X3","cs_wg_mon_single_v1_real1","3IFS6Q0HJIKI53A5Z2R7ZMWEVR2ISR","4","0","SEPTEMBER","10",,"0","10","6530",,,,,"1","2018-11-09 16:53:34","383546"
"A2TGT3EVYQOJ8P","cs_wg_mon_single_v1_real1","3NC5L260MONJXKGMRD4DCK9LIA7FO0","8","0","SEPTEMBER","6",,"0","6","4751",,,,,"1","2018-11-09 16:53:36","383547"
"A1335PAW6E5SE2","cs_wg_mon_single_v1_real1","32VNZTT0A75CWHBDZOPYFBHZ47IR4X","11","0","JUNE","10",,"0","10","3184",,,,,"0","2018-11-09 16:53:36","383548"
"A1QRCJFX76DELI","cs_wg_mon_single_v1_real1","3AMYWKA6YBNNERNBQK19IEW8PB4O66","16","0","MAY","4",,"0","4","4655",,,,,"1","2018-11-09 16:53:37","383549"
"A2LI8283SXAJS9","cs_wg_mon_single_v1_real1","3NPI0JQDAO6B1PAO1XMHIOTCJOBPTZ","23","0","JANUARY","12",,"0","12","1902",,,,,"0","2018-11-09 16:53:37","383550"
"A14QBG0BI8BFJ8","cs_wg_mon_single_v1_real1","31LM9EDVOLTHK1269OVLCT18L7JJNS","0","0","MARCH","8",,"0","8","7051",,,,,"1","2018-11-09 16:53:37","383551"
"AYW016I0MGCB7","cs_wg_mon_single_v1_real1","3DZQRBDBSLG3F0SMEZKKVGUPC963SD","5","0","JULY","4",,"0","4","7459",,,,,"1","2018-11-09 16:53:38","383552"
"AHJ6FRXMQUDEH","cs_wg_mon_single_v1_real1","3RKNTXVS3MZKX0PWXD3CKLSP43VA49","4","0","JUNE","4",,"0","4","4103",,,,,"1","2018-11-09 16:53:38","383553"
"A2L3TU04PQ346A","cs_wg_mon_single_v1_real1","39N5ACM9HEOSHA1A3RH0ROS0PH99PK","1","0","NOVEMBER","4",,"0","4","3080",,,,,"0","2018-11-09 16:53:38","383554"
"A3AL6CS7BIZWNB","cs_wg_mon_single_v1_real1","3NJM2BJS4W7UF88DFBRRTET8V2CCP4","0","0","AUGUST","8",,"0","8","13683",,,,,"1","2018-11-09 16:53:40","383555"
"AHJ6FRXMQUDEH","cs_wg_mon_single_v1_real1","3RKNTXVS3MZKX0PWXD3CKLSP43VA49","5","0","OCTOBER","8",,"0","8","3525",,,,,"1","2018-11-09 16:53:44","383556"
"A2LI8283SXAJS9","cs_wg_mon_single_v1_real1","3NPI0JQDAO6B1PAO1XMHIOTCJOBPTZ","24","0","OCTOBER","12",,"0","12","4947",,,,,"1","2018-11-09 16:53:45","383557"
"A2TGT3EVYQOJ8P","cs_wg_mon_single_v1_real1","3NC5L260MONJXKGMRD4DCK9LIA7FO0","9","0","JANUARY","10",,"0","10","4536",,,,,"1","2018-11-09 16:53:45","383558"
"AUZQIVJPQ4DCJ","cs_wg_mon_single_v1_real1","3LKC68YZ3A4L862HH2EDG8VLDDYOW8","0","0","OCTOBER","12",,"0","7","6114",,,,,"0","2018-11-09 16:53:45","383559"
"AYW016I0MGCB7","cs_wg_mon_single_v1_real1","3DZQRBDBSLG3F0SMEZKKVGUPC963SD","6","0","APRIL","8",,"0","8","5243",,,,,"1","2018-11-09 16:53:45","383560"
"A1335PAW6E5SE2","cs_wg_mon_single_v1_real1","32VNZTT0A75CWHBDZOPYFBHZ47IR4X","12","0","AUGUST","8",,"0","8","4507",,,,,"1","2018-11-09 16:53:45","383561"
"A1QRCJFX76DELI","cs_wg_mon_single_v1_real1","3AMYWKA6YBNNERNBQK19IEW8PB4O66","17","0","JULY","10",,"0","10","7153",,,,,"1","2018-11-09 16:53:46","383562"
"A2L3TU04PQ346A","cs_wg_mon_single_v1_real1","39N5ACM9HEOSHA1A3RH0ROS0PH99PK","2","0","FEBRUARY","10",,"0","10","6249",,,,,"1","2018-11-09 16:53:47","383563"
"AV11S93KI37X3","cs_wg_mon_single_v1_real1","3IFS6Q0HJIKI53A5Z2R7ZMWEVR2ISR","5","0","NOVEMBER","2",,"0","2","10158",,,,,"1","2018-11-09 16:53:47","383564"
"AHJ6FRXMQUDEH","cs_wg_mon_single_v1_real1","3RKNTXVS3MZKX0PWXD3CKLSP43VA49","6","0","MAY","10",,"0","10","3824",,,,,"1","2018-11-09 16:53:50","383565"
"A14QBG0BI8BFJ8","cs_wg_mon_single_v1_real1","31LM9EDVOLTHK1269OVLCT18L7JJNS","1","0","JUNE","10",,"0","10","6040",,,,,"1","2018-11-09 16:53:50","383566"
"A2LI8283SXAJS9","cs_wg_mon_single_v1_real1","3NPI0JQDAO6B1PAO1XMHIOTCJOBPTZ","25","0","AUGUST","4",,"0","4","3423",,,,,"0","2018-11-09 16:53:50","383567"
"A1QRCJFX76DELI","cs_wg_mon_single_v1_real1","3AMYWKA6YBNNERNBQK19IEW8PB4O66","18","0","AUGUST","12",,"0","12","3000",,,,,"0","2018-11-09 16:53:50","383568"
"AYW016I0MGCB7","cs_wg_mon_single_v1_real1","3DZQRBDBSLG3F0SMEZKKVGUPC963SD","7","0","APRIL","8",,"0","8","3873",,,,,"1","2018-11-09 16:53:51","383569"
"A1EIKI2CBBKLEV","cs_wg_mon_single_v1_real1","3JC6VJ2SABK2TJTWBIMMPDY34ZQA5E","1","0","DECEMBER","10",,"0","10","14210",,,,,"1","2018-11-09 16:53:51","383570"
"A1335PAW6E5SE2","cs_wg_mon_single_v1_real1","32VNZTT0A75CWHBDZOPYFBHZ47IR4X","13","0","MAY","12",,"0","12","3885",,,,,"1","2018-11-09 16:53:52","383571"
"A2TGT3EVYQOJ8P","cs_wg_mon_single_v1_real1","3NC5L260MONJXKGMRD4DCK9LIA7FO0","10","0","MARCH","4",,"0","4","4920",,,,,"1","2018-11-09 16:53:54","383572"
"A3AL6CS7BIZWNB","cs_wg_mon_single_v1_real1","3NJM2BJS4W7UF88DFBRRTET8V2CCP4","1","0","JUNE","10",,"0","10","11493",,,,,"1","2018-11-09 16:53:54","383573"
"A2LI8283SXAJS9","cs_wg_mon_single_v1_real1","3NPI0JQDAO6B1PAO1XMHIOTCJOBPTZ","26","0","AUGUST","4",,"0","4","1942",,,,,"0","2018-11-09 16:53:54","383574"
"AHJ6FRXMQUDEH","cs_wg_mon_single_v1_real1","3RKNTXVS3MZKX0PWXD3CKLSP43VA49","7","0","DECEMBER","6",,"0","6","3555",,,,,"1","2018-11-09 16:53:56","383575"
"A1QRCJFX76DELI","cs_wg_mon_single_v1_real1","3AMYWKA6YBNNERNBQK19IEW8PB4O66","19","0","JUNE","8",,"0","8","3302",,,,,"1","2018-11-09 16:53:56","383576"
"A2L3TU04PQ346A","cs_wg_mon_single_v1_real1","39N5ACM9HEOSHA1A3RH0ROS0PH99PK","3","0","OCTOBER","8",,"0","8","7104",,,,,"1","2018-11-09 16:53:56","383577"
"AXPGZD6Q9556W","cs_wg_mon_single_v1_real1","3HFNH7HEMHFSWWPXHA2ZJA4XYQQGQ9","0","0","OCTOBER","12",,"0","12","15125",,,,,"1","2018-11-09 16:53:57","383578"
"AV11S93KI37X3","cs_wg_mon_single_v1_real1","3IFS6Q0HJIKI53A5Z2R7ZMWEVR2ISR","6","0","JUNE","6",,"0","6","8479",,,,,"1","2018-11-09 16:53:58","383579"
"A2LI8283SXAJS9","cs_wg_mon_single_v1_real1","3NPI0JQDAO6B1PAO1XMHIOTCJOBPTZ","27","0","FEBRUARY","10",,"0","10","2350",,,,,"0","2018-11-09 16:53:59","383580"
"AHJ6FRXMQUDEH","cs_wg_mon_single_v1_real1","3RKNTXVS3MZKX0PWXD3CKLSP43VA49","8","0","JULY","12",,"0","12","3428",,,,,"1","2018-11-09 16:54:01","383581"
"AYW016I0MGCB7","cs_wg_mon_single_v1_real1","3DZQRBDBSLG3F0SMEZKKVGUPC963SD","8","0","MAY","12",,"0","12","6674",,,,,"1","2018-11-09 16:54:01","383582"
"A1QRCJFX76DELI","cs_wg_mon_single_v1_real1","3AMYWKA6YBNNERNBQK19IEW8PB4O66","20","0","JULY","10",,"0","12","4113",,,,,"0","2018-11-09 16:54:02","383583"
"A3AL6CS7BIZWNB","cs_wg_mon_single_v1_real1","3NJM2BJS4W7UF88DFBRRTET8V2CCP4","2","0","AUGUST","8",,"0","8","3878",,,,,"0","2018-11-09 16:54:02","383584"
"A14QBG0BI8BFJ8","cs_wg_mon_single_v1_real1","31LM9EDVOLTHK1269OVLCT18L7JJNS","2","0","SEPTEMBER","10",,"0","10","10518",,,,,"1","2018-11-09 16:54:03","383585"
"A1EIKI2CBBKLEV","cs_wg_mon_single_v1_real1","3JC6VJ2SABK2TJTWBIMMPDY34ZQA5E","2","0","MARCH","8",,"0","8","9203",,,,,"1","2018-11-09 16:54:03","383586"
"A2LI8283SXAJS9","cs_wg_mon_single_v1_real1","3NPI0JQDAO6B1PAO1XMHIOTCJOBPTZ","28","0","FEBRUARY","10",,"0","10","2561",,,,,"0","2018-11-09 16:54:03","383587"
"A2L3TU04PQ346A","cs_wg_mon_single_v1_real1","39N5ACM9HEOSHA1A3RH0ROS0PH99PK","4","0","MARCH","10",,"0","10","4612",,,,,"1","2018-11-09 16:54:03","383588"
"AUZQIVJPQ4DCJ","cs_wg_mon_single_v1_real1","3LKC68YZ3A4L862HH2EDG8VLDDYOW8","1","0","DECEMBER","2",,"0","2","11729",,,,,"1","2018-11-09 16:54:05","383589"
"A2TGT3EVYQOJ8P","cs_wg_mon_single_v1_real1","3NC5L260MONJXKGMRD4DCK9LIA7FO0","11","0","OCTOBER","6",,"0","6","8648",,,,,"1","2018-11-09 16:54:05","383590"
"AHJ6FRXMQUDEH","cs_wg_mon_single_v1_real1","3RKNTXVS3MZKX0PWXD3CKLSP43VA49","9","0","JUNE","4",,"0","4","2881",,,,,"1","2018-11-09 16:54:07","383591"
"A2LI8283SXAJS9","cs_wg_mon_single_v1_real1","3NPI0JQDAO6B1PAO1XMHIOTCJOBPTZ","29","0","NOVEMBER","4",,"0","4","2925",,,,,"0","2018-11-09 16:54:08","383592"
"ACP3EPSETF6IY","cs_wg_mon_single_v1_real1","3RXCAC0YIRQMQSP1VGLZXJJX4K4G8Y","0","0","OCTOBER","6",,"0","7","8566",,,,,"1","2018-11-09 16:54:08","383593"
"A1QRCJFX76DELI","cs_wg_mon_single_v1_real1","3AMYWKA6YBNNERNBQK19IEW8PB4O66","21","0","DECEMBER","6",,"0","6","5516",,,,,"1","2018-11-09 16:54:09","383594"
"AV11S93KI37X3","cs_wg_mon_single_v1_real1","3IFS6Q0HJIKI53A5Z2R7ZMWEVR2ISR","7","0","MARCH","4",,"0","4","7585",,,,,"1","2018-11-09 16:54:09","383595"
"A2L3TU04PQ346A","cs_wg_mon_single_v1_real1","39N5ACM9HEOSHA1A3RH0ROS0PH99PK","5","0","NOVEMBER","4",,"0","4","4417",,,,,"1","2018-11-09 16:54:10","383596"
"A1335PAW6E5SE2","cs_wg_mon_single_v1_real1","32VNZTT0A75CWHBDZOPYFBHZ47IR4X","14","0","JUNE","10",,"0","10","17362",,,,,"1","2018-11-09 16:54:11","383597"
"AYW016I0MGCB7","cs_wg_mon_single_v1_real1","3DZQRBDBSLG3F0SMEZKKVGUPC963SD","9","0","JUNE","2",,"0","2","7841",,,,,"1","2018-11-09 16:54:11","383598"
"A2TGT3EVYQOJ8P","cs_wg_mon_single_v1_real1","3NC5L260MONJXKGMRD4DCK9LIA7FO0","12","0","MAY","4",,"0","4","4055",,,,,"1","2018-11-09 16:54:12","383599"
"AHJ6FRXMQUDEH","cs_wg_mon_single_v1_real1","3RKNTXVS3MZKX0PWXD3CKLSP43VA49","10","0","MARCH","10",,"0","10","3586",,,,,"1","2018-11-09 16:54:12","383600"
"A3AL6CS7BIZWNB","cs_wg_mon_single_v1_real1","3NJM2BJS4W7UF88DFBRRTET8V2CCP4","3","0","OCTOBER","2",,"0","2","7648",,,,,"1","2018-11-09 16:54:12","383601"
"A1QRCJFX76DELI","cs_wg_mon_single_v1_real1","3AMYWKA6YBNNERNBQK19IEW8PB4O66","22","0","FEBRUARY","2",,"0","2","2047",,,,,"1","2018-11-09 16:54:13","383602"
"AUZQIVJPQ4DCJ","cs_wg_mon_single_v1_real1","3LKC68YZ3A4L862HH2EDG8VLDDYOW8","2","0","JULY","8",,"0","8","5771",,,,,"1","2018-11-09 16:54:14","383603"
"A2LI8283SXAJS9","cs_wg_mon_single_v1_real1","3NPI0JQDAO6B1PAO1XMHIOTCJOBPTZ","30","0","MAY","6",,"0","6","3656",,,,,"1","2018-11-09 16:54:14","383604"
"A2L3TU04PQ346A","cs_wg_mon_single_v1_real1","39N5ACM9HEOSHA1A3RH0ROS0PH99PK","6","0","NOVEMBER","4",,"0","4","3145",,,,,"0","2018-11-09 16:54:15","383605"
"AV11S93KI37X3","cs_wg_mon_single_v1_real1","3IFS6Q0HJIKI53A5Z2R7ZMWEVR2ISR","8","0","DECEMBER","12",,"0","12","4156",,,,,"1","2018-11-09 16:54:15","383606"
"A14QBG0BI8BFJ8","cs_wg_mon_single_v1_real1","31LM9EDVOLTHK1269OVLCT18L7JJNS","3","0","NOVEMBER","2",,"0","2","9120",,,,,"1","2018-11-09 16:54:15","383607"
"A1EIKI2CBBKLEV","cs_wg_mon_single_v1_real1","3JC6VJ2SABK2TJTWBIMMPDY34ZQA5E","3","0","AUGUST","4",,"0","4","10381",,,,,"1","2018-11-09 16:54:15","383608"
"A1335PAW6E5SE2","cs_wg_mon_single_v1_real1","32VNZTT0A75CWHBDZOPYFBHZ47IR4X","15","0","AUGUST","8",,"0","8","2855",,,,,"1","2018-11-09 16:54:16","383609"
"A1QRCJFX76DELI","cs_wg_mon_single_v1_real1","3AMYWKA6YBNNERNBQK19IEW8PB4O66","23","0","AUGUST","12",,"0","12","1978",,,,,"0","2018-11-09 16:54:17","383610"
"AXPGZD6Q9556W","cs_wg_mon_single_v1_real1","3HFNH7HEMHFSWWPXHA2ZJA4XYQQGQ9","1","0","JULY","8",,"0","8","17504",,,,,"1","2018-11-09 16:54:17","383611"
"AHJ6FRXMQUDEH","cs_wg_mon_single_v1_real1","3RKNTXVS3MZKX0PWXD3CKLSP43VA49","11","0","NOVEMBER","2",,"0","2","3791",,,,,"1","2018-11-09 16:54:18","383612"
"AG1T80T4ZP5ZX","cs_wg_mon_single_v1_real1","3W2LOLRXLBGXAJ0GKGCEMS6V1T9KRH","0","0","AUGUST","12",,"0","12","12302",,,,,"1","2018-11-09 16:54:18","383613"
"A2LI8283SXAJS9","cs_wg_mon_single_v1_real1","3NPI0JQDAO6B1PAO1XMHIOTCJOBPTZ","31","0","SEPTEMBER","2",,"0","2","2805",,,,,"0","2018-11-09 16:54:19","383614"
"AV11S93KI37X3","cs_wg_mon_single_v1_real1","3IFS6Q0HJIKI53A5Z2R7ZMWEVR2ISR","9","0","DECEMBER","12",,"0","12","2618",,,,,"1","2018-11-09 16:54:19","383615"
"AYW016I0MGCB7","cs_wg_mon_single_v1_real1","3DZQRBDBSLG3F0SMEZKKVGUPC963SD","10","0","NOVEMBER","6",,"0","6","6262",,,,,"1","2018-11-09 16:54:20","383616"
"A2L3TU04PQ346A","cs_wg_mon_single_v1_real1","39N5ACM9HEOSHA1A3RH0ROS0PH99PK","7","0","MARCH","10",,"0","10","3348",,,,,"0","2018-11-09 16:54:20","383617"
"A1EIKI2CBBKLEV","cs_wg_mon_single_v1_real1","3JC6VJ2SABK2TJTWBIMMPDY34ZQA5E","4","0","MARCH","8",,"0","8","3434",,,,,"0","2018-11-09 16:54:21","383618"
"A1QRCJFX76DELI","cs_wg_mon_single_v1_real1","3AMYWKA6YBNNERNBQK19IEW8PB4O66","24","0","MARCH","12",,"0","6","2767",,,,,"0","2018-11-09 16:54:21","383619"
"A2TGT3EVYQOJ8P","cs_wg_mon_single_v1_real1","3NC5L260MONJXKGMRD4DCK9LIA7FO0","13","0","FEBRUARY","8",,"0","8","5918",,,,,"1","2018-11-09 16:54:22","383620"
"A14QBG0BI8BFJ8","cs_wg_mon_single_v1_real1","31LM9EDVOLTHK1269OVLCT18L7JJNS","4","0","NOVEMBER","2",,"0","2","4606",,,,,"1","2018-11-09 16:54:22","383621"
"ACP3EPSETF6IY","cs_wg_mon_single_v1_real1","3RXCAC0YIRQMQSP1VGLZXJJX4K4G8Y","1","0","FEBRUARY","10",,"0","10","11448",,,,,"1","2018-11-09 16:54:22","383622"
"AUZQIVJPQ4DCJ","cs_wg_mon_single_v1_real1","3LKC68YZ3A4L862HH2EDG8VLDDYOW8","3","0","APRIL","10",,"0","10","7026",,,,,"1","2018-11-09 16:54:23","383623"
"AHJ6FRXMQUDEH","cs_wg_mon_single_v1_real1","3RKNTXVS3MZKX0PWXD3CKLSP43VA49","12","0","JULY","12",,"0","12","2774",,,,,"1","2018-11-09 16:54:23","383624"
"A1335PAW6E5SE2","cs_wg_mon_single_v1_real1","32VNZTT0A75CWHBDZOPYFBHZ47IR4X","16","0","MAY","12",,"0","12","6044",,,,,"0","2018-11-09 16:54:24","383625"
"A2LI8283SXAJS9","cs_wg_mon_single_v1_real1","3NPI0JQDAO6B1PAO1XMHIOTCJOBPTZ","32","0","AUGUST","4",,"0","4","3373",,,,,"0","2018-11-09 16:54:24","383626"
"A2L3TU04PQ346A","cs_wg_mon_single_v1_real1","39N5ACM9HEOSHA1A3RH0ROS0PH99PK","8","0","OCTOBER","8",,"0","8","2934",,,,,"0","2018-11-09 16:54:26","383627"
"A1EIKI2CBBKLEV","cs_wg_mon_single_v1_real1","3JC6VJ2SABK2TJTWBIMMPDY34ZQA5E","5","0","MARCH","8",,"0","8","3237",,,,,"1","2018-11-09 16:54:27","383628"
"A1QRCJFX76DELI","cs_wg_mon_single_v1_real1","3AMYWKA6YBNNERNBQK19IEW8PB4O66","25","0","JUNE","8",,"0","8","4151",,,,,"1","2018-11-09 16:54:27","383629"
"AYW016I0MGCB7","cs_wg_mon_single_v1_real1","3DZQRBDBSLG3F0SMEZKKVGUPC963SD","11","0","OCTOBER","10",,"0","10","5034",,,,,"1","2018-11-09 16:54:27","383630"
"A3AL6CS7BIZWNB","cs_wg_mon_single_v1_real1","3NJM2BJS4W7UF88DFBRRTET8V2CCP4","4","0","MAY","8",,"0","8","13801",,,,,"1","2018-11-09 16:54:29","383631"
"AHJ6FRXMQUDEH","cs_wg_mon_single_v1_real1","3RKNTXVS3MZKX0PWXD3CKLSP43VA49","13","0","APRIL","8",,"0","8","3446",,,,,"1","2018-11-09 16:54:29","383632"
"A1335PAW6E5SE2","cs_wg_mon_single_v1_real1","32VNZTT0A75CWHBDZOPYFBHZ47IR4X","17","0","APRIL","10",,"0","10","3335",,,,,"1","2018-11-09 16:54:29","383633"
"AUZQIVJPQ4DCJ","cs_wg_mon_single_v1_real1","3LKC68YZ3A4L862HH2EDG8VLDDYOW8","4","0","MAY","2",,"0","2","4319",,,,,"1","2018-11-09 16:54:30","383634"
"A2TGT3EVYQOJ8P","cs_wg_mon_single_v1_real1","3NC5L260MONJXKGMRD4DCK9LIA7FO0","14","0","JANUARY","10",,"0","10","5554",,,,,"0","2018-11-09 16:54:30","383635"
"AV11S93KI37X3","cs_wg_mon_single_v1_real1","3IFS6Q0HJIKI53A5Z2R7ZMWEVR2ISR","10","0","JUNE","6",,"0","6","9317",,,,,"1","2018-11-09 16:54:31","383636"
"A2LI8283SXAJS9","cs_wg_mon_single_v1_real1","3NPI0JQDAO6B1PAO1XMHIOTCJOBPTZ","33","0","JUNE","8",,"0","8","5188",,,,,"1","2018-11-09 16:54:32","383637"
"A1EIKI2CBBKLEV","cs_wg_mon_single_v1_real1","3JC6VJ2SABK2TJTWBIMMPDY34ZQA5E","6","0","MARCH","8",,"0","8","2403",,,,,"0","2018-11-09 16:54:32","383638"
"AXPGZD6Q9556W","cs_wg_mon_single_v1_real1","3HFNH7HEMHFSWWPXHA2ZJA4XYQQGQ9","2","0","FEBRUARY","4",,"0","4","12404",,,,,"1","2018-11-09 16:54:32","383639"
"A14QBG0BI8BFJ8","cs_wg_mon_single_v1_real1","31LM9EDVOLTHK1269OVLCT18L7JJNS","5","0","FEBRUARY","8",,"0","8","5513",,,,,"1","2018-11-09 16:54:33","383640"
"A2L3TU04PQ346A","cs_wg_mon_single_v1_real1","39N5ACM9HEOSHA1A3RH0ROS0PH99PK","9","0","DECEMBER","4",,"0","4","3413",,,,,"1","2018-11-09 16:54:33","383641"
"AG1T80T4ZP5ZX","cs_wg_mon_single_v1_real1","3W2LOLRXLBGXAJ0GKGCEMS6V1T9KRH","1","0","APRIL","12",,"0","12","10794",,,,,"1","2018-11-09 16:54:33","383642"
"A1QRCJFX76DELI","cs_wg_mon_single_v1_real1","3AMYWKA6YBNNERNBQK19IEW8PB4O66","26","0","DECEMBER","6",,"0","6","5648",,,,,"1","2018-11-09 16:54:34","383643"
"ACP3EPSETF6IY","cs_wg_mon_single_v1_real1","3RXCAC0YIRQMQSP1VGLZXJJX4K4G8Y","2","0","AUGUST","2",,"0","2","10613",,,,,"1","2018-11-09 16:54:35","383644"
"A1335PAW6E5SE2","cs_wg_mon_single_v1_real1","32VNZTT0A75CWHBDZOPYFBHZ47IR4X","18","0","MARCH","2",,"0","2","3385",,,,,"1","2018-11-09 16:54:35","383645"
"AHJ6FRXMQUDEH","cs_wg_mon_single_v1_real1","3RKNTXVS3MZKX0PWXD3CKLSP43VA49","14","0","DECEMBER","6",,"0","6","3301",,,,,"1","2018-11-09 16:54:35","383646"
"A2TGT3EVYQOJ8P","cs_wg_mon_single_v1_real1","3NC5L260MONJXKGMRD4DCK9LIA7FO0","15","0","OCTOBER","6",,"0","6","3466",,,,,"1","2018-11-09 16:54:36","383647"
"A3DYAUID960LZV","cs_wg_mon_single_v1_real1","3ITXP059PWKE0EUBHKC7BNBE86SJS5","0","0","AUGUST","2",,"0","2","10299",,,,,"1","2018-11-09 16:54:37","383648"
"A2LI8283SXAJS9","cs_wg_mon_single_v1_real1","3NPI0JQDAO6B1PAO1XMHIOTCJOBPTZ","34","0","OCTOBER","12",,"0","12","3171",,,,,"0","2018-11-09 16:54:37","383649"
"AKVDK30EEV08C","cs_wg_mon_single_v1_real1","3EICBYG644XYTX5FKYM7WI7WM35CJ3","0","0","SEPTEMBER","8",,"0","8","10829",,,,,"1","2018-11-09 16:54:37","383650"
"AUZQIVJPQ4DCJ","cs_wg_mon_single_v1_real1","3LKC68YZ3A4L862HH2EDG8VLDDYOW8","5","0","FEBRUARY","10",,"0","10","6169",,,,,"1","2018-11-09 16:54:38","383651"
"A3AL6CS7BIZWNB","cs_wg_mon_single_v1_real1","3NJM2BJS4W7UF88DFBRRTET8V2CCP4","5","0","OCTOBER","2",,"0","2","5391",,,,,"0","2018-11-09 16:54:38","383652"
"A14E4UOQDV9O7O","cs_wg_mon_single_v1_real1","3NVC2EB65Q00BM4VD5C9D2IQTU2Y3M","0","0","MARCH","6",,"0","6","9775",,,,,"1","2018-11-09 16:54:38","383653"
"A2L3TU04PQ346A","cs_wg_mon_single_v1_real1","39N5ACM9HEOSHA1A3RH0ROS0PH99PK","10","0","AUGUST","6",,"0","6","4637",,,,,"1","2018-11-09 16:54:39","383654"
"A1335PAW6E5SE2","cs_wg_mon_single_v1_real1","32VNZTT0A75CWHBDZOPYFBHZ47IR4X","19","0","MAY","12",,"0","12","2610",,,,,"1","2018-11-09 16:54:40","383655"
"A1QRCJFX76DELI","cs_wg_mon_single_v1_real1","3AMYWKA6YBNNERNBQK19IEW8PB4O66","27","0","AUGUST","12",,"0","12","3627",,,,,"0","2018-11-09 16:54:40","383656"
"AV11S93KI37X3","cs_wg_mon_single_v1_real1","3IFS6Q0HJIKI53A5Z2R7ZMWEVR2ISR","11","0","SEPTEMBER","10",,"0","10","7308",,,,,"1","2018-11-09 16:54:40","383657"
"AYW016I0MGCB7","cs_wg_mon_single_v1_real1","3DZQRBDBSLG3F0SMEZKKVGUPC963SD","12","0","MAY","12",,"0","12","11235",,,,,"1","2018-11-09 16:54:41","383658"
"AG1T80T4ZP5ZX","cs_wg_mon_single_v1_real1","3W2LOLRXLBGXAJ0GKGCEMS6V1T9KRH","2","0","APRIL","12",,"0","12","5885",,,,,"1","2018-11-09 16:54:41","383659"
"AHJ6FRXMQUDEH","cs_wg_mon_single_v1_real1","3RKNTXVS3MZKX0PWXD3CKLSP43VA49","15","0","FEBRUARY","2",,"0","2","2993",,,,,"1","2018-11-09 16:54:41","383660"
"A1EIKI2CBBKLEV","cs_wg_mon_single_v1_real1","3JC6VJ2SABK2TJTWBIMMPDY34ZQA5E","7","0","JULY","4",,"0","4","7693",,,,,"1","2018-11-09 16:54:42","383661"
"ACP3EPSETF6IY","cs_wg_mon_single_v1_real1","3RXCAC0YIRQMQSP1VGLZXJJX4K4G8Y","3","0","FEBRUARY","10",,"0","10","4815",,,,,"1","2018-11-09 16:54:42","383662"
"A2LI8283SXAJS9","cs_wg_mon_single_v1_real1","3NPI0JQDAO6B1PAO1XMHIOTCJOBPTZ","35","0","APRIL","2",,"0","2","2802",,,,,"0","2018-11-09 16:54:42","383663"
"A2L3TU04PQ346A","cs_wg_mon_single_v1_real1","39N5ACM9HEOSHA1A3RH0ROS0PH99PK","11","0","AUGUST","6",,"0","6","1832",,,,,"0","2018-11-09 16:54:43","383664"
"AXPGZD6Q9556W","cs_wg_mon_single_v1_real1","3HFNH7HEMHFSWWPXHA2ZJA4XYQQGQ9","3","0","JANUARY","10",,"0","10","8541",,,,,"1","2018-11-09 16:54:43","383665"
"A1QRCJFX76DELI","cs_wg_mon_single_v1_real1","3AMYWKA6YBNNERNBQK19IEW8PB4O66","28","0","FEBRUARY","2",,"0","2","2339",,,,,"1","2018-11-09 16:54:44","383666"
"A14QBG0BI8BFJ8","cs_wg_mon_single_v1_real1","31LM9EDVOLTHK1269OVLCT18L7JJNS","6","0","OCTOBER","6",,"0","6","10131",,,,,"1","2018-11-09 16:54:45","383667"
"AYW016I0MGCB7","cs_wg_mon_single_v1_real1","3DZQRBDBSLG3F0SMEZKKVGUPC963SD","13","0","MAY","12",,"0","12","2480",,,,,"0","2018-11-09 16:54:46","383668"
"AHJ6FRXMQUDEH","cs_wg_mon_single_v1_real1","3RKNTXVS3MZKX0PWXD3CKLSP43VA49","16","0","SEPTEMBER","12",,"0","12","3197",,,,,"1","2018-11-09 16:54:46","383669"
"AUZQIVJPQ4DCJ","cs_wg_mon_single_v1_real1","3LKC68YZ3A4L862HH2EDG8VLDDYOW8","6","0","SEPTEMBER","4",,"0","12","4786",,,,,"0","2018-11-09 16:54:47","383670"
"A3DYAUID960LZV","cs_wg_mon_single_v1_real1","3ITXP059PWKE0EUBHKC7BNBE86SJS5","1","0","APRIL","4",,"0","4","6984",,,,,"1","2018-11-09 16:54:47","383671"
"A3AL6CS7BIZWNB","cs_wg_mon_single_v1_real1","3NJM2BJS4W7UF88DFBRRTET8V2CCP4","6","0","JULY","12",,"0","12","6553",,,,,"1","2018-11-09 16:54:47","383672"
"ACP3EPSETF6IY","cs_wg_mon_single_v1_real1","3RXCAC0YIRQMQSP1VGLZXJJX4K4G8Y","4","0","MARCH","6",,"0","6","4150",,,,,"1","2018-11-09 16:54:48","383673"
"A1QRCJFX76DELI","cs_wg_mon_single_v1_real1","3AMYWKA6YBNNERNBQK19IEW8PB4O66","29","0","OCTOBER","10",,"0","10","2782",,,,,"1","2018-11-09 16:54:48","383674"
"A1335PAW6E5SE2","cs_wg_mon_single_v1_real1","32VNZTT0A75CWHBDZOPYFBHZ47IR4X","20","0","SEPTEMBER","6",,"0","6","6573",,,,,"0","2018-11-09 16:54:48","383675"
"A2TGT3EVYQOJ8P","cs_wg_mon_single_v1_real1","3NC5L260MONJXKGMRD4DCK9LIA7FO0","16","0","APRIL","2",,"0","2","8911",,,,,"1","2018-11-09 16:54:49","383676"
"AKVDK30EEV08C","cs_wg_mon_single_v1_real1","3EICBYG644XYTX5FKYM7WI7WM35CJ3","1","0","MAY","6",,"0","6","6547",,,,,"1","2018-11-09 16:54:49","383677"
"A2LI8283SXAJS9","cs_wg_mon_single_v1_real1","3NPI0JQDAO6B1PAO1XMHIOTCJOBPTZ","36","0","MARCH","10",,"0","10","4415",,,,,"1","2018-11-09 16:54:49","383678"
"A2L3TU04PQ346A","cs_wg_mon_single_v1_real1","39N5ACM9HEOSHA1A3RH0ROS0PH99PK","12","0","APRIL","6",,"0","6","4747",,,,,"1","2018-11-09 16:54:50","383679"
"AV11S93KI37X3","cs_wg_mon_single_v1_real1","3IFS6Q0HJIKI53A5Z2R7ZMWEVR2ISR","12","0","MARCH","4",,"0","4","7926",,,,,"1","2018-11-09 16:54:50","383680"
"AYW016I0MGCB7","cs_wg_mon_single_v1_real1","3DZQRBDBSLG3F0SMEZKKVGUPC963SD","14","0","JULY","4",,"0","4","3066",,,,,"1","2018-11-09 16:54:51","383681"
"A14E4UOQDV9O7O","cs_wg_mon_single_v1_real1","3NVC2EB65Q00BM4VD5C9D2IQTU2Y3M","1","0","AUGUST","10",,"0","10","9860",,,,,"1","2018-11-09 16:54:52","383682"
"AHJ6FRXMQUDEH","cs_wg_mon_single_v1_real1","3RKNTXVS3MZKX0PWXD3CKLSP43VA49","17","0","JANUARY","4",,"0","4","3149",,,,,"1","2018-11-09 16:54:52","383683"
"A1EIKI2CBBKLEV","cs_wg_mon_single_v1_real1","3JC6VJ2SABK2TJTWBIMMPDY34ZQA5E","8","0","SEPTEMBER","8",,"0","8","8904",,,,,"1","2018-11-09 16:54:53","383684"
"A1QRCJFX76DELI","cs_wg_mon_single_v1_real1","3AMYWKA6YBNNERNBQK19IEW8PB4O66","30","0","APRIL","4",,"0","4","2835",,,,,"1","2018-11-09 16:54:53","383685"
"A1335PAW6E5SE2","cs_wg_mon_single_v1_real1","32VNZTT0A75CWHBDZOPYFBHZ47IR4X","21","0","FEBRUARY","2",,"0","2","2502",,,,,"1","2018-11-09 16:54:53","383686"
"A2L3TU04PQ346A","cs_wg_mon_single_v1_real1","39N5ACM9HEOSHA1A3RH0ROS0PH99PK","13","0","JULY","2",,"0","2","2538",,,,,"1","2018-11-09 16:54:54","383687"
"A2TGT3EVYQOJ8P","cs_wg_mon_single_v1_real1","3NC5L260MONJXKGMRD4DCK9LIA7FO0","17","0","JULY","2",,"0","2","3254",,,,,"1","2018-11-09 16:54:54","383688"
"A2LI8283SXAJS9","cs_wg_mon_single_v1_real1","3NPI0JQDAO6B1PAO1XMHIOTCJOBPTZ","37","0","JUNE","8",,"0","8","2973",,,,,"0","2018-11-09 16:54:54","383689"
"A14QBG0BI8BFJ8","cs_wg_mon_single_v1_real1","31LM9EDVOLTHK1269OVLCT18L7JJNS","7","0","NOVEMBER","2",,"0","2","6388",,,,,"0","2018-11-09 16:54:54","383690"
"ACP3EPSETF6IY","cs_wg_mon_single_v1_real1","3RXCAC0YIRQMQSP1VGLZXJJX4K4G8Y","5","0","NOVEMBER","12",,"0","12","3423",,,,,"1","2018-11-09 16:54:54","383691"
"A1CFXA3VVC9SNX","cs_wg_mon_single_v1_real1","3PM8NZGV8YH3IIKN6K237W4S1GMQXB","0","0","NOVEMBER","12",,"0","12","9747",,,,,"1","2018-11-09 16:54:54","383692"
"AUZQIVJPQ4DCJ","cs_wg_mon_single_v1_real1","3LKC68YZ3A4L862HH2EDG8VLDDYOW8","7","0","DECEMBER","2",,"0","2","6090",,,,,"0","2018-11-09 16:54:56","383693"
"A1EIKI2CBBKLEV","cs_wg_mon_single_v1_real1","3JC6VJ2SABK2TJTWBIMMPDY34ZQA5E","9","0","SEPTEMBER","8",,"0","8","1992",,,,,"0","2018-11-09 16:54:57","383694"
"AHJ6FRXMQUDEH","cs_wg_mon_single_v1_real1","3RKNTXVS3MZKX0PWXD3CKLSP43VA49","18","0","JUNE","4",,"0","4","2822",,,,,"1","2018-11-09 16:54:57","383695"
"A3AL6CS7BIZWNB","cs_wg_mon_single_v1_real1","3NJM2BJS4W7UF88DFBRRTET8V2CCP4","7","0","APRIL","2",,"0","2","7491",,,,,"1","2018-11-09 16:54:57","383696"
"A1335PAW6E5SE2","cs_wg_mon_single_v1_real1","32VNZTT0A75CWHBDZOPYFBHZ47IR4X","22","0","APRIL","10",,"0","10","2554",,,,,"1","2018-11-09 16:54:58","383697"
"AYW016I0MGCB7","cs_wg_mon_single_v1_real1","3DZQRBDBSLG3F0SMEZKKVGUPC963SD","15","0","MAY","12",,"0","12","4705",,,,,"0","2018-11-09 16:54:58","383698"
"A1QRCJFX76DELI","cs_wg_mon_single_v1_real1","3AMYWKA6YBNNERNBQK19IEW8PB4O66","31","0","JANUARY","6",,"0","6","3439",,,,,"1","2018-11-09 16:54:58","383699"
"A2LI8283SXAJS9","cs_wg_mon_single_v1_real1","3NPI0JQDAO6B1PAO1XMHIOTCJOBPTZ","38","0","JUNE","8",,"0","8","2042",,,,,"0","2018-11-09 16:54:58","383700"
"AV11S93KI37X3","cs_wg_mon_single_v1_real1","3IFS6Q0HJIKI53A5Z2R7ZMWEVR2ISR","13","0","APRIL","8",,"0","8","6462",,,,,"1","2018-11-09 16:54:59","383701"
"AXPGZD6Q9556W","cs_wg_mon_single_v1_real1","3HFNH7HEMHFSWWPXHA2ZJA4XYQQGQ9","4","0","MAY","6",,"0","6","13869",,,,,"1","2018-11-09 16:54:59","383702"
"A14E4UOQDV9O7O","cs_wg_mon_single_v1_real1","3NVC2EB65Q00BM4VD5C9D2IQTU2Y3M","2","0","NOVEMBER","12",,"0","12","4958",,,,,"1","2018-11-09 16:55:00","383703"
"ACP3EPSETF6IY","cs_wg_mon_single_v1_real1","3RXCAC0YIRQMQSP1VGLZXJJX4K4G8Y","6","0","MAY","10",,"0","10","3613",,,,,"1","2018-11-09 16:55:00","383704"
"AKVDK30EEV08C","cs_wg_mon_single_v1_real1","3EICBYG644XYTX5FKYM7WI7WM35CJ3","2","0","APRIL","8",,"0","8","8979",,,,,"1","2018-11-09 16:55:01","383705"
"A2L3TU04PQ346A","cs_wg_mon_single_v1_real1","39N5ACM9HEOSHA1A3RH0ROS0PH99PK","14","0","SEPTEMBER","2",,"0","8","5385",,,,,"0","2018-11-09 16:55:01","383706"
"A1QRCJFX76DELI","cs_wg_mon_single_v1_real1","3AMYWKA6YBNNERNBQK19IEW8PB4O66","32","0","AUGUST","12",,"0","12","2295",,,,,"0","2018-11-09 16:55:02","383707"
"A3DYAUID960LZV","cs_wg_mon_single_v1_real1","3ITXP059PWKE0EUBHKC7BNBE86SJS5","2","0","FEBRUARY","8",,"0","8","13273",,,,,"1","2018-11-09 16:55:03","383708"
"A2LI8283SXAJS9","cs_wg_mon_single_v1_real1","3NPI0JQDAO6B1PAO1XMHIOTCJOBPTZ","39","0","APRIL","2",,"0","2","2089",,,,,"0","2018-11-09 16:55:03","383709"
"AUZQIVJPQ4DCJ","cs_wg_mon_single_v1_real1","3LKC68YZ3A4L862HH2EDG8VLDDYOW8","8","0","JANUARY","6",,"0","6","4587",,,,,"1","2018-11-09 16:55:03","383710"
"A1335PAW6E5SE2","cs_wg_mon_single_v1_real1","32VNZTT0A75CWHBDZOPYFBHZ47IR4X","23","0","SEPTEMBER","6",,"0","6","2952",,,,,"1","2018-11-09 16:55:03","383711"
"AHJ6FRXMQUDEH","cs_wg_mon_single_v1_real1","3RKNTXVS3MZKX0PWXD3CKLSP43VA49","19","0","APRIL","8",,"0","8","3942",,,,,"1","2018-11-09 16:55:03","383712"
"A2TGT3EVYQOJ8P","cs_wg_mon_single_v1_real1","3NC5L260MONJXKGMRD4DCK9LIA7FO0","18","0","DECEMBER","12",,"0","12","7504",,,,,"1","2018-11-09 16:55:04","383713"
"A3AL6CS7BIZWNB","cs_wg_mon_single_v1_real1","3NJM2BJS4W7UF88DFBRRTET8V2CCP4","8","0","MAY","8",,"0","8","4178",,,,,"1","2018-11-09 16:55:04","383714"
"A14QBG0BI8BFJ8","cs_wg_mon_single_v1_real1","31LM9EDVOLTHK1269OVLCT18L7JJNS","8","0","APRIL","6",,"0","6","7977",,,,,"1","2018-11-09 16:55:05","383715"
"A1EIKI2CBBKLEV","cs_wg_mon_single_v1_real1","3JC6VJ2SABK2TJTWBIMMPDY34ZQA5E","10","0","MAY","2",,"0","2","6284",,,,,"1","2018-11-09 16:55:05","383716"
"A1CFXA3VVC9SNX","cs_wg_mon_single_v1_real1","3PM8NZGV8YH3IIKN6K237W4S1GMQXB","1","0","APRIL","10",,"0","10","7730",,,,,"1","2018-11-09 16:55:06","383717"
"A1QRCJFX76DELI","cs_wg_mon_single_v1_real1","3AMYWKA6YBNNERNBQK19IEW8PB4O66","33","0","DECEMBER","6",,"0","6","2541",,,,,"1","2018-11-09 16:55:06","383718"
"AXPGZD6Q9556W","cs_wg_mon_single_v1_real1","3HFNH7HEMHFSWWPXHA2ZJA4XYQQGQ9","5","0","JANUARY","10",,"0","10","4656",,,,,"0","2018-11-09 16:55:07","383719"
"A14E4UOQDV9O7O","cs_wg_mon_single_v1_real1","3NVC2EB65Q00BM4VD5C9D2IQTU2Y3M","3","0","JULY","4",,"0","4","4707",,,,,"1","2018-11-09 16:55:07","383720"
"A1335PAW6E5SE2","cs_wg_mon_single_v1_real1","32VNZTT0A75CWHBDZOPYFBHZ47IR4X","24","0","DECEMBER","4",,"0","4","2475",,,,,"0","2018-11-09 16:55:07","383721"
"ACP3EPSETF6IY","cs_wg_mon_single_v1_real1","3RXCAC0YIRQMQSP1VGLZXJJX4K4G8Y","7","0","FEBRUARY","10",,"0","10","5476",,,,,"1","2018-11-09 16:55:07","383722"
"AV11S93KI37X3","cs_wg_mon_single_v1_real1","3IFS6Q0HJIKI53A5Z2R7ZMWEVR2ISR","14","0","JUNE","6",,"0","6","6831",,,,,"1","2018-11-09 16:55:08","383723"
"AG1T80T4ZP5ZX","cs_wg_mon_single_v1_real1","3W2LOLRXLBGXAJ0GKGCEMS6V1T9KRH","3","0","MARCH","8",,"0","8","21572",,,,,"1","2018-11-09 16:55:08","383724"
"AHJ6FRXMQUDEH","cs_wg_mon_single_v1_real1","3RKNTXVS3MZKX0PWXD3CKLSP43VA49","20","0","DECEMBER","6",,"0","6","2832",,,,,"1","2018-11-09 16:55:09","383725"
"AUZQIVJPQ4DCJ","cs_wg_mon_single_v1_real1","3LKC68YZ3A4L862HH2EDG8VLDDYOW8","9","0","NOVEMBER","12",,"0","12","4245",,,,,"1","2018-11-09 16:55:09","383726"
"A2LI8283SXAJS9","cs_wg_mon_single_v1_real1","3NPI0JQDAO6B1PAO1XMHIOTCJOBPTZ","40","0","AUGUST","4",,"0","4","3086",,,,,"0","2018-11-09 16:55:10","383727"
"A2TGT3EVYQOJ8P","cs_wg_mon_single_v1_real1","3NC5L260MONJXKGMRD4DCK9LIA7FO0","19","0","OCTOBER","6",,"0","6","4364",,,,,"1","2018-11-09 16:55:10","383728"
"AYW016I0MGCB7","cs_wg_mon_single_v1_real1","3DZQRBDBSLG3F0SMEZKKVGUPC963SD","16","0","JANUARY","6",,"0","6","11997",,,,,"1","2018-11-09 16:55:12","383729"
"A2L3TU04PQ346A","cs_wg_mon_single_v1_real1","39N5ACM9HEOSHA1A3RH0ROS0PH99PK","15","0","MAY","8",,"0","8","8420",,,,,"1","2018-11-09 16:55:12","383730"
"A1QRCJFX76DELI","cs_wg_mon_single_v1_real1","3AMYWKA6YBNNERNBQK19IEW8PB4O66","34","0","SEPTEMBER","8",,"0","8","3710",,,,,"1","2018-11-09 16:55:12","383731"
"A28Q19NTTP0UIQ","cs_wg_mon_single_v1_real1","33M4IA01QG23UJZNJZR3CMEXX2OXRJ","0","0","JUNE","12",,"0","12","4182",,,,,"1","2018-11-09 16:55:12","383732"
"A14QBG0BI8BFJ8","cs_wg_mon_single_v1_real1","31LM9EDVOLTHK1269OVLCT18L7JJNS","9","0","MARCH","8",,"0","8","6231",,,,,"1","2018-11-09 16:55:13","383733"
"A1335PAW6E5SE2","cs_wg_mon_single_v1_real1","32VNZTT0A75CWHBDZOPYFBHZ47IR4X","25","0","MAY","12",,"0","12","3742",,,,,"0","2018-11-09 16:55:13","383734"
"A18PFPO5K63ZL2","cs_wg_mon_single_v1_real1","3EJJQNKU9R668TZ8EV9H90Q39C5RHK","0","0","MAY","4",,"0","4","8193",,,,,"1","2018-11-09 16:55:14","383735"
"A14E4UOQDV9O7O","cs_wg_mon_single_v1_real1","3NVC2EB65Q00BM4VD5C9D2IQTU2Y3M","4","0","JULY","4",,"0","4","4980",,,,,"1","2018-11-09 16:55:14","383736"
"AHJ6FRXMQUDEH","cs_wg_mon_single_v1_real1","3RKNTXVS3MZKX0PWXD3CKLSP43VA49","21","0","FEBRUARY","2",,"0","2","3789",,,,,"1","2018-11-09 16:55:14","383737"
"AKVDK30EEV08C","cs_wg_mon_single_v1_real1","3EICBYG644XYTX5FKYM7WI7WM35CJ3","3","0","JUNE","2",,"0","2","9794",,,,,"1","2018-11-09 16:55:15","383738"
"A1EIKI2CBBKLEV","cs_wg_mon_single_v1_real1","3JC6VJ2SABK2TJTWBIMMPDY34ZQA5E","11","0","APRIL","6",,"0","6","6510",,,,,"1","2018-11-09 16:55:15","383739"
"ACP3EPSETF6IY","cs_wg_mon_single_v1_real1","3RXCAC0YIRQMQSP1VGLZXJJX4K4G8Y","8","0","MARCH","6",,"0","6","6040",,,,,"1","2018-11-09 16:55:16","383740"
"A1QRCJFX76DELI","cs_wg_mon_single_v1_real1","3AMYWKA6YBNNERNBQK19IEW8PB4O66","35","0","OCTOBER","10",,"0","10","2696",,,,,"0","2018-11-09 16:55:16","383741"
"A1CFXA3VVC9SNX","cs_wg_mon_single_v1_real1","3PM8NZGV8YH3IIKN6K237W4S1GMQXB","2","0","JULY","6",,"0","6","7981",,,,,"1","2018-11-09 16:55:16","383742"
"AYW016I0MGCB7","cs_wg_mon_single_v1_real1","3DZQRBDBSLG3F0SMEZKKVGUPC963SD","17","0","JUNE","2",,"0","2","3003",,,,,"0","2018-11-09 16:55:17","383743"
"A2TGT3EVYQOJ8P","cs_wg_mon_single_v1_real1","3NC5L260MONJXKGMRD4DCK9LIA7FO0","20","0","MAY","4",,"0","4","3991",,,,,"1","2018-11-09 16:55:17","383744"
"AUZQIVJPQ4DCJ","cs_wg_mon_single_v1_real1","3LKC68YZ3A4L862HH2EDG8VLDDYOW8","10","0","FEBRUARY","10",,"0","10","6199",,,,,"1","2018-11-09 16:55:17","383745"
"A3QTDX0KPAKU39","cs_wg_mon_single_v1_real1","3Z4XG4ZF48SXCEKRKQL3L5JS7A08XI","0","0","APRIL","8",,"0","8","37314",,,,,"1","2018-11-09 16:55:18","383746"
"A2LI8283SXAJS9","cs_wg_mon_single_v1_real1","3NPI0JQDAO6B1PAO1XMHIOTCJOBPTZ","41","0","MARCH","10",,"0","10","5688",,,,,"0","2018-11-09 16:55:18","383747"
"A1335PAW6E5SE2","cs_wg_mon_single_v1_real1","32VNZTT0A75CWHBDZOPYFBHZ47IR4X","26","0","NOVEMBER","4",,"0","4","2942",,,,,"0","2018-11-09 16:55:18","383748"
"A2L3TU04PQ346A","cs_wg_mon_single_v1_real1","39N5ACM9HEOSHA1A3RH0ROS0PH99PK","16","0","AUGUST","6",,"0","6","4961",,,,,"1","2018-11-09 16:55:19","383749"
"A14QBG0BI8BFJ8","cs_wg_mon_single_v1_real1","31LM9EDVOLTHK1269OVLCT18L7JJNS","10","0","OCTOBER","6",,"0","6","4441",,,,,"1","2018-11-09 16:55:19","383750"
"A28Q19NTTP0UIQ","cs_wg_mon_single_v1_real1","33M4IA01QG23UJZNJZR3CMEXX2OXRJ","1","0","SEPTEMBER","10",,"0","10","4477",,,,,"1","2018-11-09 16:55:19","383751"
"AHJ6FRXMQUDEH","cs_wg_mon_single_v1_real1","3RKNTXVS3MZKX0PWXD3CKLSP43VA49","22","0","AUGUST","6",,"0","6","3099",,,,,"1","2018-11-09 16:55:20","383752"
"A1QRCJFX76DELI","cs_wg_mon_single_v1_real1","3AMYWKA6YBNNERNBQK19IEW8PB4O66","36","0","OCTOBER","10",,"0","10","1945",,,,,"0","2018-11-09 16:55:20","383753"
"A3AL6CS7BIZWNB","cs_wg_mon_single_v1_real1","3NJM2BJS4W7UF88DFBRRTET8V2CCP4","9","0","JANUARY","6",,"0","6","12376",,,,,"1","2018-11-09 16:55:20","383754"
"ACP3EPSETF6IY","cs_wg_mon_single_v1_real1","3RXCAC0YIRQMQSP1VGLZXJJX4K4G8Y","9","0","JUNE","8",,"0","8","3232",,,,,"1","2018-11-09 16:55:21","383755"
"A1EIKI2CBBKLEV","cs_wg_mon_single_v1_real1","3JC6VJ2SABK2TJTWBIMMPDY34ZQA5E","12","0","MARCH","8",,"0","8","3859",,,,,"1","2018-11-09 16:55:21","383756"
"A14E4UOQDV9O7O","cs_wg_mon_single_v1_real1","3NVC2EB65Q00BM4VD5C9D2IQTU2Y3M","5","0","JUNE","2",,"0","2","4253",,,,,"1","2018-11-09 16:55:21","383757"
"A2TGT3EVYQOJ8P","cs_wg_mon_single_v1_real1","3NC5L260MONJXKGMRD4DCK9LIA7FO0","21","0","APRIL","2",,"0","2","3415",,,,,"1","2018-11-09 16:55:22","383758"
"AXPGZD6Q9556W","cs_wg_mon_single_v1_real1","3HFNH7HEMHFSWWPXHA2ZJA4XYQQGQ9","6","0","JUNE","2",,"0","7","8965",,,,,"0","2018-11-09 16:55:22","383759"
"AV11S93KI37X3","cs_wg_mon_single_v1_real1","3IFS6Q0HJIKI53A5Z2R7ZMWEVR2ISR","15","0","AUGUST","4",,"0","4","5784",,,,,"1","2018-11-09 16:55:23","383760"
"A2L3TU04PQ346A","cs_wg_mon_single_v1_real1","39N5ACM9HEOSHA1A3RH0ROS0PH99PK","17","0","JUNE","12",,"0","12","2595",,,,,"1","2018-11-09 16:55:23","383761"
"A2LI8283SXAJS9","cs_wg_mon_single_v1_real1","3NPI0JQDAO6B1PAO1XMHIOTCJOBPTZ","42","0","MARCH","10",,"0","10","2905",,,,,"0","2018-11-09 16:55:23","383762"
"A3DYAUID960LZV","cs_wg_mon_single_v1_real1","3ITXP059PWKE0EUBHKC7BNBE86SJS5","3","0","SEPTEMBER","2",,"0","2","19060",,,,,"1","2018-11-09 16:55:24","383763"
"A1335PAW6E5SE2","cs_wg_mon_single_v1_real1","32VNZTT0A75CWHBDZOPYFBHZ47IR4X","27","0","JANUARY","8",,"0","8","3803",,,,,"1","2018-11-09 16:55:24","383764"
"A1QRCJFX76DELI","cs_wg_mon_single_v1_real1","3AMYWKA6YBNNERNBQK19IEW8PB4O66","37","0","MAY","4",,"0","4","3672",,,,,"1","2018-11-09 16:55:25","383765"
"A28Q19NTTP0UIQ","cs_wg_mon_single_v1_real1","33M4IA01QG23UJZNJZR3CMEXX2OXRJ","2","0","OCTOBER","2",,"0","2","3640",,,,,"1","2018-11-09 16:55:25","383766"
"AHJ6FRXMQUDEH","cs_wg_mon_single_v1_real1","3RKNTXVS3MZKX0PWXD3CKLSP43VA49","23","0","MARCH","10",,"0","10","3772",,,,,"1","2018-11-09 16:55:26","383767"
"AUZQIVJPQ4DCJ","cs_wg_mon_single_v1_real1","3LKC68YZ3A4L862HH2EDG8VLDDYOW8","11","0","JANUARY","6",,"0","6","6140",,,,,"1","2018-11-09 16:55:26","383768"
"A1CFXA3VVC9SNX","cs_wg_mon_single_v1_real1","3PM8NZGV8YH3IIKN6K237W4S1GMQXB","3","0","JULY","6",,"0","6","7373",,,,,"1","2018-11-09 16:55:26","383769"
"ACP3EPSETF6IY","cs_wg_mon_single_v1_real1","3RXCAC0YIRQMQSP1VGLZXJJX4K4G8Y","10","0","APRIL","12",,"0","12","2992",,,,,"1","2018-11-09 16:55:26","383770"
"AKVDK30EEV08C","cs_wg_mon_single_v1_real1","3EICBYG644XYTX5FKYM7WI7WM35CJ3","4","0","OCTOBER","10",,"0","10","8160",,,,,"1","2018-11-09 16:55:26","383771"
"A2LI8283SXAJS9","cs_wg_mon_single_v1_real1","3NPI0JQDAO6B1PAO1XMHIOTCJOBPTZ","43","0","MARCH","10",,"0","10","2558",,,,,"0","2018-11-09 16:55:28","383772"
"A2TGT3EVYQOJ8P","cs_wg_mon_single_v1_real1","3NC5L260MONJXKGMRD4DCK9LIA7FO0","22","0","MAY","4",,"0","4","3863",,,,,"1","2018-11-09 16:55:28","383773"
"A3QTDX0KPAKU39","cs_wg_mon_single_v1_real1","3Z4XG4ZF48SXCEKRKQL3L5JS7A08XI","1","0","SEPTEMBER","4",,"0","4","8936",,,,,"1","2018-11-09 16:55:29","383774"
"A1EIKI2CBBKLEV","cs_wg_mon_single_v1_real1","3JC6VJ2SABK2TJTWBIMMPDY34ZQA5E","13","0","JULY","4",,"0","4","5698",,,,,"1","2018-11-09 16:55:29","383775"
"A1335PAW6E5SE2","cs_wg_mon_single_v1_real1","32VNZTT0A75CWHBDZOPYFBHZ47IR4X","28","0","NOVEMBER","4",,"0","4","2950",,,,,"0","2018-11-09 16:55:29","383776"
"A2L3TU04PQ346A","cs_wg_mon_single_v1_real1","39N5ACM9HEOSHA1A3RH0ROS0PH99PK","18","0","JULY","2",,"0","6","4487",,,,,"0","2018-11-09 16:55:29","383777"
"A18PFPO5K63ZL2","cs_wg_mon_single_v1_real1","3EJJQNKU9R668TZ8EV9H90Q39C5RHK","1","0","JULY","6",,"0","6","12677",,,,,"1","2018-11-09 16:55:29","383778"
"A3AL6CS7BIZWNB","cs_wg_mon_single_v1_real1","3NJM2BJS4W7UF88DFBRRTET8V2CCP4","10","0","NOVEMBER","12",,"0","12","7529",,,,,"1","2018-11-09 16:55:30","383779"
"AV11S93KI37X3","cs_wg_mon_single_v1_real1","3IFS6Q0HJIKI53A5Z2R7ZMWEVR2ISR","16","0","MARCH","4",,"0","4","5637",,,,,"1","2018-11-09 16:55:31","383780"
"A14QBG0BI8BFJ8","cs_wg_mon_single_v1_real1","31LM9EDVOLTHK1269OVLCT18L7JJNS","11","0","DECEMBER","4",,"0","4","9568",,,,,"1","2018-11-09 16:55:31","383781"
"ACP3EPSETF6IY","cs_wg_mon_single_v1_real1","3RXCAC0YIRQMQSP1VGLZXJJX4K4G8Y","11","0","SEPTEMBER","4",,"0","4","2996",,,,,"1","2018-11-09 16:55:31","383782"
"AHJ6FRXMQUDEH","cs_wg_mon_single_v1_real1","3RKNTXVS3MZKX0PWXD3CKLSP43VA49","24","0","MAY","10",,"0","10","3452",,,,,"1","2018-11-09 16:55:31","383783"
"AYW016I0MGCB7","cs_wg_mon_single_v1_real1","3DZQRBDBSLG3F0SMEZKKVGUPC963SD","18","0","SEPTEMBER","8",,"0","8","13266",,,,,"1","2018-11-09 16:55:32","383784"
"A1QRCJFX76DELI","cs_wg_mon_single_v1_real1","3AMYWKA6YBNNERNBQK19IEW8PB4O66","38","0","SEPTEMBER","8",,"0","12","5199",,,,,"0","2018-11-09 16:55:32","383785"
"AXPGZD6Q9556W","cs_wg_mon_single_v1_real1","3HFNH7HEMHFSWWPXHA2ZJA4XYQQGQ9","7","0","MARCH","2",,"0","2","4923",,,,,"1","2018-11-09 16:55:33","383786"
"A28Q19NTTP0UIQ","cs_wg_mon_single_v1_real1","33M4IA01QG23UJZNJZR3CMEXX2OXRJ","3","0","APRIL","6",,"0","6","4257",,,,,"1","2018-11-09 16:55:33","383787"
"A4IY48GQ4Q2FP","cs_wg_mon_single_v1_real1","3L6L49WXW0YNRUDF2HCVCAC3CPV54Z","0","0","SEPTEMBER","4",,"0","4","5336",,,,,"1","2018-11-09 16:55:33","383788"
"AUZQIVJPQ4DCJ","cs_wg_mon_single_v1_real1","3LKC68YZ3A4L862HH2EDG8VLDDYOW8","12","0","NOVEMBER","12",,"0","12","5190",,,,,"1","2018-11-09 16:55:33","383789"
"A1CFXA3VVC9SNX","cs_wg_mon_single_v1_real1","3PM8NZGV8YH3IIKN6K237W4S1GMQXB","4","0","NOVEMBER","12",,"0","12","3427",,,,,"0","2018-11-09 16:55:33","383790"
"A14E4UOQDV9O7O","cs_wg_mon_single_v1_real1","3NVC2EB65Q00BM4VD5C9D2IQTU2Y3M","6","0","JUNE","2",,"0","2","9422",,,,,"1","2018-11-09 16:55:33","383791"
"A3DYAUID960LZV","cs_wg_mon_single_v1_real1","3ITXP059PWKE0EUBHKC7BNBE86SJS5","4","0","MAY","8",,"0","8","7371",,,,,"1","2018-11-09 16:55:34","383792"
"A2LI8283SXAJS9","cs_wg_mon_single_v1_real1","3NPI0JQDAO6B1PAO1XMHIOTCJOBPTZ","44","0","SEPTEMBER","2",,"0","2","4630",,,,,"0","2018-11-09 16:55:34","383793"
"A2L3TU04PQ346A","cs_wg_mon_single_v1_real1","39N5ACM9HEOSHA1A3RH0ROS0PH99PK","19","0","DECEMBER","4",,"0","10","3278",,,,,"0","2018-11-09 16:55:34","383794"
"A2TGT3EVYQOJ8P","cs_wg_mon_single_v1_real1","3NC5L260MONJXKGMRD4DCK9LIA7FO0","23","0","OCTOBER","6",,"0","6","3896",,,,,"1","2018-11-09 16:55:34","383795"
"A1EIKI2CBBKLEV","cs_wg_mon_single_v1_real1","3JC6VJ2SABK2TJTWBIMMPDY34ZQA5E","14","0","SEPTEMBER","8",,"0","8","3798",,,,,"1","2018-11-09 16:55:35","383796"
"A1335PAW6E5SE2","cs_wg_mon_single_v1_real1","32VNZTT0A75CWHBDZOPYFBHZ47IR4X","29","0","DECEMBER","4",,"0","4","3564",,,,,"1","2018-11-09 16:55:35","383797"
"AV11S93KI37X3","cs_wg_mon_single_v1_real1","3IFS6Q0HJIKI53A5Z2R7ZMWEVR2ISR","17","0","SEPTEMBER","10",,"0","10","2543",,,,,"1","2018-11-09 16:55:35","383798"
"ACP3EPSETF6IY","cs_wg_mon_single_v1_real1","3RXCAC0YIRQMQSP1VGLZXJJX4K4G8Y","12","0","AUGUST","2",,"0","2","2507",,,,,"1","2018-11-09 16:55:35","383799"
"AHJ6FRXMQUDEH","cs_wg_mon_single_v1_real1","3RKNTXVS3MZKX0PWXD3CKLSP43VA49","25","0","DECEMBER","6",,"0","6","2775",,,,,"1","2018-11-09 16:55:36","383800"
"AXPGZD6Q9556W","cs_wg_mon_single_v1_real1","3HFNH7HEMHFSWWPXHA2ZJA4XYQQGQ9","8","0","MARCH","2",,"0","2","2589",,,,,"0","2018-11-09 16:55:38","383801"
"A3QTDX0KPAKU39","cs_wg_mon_single_v1_real1","3Z4XG4ZF48SXCEKRKQL3L5JS7A08XI","2","0","AUGUST","8",,"0","8","7203",,,,,"1","2018-11-09 16:55:38","383802"
"A2LI8283SXAJS9","cs_wg_mon_single_v1_real1","3NPI0JQDAO6B1PAO1XMHIOTCJOBPTZ","45","0","MARCH","10",,"0","10","2172",,,,,"0","2018-11-09 16:55:38","383803"
"A28Q19NTTP0UIQ","cs_wg_mon_single_v1_real1","33M4IA01QG23UJZNJZR3CMEXX2OXRJ","4","0","FEBRUARY","6",,"0","6","3338",,,,,"1","2018-11-09 16:55:38","383804"
"AKVDK30EEV08C","cs_wg_mon_single_v1_real1","3EICBYG644XYTX5FKYM7WI7WM35CJ3","5","0","MAY","6",,"0","6","9210",,,,,"1","2018-11-09 16:55:38","383805"
"AV11S93KI37X3","cs_wg_mon_single_v1_real1","3IFS6Q0HJIKI53A5Z2R7ZMWEVR2ISR","18","0","DECEMBER","12",,"0","12","2387",,,,,"1","2018-11-09 16:55:39","383806"
"A1QRCJFX76DELI","cs_wg_mon_single_v1_real1","3AMYWKA6YBNNERNBQK19IEW8PB4O66","39","0","NOVEMBER","2",,"0","2","5268",,,,,"1","2018-11-09 16:55:39","383807"
"A1335PAW6E5SE2","cs_wg_mon_single_v1_real1","32VNZTT0A75CWHBDZOPYFBHZ47IR4X","30","0","FEBRUARY","2",,"0","2","2737",,,,,"1","2018-11-09 16:55:40","383808"
"A1CFXA3VVC9SNX","cs_wg_mon_single_v1_real1","3PM8NZGV8YH3IIKN6K237W4S1GMQXB","5","0","NOVEMBER","12",,"0","12","3312",,,,,"0","2018-11-09 16:55:40","383809"
"A4IY48GQ4Q2FP","cs_wg_mon_single_v1_real1","3L6L49WXW0YNRUDF2HCVCAC3CPV54Z","1","0","SEPTEMBER","4",,"0","4","4711",,,,,"1","2018-11-09 16:55:40","383810"
"ACP3EPSETF6IY","cs_wg_mon_single_v1_real1","3RXCAC0YIRQMQSP1VGLZXJJX4K4G8Y","13","0","JANUARY","4",,"0","4","2934",,,,,"1","2018-11-09 16:55:40","383811"
"AHJ6FRXMQUDEH","cs_wg_mon_single_v1_real1","3RKNTXVS3MZKX0PWXD3CKLSP43VA49","26","0","DECEMBER","6",,"0","6","2908",,,,,"1","2018-11-09 16:55:41","383812"
"A1EIKI2CBBKLEV","cs_wg_mon_single_v1_real1","3JC6VJ2SABK2TJTWBIMMPDY34ZQA5E","15","0","JANUARY","12",,"0","12","4026",,,,,"1","2018-11-09 16:55:41","383813"
"A2TGT3EVYQOJ8P","cs_wg_mon_single_v1_real1","3NC5L260MONJXKGMRD4DCK9LIA7FO0","24","0","JANUARY","10",,"0","10","3539",,,,,"0","2018-11-09 16:55:41","383814"
"AUZQIVJPQ4DCJ","cs_wg_mon_single_v1_real1","3LKC68YZ3A4L862HH2EDG8VLDDYOW8","13","0","MAY","2",,"0","2","4942",,,,,"1","2018-11-09 16:55:41","383815"
"A18PFPO5K63ZL2","cs_wg_mon_single_v1_real1","3EJJQNKU9R668TZ8EV9H90Q39C5RHK","2","0","SEPTEMBER","4",,"0","4","9317",,,,,"1","2018-11-09 16:55:41","383816"
"A14QBG0BI8BFJ8","cs_wg_mon_single_v1_real1","31LM9EDVOLTHK1269OVLCT18L7JJNS","12","0","MAY","4",,"0","4","8093",,,,,"1","2018-11-09 16:55:42","383817"
"A3DYAUID960LZV","cs_wg_mon_single_v1_real1","3ITXP059PWKE0EUBHKC7BNBE86SJS5","5","0","APRIL","4",,"0","4","6195",,,,,"1","2018-11-09 16:55:42","383818"
"A2LI8283SXAJS9","cs_wg_mon_single_v1_real1","3NPI0JQDAO6B1PAO1XMHIOTCJOBPTZ","46","0","JANUARY","12",,"0","12","2264",,,,,"0","2018-11-09 16:55:42","383819"
"A3AL6CS7BIZWNB","cs_wg_mon_single_v1_real1","3NJM2BJS4W7UF88DFBRRTET8V2CCP4","11","0","SEPTEMBER","6",,"0","6","9809",,,,,"1","2018-11-09 16:55:42","383820"
"A2L3TU04PQ346A","cs_wg_mon_single_v1_real1","39N5ACM9HEOSHA1A3RH0ROS0PH99PK","20","0","APRIL","6",,"0","6","6688",,,,,"1","2018-11-09 16:55:43","383821"
"AG1T80T4ZP5ZX","cs_wg_mon_single_v1_real1","3W2LOLRXLBGXAJ0GKGCEMS6V1T9KRH","4","0","MAY","10",,"0","10","32146",,,,,"1","2018-11-09 16:55:43","383822"
"AV11S93KI37X3","cs_wg_mon_single_v1_real1","3IFS6Q0HJIKI53A5Z2R7ZMWEVR2ISR","19","0","MARCH","4",,"0","4","3187",,,,,"1","2018-11-09 16:55:44","383823"
"A1QRCJFX76DELI","cs_wg_mon_single_v1_real1","3AMYWKA6YBNNERNBQK19IEW8PB4O66","40","0","OCTOBER","10",,"0","10","3015",,,,,"0","2018-11-09 16:55:44","383824"
"A239JNU2N6RC4U","cs_wg_mon_single_v1_real1","3TMSXRD2X610CEVGB0G24CIDK2OW1T","0","0","JANUARY","10",,"0","10","6266",,,,,"1","2018-11-09 16:55:44","383825"
"A1335PAW6E5SE2","cs_wg_mon_single_v1_real1","32VNZTT0A75CWHBDZOPYFBHZ47IR4X","31","0","DECEMBER","4",,"0","4","2742",,,,,"1","2018-11-09 16:55:44","383826"
"AYW016I0MGCB7","cs_wg_mon_single_v1_real1","3DZQRBDBSLG3F0SMEZKKVGUPC963SD","19","0","AUGUST","2",,"0","2","10765",,,,,"1","2018-11-09 16:55:45","383827"
"ACP3EPSETF6IY","cs_wg_mon_single_v1_real1","3RXCAC0YIRQMQSP1VGLZXJJX4K4G8Y","14","0","DECEMBER","8",,"0","8","2781",,,,,"1","2018-11-09 16:55:45","383828"
"A2LI8283SXAJS9","cs_wg_mon_single_v1_real1","3NPI0JQDAO6B1PAO1XMHIOTCJOBPTZ","47","0","OCTOBER","12",,"0","12","1452",,,,,"0","2018-11-09 16:55:45","383829"
"A1EIKI2CBBKLEV","cs_wg_mon_single_v1_real1","3JC6VJ2SABK2TJTWBIMMPDY34ZQA5E","16","0","JANUARY","12",,"0","12","3157",,,,,"1","2018-11-09 16:55:46","383830"
"A28Q19NTTP0UIQ","cs_wg_mon_single_v1_real1","33M4IA01QG23UJZNJZR3CMEXX2OXRJ","5","0","APRIL","6",,"0","6","5196",,,,,"0","2018-11-09 16:55:46","383831"
"AKVDK30EEV08C","cs_wg_mon_single_v1_real1","3EICBYG644XYTX5FKYM7WI7WM35CJ3","6","0","JANUARY","10",,"0","10","5124",,,,,"1","2018-11-09 16:55:46","383832"
"AHJ6FRXMQUDEH","cs_wg_mon_single_v1_real1","3RKNTXVS3MZKX0PWXD3CKLSP43VA49","27","0","MAY","10",,"0","10","3691",,,,,"1","2018-11-09 16:55:46","383833"
"A3QTDX0KPAKU39","cs_wg_mon_single_v1_real1","3Z4XG4ZF48SXCEKRKQL3L5JS7A08XI","3","0","OCTOBER","6",,"0","6","6114",,,,,"1","2018-11-09 16:55:47","383834"
"A1QRCJFX76DELI","cs_wg_mon_single_v1_real1","3AMYWKA6YBNNERNBQK19IEW8PB4O66","41","0","SEPTEMBER","8",,"0","8","1752",,,,,"0","2018-11-09 16:55:48","383835"
"A4IY48GQ4Q2FP","cs_wg_mon_single_v1_real1","3L6L49WXW0YNRUDF2HCVCAC3CPV54Z","2","0","JANUARY","8",,"0","8","5463",,,,,"1","2018-11-09 16:55:48","383836"
"AUZQIVJPQ4DCJ","cs_wg_mon_single_v1_real1","3LKC68YZ3A4L862HH2EDG8VLDDYOW8","14","0","DECEMBER","2",,"0","2","4764",,,,,"1","2018-11-09 16:55:49","383837"
"ACP3EPSETF6IY","cs_wg_mon_single_v1_real1","3RXCAC0YIRQMQSP1VGLZXJJX4K4G8Y","15","0","AUGUST","2",,"0","2","2738",,,,,"1","2018-11-09 16:55:49","383838"
"A2TGT3EVYQOJ8P","cs_wg_mon_single_v1_real1","3NC5L260MONJXKGMRD4DCK9LIA7FO0","25","0","MARCH","4",,"0","4","6471",,,,,"1","2018-11-09 16:55:49","383839"
"A1CFXA3VVC9SNX","cs_wg_mon_single_v1_real1","3PM8NZGV8YH3IIKN6K237W4S1GMQXB","6","0","MAY","4",,"0","4","7421",,,,,"1","2018-11-09 16:55:50","383840"
"A2LI8283SXAJS9","cs_wg_mon_single_v1_real1","3NPI0JQDAO6B1PAO1XMHIOTCJOBPTZ","48","0","MAY","6",,"0","6","2418",,,,,"0","2018-11-09 16:55:50","383841"
"AXPGZD6Q9556W","cs_wg_mon_single_v1_real1","3HFNH7HEMHFSWWPXHA2ZJA4XYQQGQ9","9","0","SEPTEMBER","12",,"0","12","6743",,,,,"1","2018-11-09 16:55:50","383842"
"A3AL6CS7BIZWNB","cs_wg_mon_single_v1_real1","3NJM2BJS4W7UF88DFBRRTET8V2CCP4","12","0","JANUARY","6",,"0","6","5406",,,,,"1","2018-11-09 16:55:50","383843"
"A3DYAUID960LZV","cs_wg_mon_single_v1_real1","3ITXP059PWKE0EUBHKC7BNBE86SJS5","6","0","JUNE","6",,"0","6","5492",,,,,"1","2018-11-09 16:55:50","383844"
"AV11S93KI37X3","cs_wg_mon_single_v1_real1","3IFS6Q0HJIKI53A5Z2R7ZMWEVR2ISR","20","0","FEBRUARY","10",,"0","10","4303",,,,,"1","2018-11-09 16:55:50","383845"
"A14E4UOQDV9O7O","cs_wg_mon_single_v1_real1","3NVC2EB65Q00BM4VD5C9D2IQTU2Y3M","7","0","MARCH","6",,"0","6","10450",,,,,"1","2018-11-09 16:55:50","383846"
"A18PFPO5K63ZL2","cs_wg_mon_single_v1_real1","3EJJQNKU9R668TZ8EV9H90Q39C5RHK","3","0","MARCH","8",,"0","8","7661",,,,,"1","2018-11-09 16:55:51","383847"
"A28Q19NTTP0UIQ","cs_wg_mon_single_v1_real1","33M4IA01QG23UJZNJZR3CMEXX2OXRJ","6","0","SEPTEMBER","10",,"0","10","3551",,,,,"0","2018-11-09 16:55:51","383848"
"A14QBG0BI8BFJ8","cs_wg_mon_single_v1_real1","31LM9EDVOLTHK1269OVLCT18L7JJNS","13","0","FEBRUARY","8",,"0","8","8097",,,,,"1","2018-11-09 16:55:52","383849"
"AYW016I0MGCB7","cs_wg_mon_single_v1_real1","3DZQRBDBSLG3F0SMEZKKVGUPC963SD","20","0","NOVEMBER","6",,"0","6","5194",,,,,"1","2018-11-09 16:55:52","383850"
"A1QRCJFX76DELI","cs_wg_mon_single_v1_real1","3AMYWKA6YBNNERNBQK19IEW8PB4O66","42","0","OCTOBER","10",,"0","10","2514",,,,,"0","2018-11-09 16:55:52","383851"
"AHJ6FRXMQUDEH","cs_wg_mon_single_v1_real1","3RKNTXVS3MZKX0PWXD3CKLSP43VA49","28","0","MARCH","10",,"0","10","3441",,,,,"1","2018-11-09 16:55:52","383852"
"A2L3TU04PQ346A","cs_wg_mon_single_v1_real1","39N5ACM9HEOSHA1A3RH0ROS0PH99PK","21","0","AUGUST","6",,"0","6","7460",,,,,"1","2018-11-09 16:55:52","383853"
"A1EIKI2CBBKLEV","cs_wg_mon_single_v1_real1","3JC6VJ2SABK2TJTWBIMMPDY34ZQA5E","17","0","AUGUST","4",,"0","4","4944",,,,,"1","2018-11-09 16:55:52","383854"
"A239JNU2N6RC4U","cs_wg_mon_single_v1_real1","3TMSXRD2X610CEVGB0G24CIDK2OW1T","1","0","MAY","10",,"0","10","5654",,,,,"1","2018-11-09 16:55:53","383855"
"A1335PAW6E5SE2","cs_wg_mon_single_v1_real1","32VNZTT0A75CWHBDZOPYFBHZ47IR4X","32","0","OCTOBER","12",,"0","12","5110",,,,,"1","2018-11-09 16:55:54","383856"
"A2LI8283SXAJS9","cs_wg_mon_single_v1_real1","3NPI0JQDAO6B1PAO1XMHIOTCJOBPTZ","49","0","FEBRUARY","10",,"0","10","2711",,,,,"0","2018-11-09 16:55:54","383857"
"AKVDK30EEV08C","cs_wg_mon_single_v1_real1","3EICBYG644XYTX5FKYM7WI7WM35CJ3","7","0","AUGUST","4",,"0","4","5950",,,,,"1","2018-11-09 16:55:55","383858"
"ACP3EPSETF6IY","cs_wg_mon_single_v1_real1","3RXCAC0YIRQMQSP1VGLZXJJX4K4G8Y","16","0","MARCH","6",,"0","6","3225",,,,,"1","2018-11-09 16:55:55","383859"
"AUZQIVJPQ4DCJ","cs_wg_mon_single_v1_real1","3LKC68YZ3A4L862HH2EDG8VLDDYOW8","15","0","FEBRUARY","10",,"0","10","4275",,,,,"1","2018-11-09 16:55:55","383860"
"AXPGZD6Q9556W","cs_wg_mon_single_v1_real1","3HFNH7HEMHFSWWPXHA2ZJA4XYQQGQ9","10","0","OCTOBER","12",,"0","10","3287",,,,,"0","2018-11-09 16:55:55","383861"
"A1CFXA3VVC9SNX","cs_wg_mon_single_v1_real1","3PM8NZGV8YH3IIKN6K237W4S1GMQXB","7","0","JULY","6",,"0","6","2885",,,,,"0","2018-11-09 16:55:55","383862"
"AV11S93KI37X3","cs_wg_mon_single_v1_real1","3IFS6Q0HJIKI53A5Z2R7ZMWEVR2ISR","21","0","MARCH","4",,"0","4","3325",,,,,"1","2018-11-09 16:55:56","383863"
"A2TGT3EVYQOJ8P","cs_wg_mon_single_v1_real1","3NC5L260MONJXKGMRD4DCK9LIA7FO0","26","0","NOVEMBER","10",,"0","10","4217",,,,,"1","2018-11-09 16:55:56","383864"
"A1N8YQYYDOXP74","cs_wg_mon_single_v1_real1","3OLF68YTN92UVGMLHUZVBPPGTT5AFY","0","0","AUGUST","6",,"0","6","9772",,,,,"1","2018-11-09 16:55:56","383865"
"AYW016I0MGCB7","cs_wg_mon_single_v1_real1","3DZQRBDBSLG3F0SMEZKKVGUPC963SD","21","0","JUNE","2",,"0","2","2794",,,,,"0","2018-11-09 16:55:56","383866"
"A1QRCJFX76DELI","cs_wg_mon_single_v1_real1","3AMYWKA6YBNNERNBQK19IEW8PB4O66","43","0","FEBRUARY","2",,"0","2","3192",,,,,"0","2018-11-09 16:55:57","383867"
"A3QTDX0KPAKU39","cs_wg_mon_single_v1_real1","3Z4XG4ZF48SXCEKRKQL3L5JS7A08XI","4","0","JUNE","10",,"0","10","8434",,,,,"1","2018-11-09 16:55:57","383868"
"AHJ6FRXMQUDEH","cs_wg_mon_single_v1_real1","3RKNTXVS3MZKX0PWXD3CKLSP43VA49","29","0","SEPTEMBER","12",,"0","12","3247",,,,,"1","2018-11-09 16:55:58","383869"
"A3DYAUID960LZV","cs_wg_mon_single_v1_real1","3ITXP059PWKE0EUBHKC7BNBE86SJS5","7","0","SEPTEMBER","2",,"0","2","5235",,,,,"0","2018-11-09 16:55:58","383870"
"A3AL6CS7BIZWNB","cs_wg_mon_single_v1_real1","3NJM2BJS4W7UF88DFBRRTET8V2CCP4","13","0","AUGUST","8",,"0","8","4837",,,,,"1","2018-11-09 16:55:58","383871"
"A2L3TU04PQ346A","cs_wg_mon_single_v1_real1","39N5ACM9HEOSHA1A3RH0ROS0PH99PK","22","0","APRIL","6",,"0","6","3859",,,,,"1","2018-11-09 16:55:58","383872"
"A28Q19NTTP0UIQ","cs_wg_mon_single_v1_real1","33M4IA01QG23UJZNJZR3CMEXX2OXRJ","7","0","DECEMBER","10",,"0","10","3783",,,,,"1","2018-11-09 16:55:58","383873"
"A1EIKI2CBBKLEV","cs_wg_mon_single_v1_real1","3JC6VJ2SABK2TJTWBIMMPDY34ZQA5E","18","0","MARCH","8",,"0","8","4234",,,,,"1","2018-11-09 16:55:59","383874"
"A2LI8283SXAJS9","cs_wg_mon_single_v1_real1","3NPI0JQDAO6B1PAO1XMHIOTCJOBPTZ","50","0","NOVEMBER","4",,"0","4","2605",,,,,"0","2018-11-09 16:55:59","383875"
"A1CFXA3VVC9SNX","cs_wg_mon_single_v1_real1","3PM8NZGV8YH3IIKN6K237W4S1GMQXB","8","0","JULY","6",,"0","6","2151",,,,,"0","2018-11-09 16:56:00","383876"
"A1QRCJFX76DELI","cs_wg_mon_single_v1_real1","3AMYWKA6YBNNERNBQK19IEW8PB4O66","44","0","JUNE","8",,"0","6","1782",,,,,"0","2018-11-09 16:56:00","383877"
"AXPGZD6Q9556W","cs_wg_mon_single_v1_real1","3HFNH7HEMHFSWWPXHA2ZJA4XYQQGQ9","11","0","SEPTEMBER","12",,"0","12","3023",,,,,"0","2018-11-09 16:56:00","383878"
"ACP3EPSETF6IY","cs_wg_mon_single_v1_real1","3RXCAC0YIRQMQSP1VGLZXJJX4K4G8Y","17","0","SEPTEMBER","4",,"0","4","3644",,,,,"1","2018-11-09 16:56:00","383879"
"A14QBG0BI8BFJ8","cs_wg_mon_single_v1_real1","31LM9EDVOLTHK1269OVLCT18L7JJNS","14","0","JUNE","10",,"0","10","7153",,,,,"1","2018-11-09 16:56:01","383880"
"A239JNU2N6RC4U","cs_wg_mon_single_v1_real1","3TMSXRD2X610CEVGB0G24CIDK2OW1T","2","0","MARCH","6",,"0","6","5675",,,,,"1","2018-11-09 16:56:01","383881"
"AV11S93KI37X3","cs_wg_mon_single_v1_real1","3IFS6Q0HJIKI53A5Z2R7ZMWEVR2ISR","22","0","JULY","8",,"0","8","3588",,,,,"1","2018-11-09 16:56:01","383882"
"AUZQIVJPQ4DCJ","cs_wg_mon_single_v1_real1","3LKC68YZ3A4L862HH2EDG8VLDDYOW8","16","0","FEBRUARY","10",,"0","10","3975",,,,,"1","2018-11-09 16:56:02","383883"
"A2L3TU04PQ346A","cs_wg_mon_single_v1_real1","39N5ACM9HEOSHA1A3RH0ROS0PH99PK","23","0","JULY","2",,"0","2","2178",,,,,"0","2018-11-09 16:56:02","383884"
"A2LI8283SXAJS9","cs_wg_mon_single_v1_real1","3NPI0JQDAO6B1PAO1XMHIOTCJOBPTZ","51","0","OCTOBER","12",,"0","12","1622",,,,,"0","2018-11-09 16:56:02","383885"
"A2TGT3EVYQOJ8P","cs_wg_mon_single_v1_real1","3NC5L260MONJXKGMRD4DCK9LIA7FO0","27","0","JUNE","8",,"0","8","4128",,,,,"1","2018-11-09 16:56:02","383886"
"A3QTDX0KPAKU39","cs_wg_mon_single_v1_real1","3Z4XG4ZF48SXCEKRKQL3L5JS7A08XI","5","0","SEPTEMBER","4",,"0","4","3914",,,,,"1","2018-11-09 16:56:03","383887"
"A2OBH6UQ8KXVIV","cs_wg_mon_single_v1_real1","3TY7ZAOG5FL9APGHQ3TZ2W58S3A0KZ","0","0","AUGUST","10",,"0","10","10939",,,,,"1","2018-11-09 16:56:03","383888"
"A14E4UOQDV9O7O","cs_wg_mon_single_v1_real1","3NVC2EB65Q00BM4VD5C9D2IQTU2Y3M","8","0","AUGUST","10",,"0","10","10036",,,,,"1","2018-11-09 16:56:03","383889"
"AKVDK30EEV08C","cs_wg_mon_single_v1_real1","3EICBYG644XYTX5FKYM7WI7WM35CJ3","8","0","DECEMBER","2",,"0","2","6267",,,,,"1","2018-11-09 16:56:03","383890"
"AHJ6FRXMQUDEH","cs_wg_mon_single_v1_real1","3RKNTXVS3MZKX0PWXD3CKLSP43VA49","30","0","MARCH","10",,"0","10","3688",,,,,"1","2018-11-09 16:56:03","383891"
"A1335PAW6E5SE2","cs_wg_mon_single_v1_real1","32VNZTT0A75CWHBDZOPYFBHZ47IR4X","33","0","JANUARY","8",,"0","8","4284",,,,,"0","2018-11-09 16:56:04","383892"
"A1QRCJFX76DELI","cs_wg_mon_single_v1_real1","3AMYWKA6YBNNERNBQK19IEW8PB4O66","45","0","JULY","10",,"0","4","1932",,,,,"0","2018-11-09 16:56:04","383893"
"AYW016I0MGCB7","cs_wg_mon_single_v1_real1","3DZQRBDBSLG3F0SMEZKKVGUPC963SD","22","0","APRIL","8",,"0","8","4793",,,,,"1","2018-11-09 16:56:04","383894"
"A3DYAUID960LZV","cs_wg_mon_single_v1_real1","3ITXP059PWKE0EUBHKC7BNBE86SJS5","8","0","APRIL","4",,"0","4","3948",,,,,"0","2018-11-09 16:56:04","383895"
"A28Q19NTTP0UIQ","cs_wg_mon_single_v1_real1","33M4IA01QG23UJZNJZR3CMEXX2OXRJ","8","0","DECEMBER","10",,"0","10","3681",,,,,"0","2018-11-09 16:56:05","383896"
"A1EIKI2CBBKLEV","cs_wg_mon_single_v1_real1","3JC6VJ2SABK2TJTWBIMMPDY34ZQA5E","19","0","MAY","2",,"0","2","4998",,,,,"1","2018-11-09 16:56:05","383897"
"A4IY48GQ4Q2FP","cs_wg_mon_single_v1_real1","3L6L49WXW0YNRUDF2HCVCAC3CPV54Z","3","0","NOVEMBER","6",,"0","6","15416",,,,,"1","2018-11-09 16:56:06","383898"
"ACP3EPSETF6IY","cs_wg_mon_single_v1_real1","3RXCAC0YIRQMQSP1VGLZXJJX4K4G8Y","18","0","FEBRUARY","10",,"0","10","3630",,,,,"1","2018-11-09 16:56:06","383899"
"A1N8YQYYDOXP74","cs_wg_mon_single_v1_real1","3OLF68YTN92UVGMLHUZVBPPGTT5AFY","1","0","NOVEMBER","2",,"0","2","7240",,,,,"1","2018-11-09 16:56:06","383900"
"AV11S93KI37X3","cs_wg_mon_single_v1_real1","3IFS6Q0HJIKI53A5Z2R7ZMWEVR2ISR","23","0","OCTOBER","12",,"0","12","3125",,,,,"1","2018-11-09 16:56:06","383901"
"A3AL6CS7BIZWNB","cs_wg_mon_single_v1_real1","3NJM2BJS4W7UF88DFBRRTET8V2CCP4","14","0","NOVEMBER","12",,"0","12","6326",,,,,"1","2018-11-09 16:56:07","383902"
"A1QRCJFX76DELI","cs_wg_mon_single_v1_real1","3AMYWKA6YBNNERNBQK19IEW8PB4O66","46","0","JUNE","8",,"0","8","1647",,,,,"0","2018-11-09 16:56:07","383903"
"A2L3TU04PQ346A","cs_wg_mon_single_v1_real1","39N5ACM9HEOSHA1A3RH0ROS0PH99PK","24","0","FEBRUARY","10",,"0","12","2621",,,,,"0","2018-11-09 16:56:07","383904"
"A2LI8283SXAJS9","cs_wg_mon_single_v1_real1","3NPI0JQDAO6B1PAO1XMHIOTCJOBPTZ","52","0","MAY","6",,"0","6","3187",,,,,"0","2018-11-09 16:56:07","383905"
"A239JNU2N6RC4U","cs_wg_mon_single_v1_real1","3TMSXRD2X610CEVGB0G24CIDK2OW1T","3","0","JANUARY","10",,"0","10","4179",,,,,"0","2018-11-09 16:56:08","383906"
"A14QBG0BI8BFJ8","cs_wg_mon_single_v1_real1","31LM9EDVOLTHK1269OVLCT18L7JJNS","15","0","JANUARY","12",,"0","12","4991",,,,,"1","2018-11-09 16:56:08","383907"
"A3DYAUID960LZV","cs_wg_mon_single_v1_real1","3ITXP059PWKE0EUBHKC7BNBE86SJS5","9","0","SEPTEMBER","2",,"0","2","2715",,,,,"0","2018-11-09 16:56:08","383908"
"AHJ6FRXMQUDEH","cs_wg_mon_single_v1_real1","3RKNTXVS3MZKX0PWXD3CKLSP43VA49","31","0","APRIL","8",,"0","8","2873",,,,,"1","2018-11-09 16:56:09","383909"
"A1335PAW6E5SE2","cs_wg_mon_single_v1_real1","32VNZTT0A75CWHBDZOPYFBHZ47IR4X","34","0","JANUARY","8",,"0","8","3038",,,,,"0","2018-11-09 16:56:09","383910"
"AUZQIVJPQ4DCJ","cs_wg_mon_single_v1_real1","3LKC68YZ3A4L862HH2EDG8VLDDYOW8","17","0","NOVEMBER","12",,"0","12","4542",,,,,"1","2018-11-09 16:56:09","383911"
"A2TGT3EVYQOJ8P","cs_wg_mon_single_v1_real1","3NC5L260MONJXKGMRD4DCK9LIA7FO0","28","0","APRIL","2",,"0","2","4432",,,,,"1","2018-11-09 16:56:09","383912"
"A1CFXA3VVC9SNX","cs_wg_mon_single_v1_real1","3PM8NZGV8YH3IIKN6K237W4S1GMQXB","9","0","JUNE","6",,"0","6","7156",,,,,"1","2018-11-09 16:56:09","383913"
"A3QTDX0KPAKU39","cs_wg_mon_single_v1_real1","3Z4XG4ZF48SXCEKRKQL3L5JS7A08XI","6","0","JUNE","10",,"0","10","3524",,,,,"0","2018-11-09 16:56:09","383914"
"A2LI8283SXAJS9","cs_wg_mon_single_v1_real1","3NPI0JQDAO6B1PAO1XMHIOTCJOBPTZ","53","0","JUNE","8",,"0","8","1983",,,,,"0","2018-11-09 16:56:11","383915"
"AV11S93KI37X3","cs_wg_mon_single_v1_real1","3IFS6Q0HJIKI53A5Z2R7ZMWEVR2ISR","24","0","MARCH","4",,"0","4","2894",,,,,"1","2018-11-09 16:56:11","383916"
"A28Q19NTTP0UIQ","cs_wg_mon_single_v1_real1","33M4IA01QG23UJZNJZR3CMEXX2OXRJ","9","0","OCTOBER","2",,"0","2","4163",,,,,"1","2018-11-09 16:56:11","383917"
"AKVDK30EEV08C","cs_wg_mon_single_v1_real1","3EICBYG644XYTX5FKYM7WI7WM35CJ3","9","0","JULY","6",,"0","6","6961",,,,,"1","2018-11-09 16:56:12","383918"
"A3AL6CS7BIZWNB","cs_wg_mon_single_v1_real1","3NJM2BJS4W7UF88DFBRRTET8V2CCP4","15","0","JULY","12",,"0","12","3086",,,,,"0","2018-11-09 16:56:12","383919"
"A1335PAW6E5SE2","cs_wg_mon_single_v1_real1","32VNZTT0A75CWHBDZOPYFBHZ47IR4X","35","0","FEBRUARY","2",,"0","2","1860",,,,,"0","2018-11-09 16:56:13","383920"
"AYW016I0MGCB7","cs_wg_mon_single_v1_real1","3DZQRBDBSLG3F0SMEZKKVGUPC963SD","23","0","MARCH","4",,"0","4","6691",,,,,"1","2018-11-09 16:56:13","383921"
"A18PFPO5K63ZL2","cs_wg_mon_single_v1_real1","3EJJQNKU9R668TZ8EV9H90Q39C5RHK","4","0","AUGUST","2",,"0","2","19531",,,,,"1","2018-11-09 16:56:13","383922"
"AHJ6FRXMQUDEH","cs_wg_mon_single_v1_real1","3RKNTXVS3MZKX0PWXD3CKLSP43VA49","32","0","NOVEMBER","2",,"0","2","2720",,,,,"1","2018-11-09 16:56:13","383923"
"A14E4UOQDV9O7O","cs_wg_mon_single_v1_real1","3NVC2EB65Q00BM4VD5C9D2IQTU2Y3M","9","0","MAY","8",,"0","8","8233",,,,,"1","2018-11-09 16:56:14","383924"
"ACP3EPSETF6IY","cs_wg_mon_single_v1_real1","3RXCAC0YIRQMQSP1VGLZXJJX4K4G8Y","19","0","OCTOBER","6",,"0","6","4306",,,,,"1","2018-11-09 16:56:14","383925"
"A2L3TU04PQ346A","cs_wg_mon_single_v1_real1","39N5ACM9HEOSHA1A3RH0ROS0PH99PK","25","0","DECEMBER","4",,"0","4","4684",,,,,"0","2018-11-09 16:56:14","383926"
"A1QRCJFX76DELI","cs_wg_mon_single_v1_real1","3AMYWKA6YBNNERNBQK19IEW8PB4O66","47","0","NOVEMBER","2",,"0","2","5099",,,,,"0","2018-11-09 16:56:14","383927"
"A1EIKI2CBBKLEV","cs_wg_mon_single_v1_real1","3JC6VJ2SABK2TJTWBIMMPDY34ZQA5E","20","0","FEBRUARY","6",,"0","6","6245",,,,,"1","2018-11-09 16:56:14","383928"
"A4IY48GQ4Q2FP","cs_wg_mon_single_v1_real1","3L6L49WXW0YNRUDF2HCVCAC3CPV54Z","4","0","APRIL","4",,"0","4","6333",,,,,"1","2018-11-09 16:56:14","383929"
"AXPGZD6Q9556W","cs_wg_mon_single_v1_real1","3HFNH7HEMHFSWWPXHA2ZJA4XYQQGQ9","12","0","APRIL","8",,"0","8","5244",,,,,"1","2018-11-09 16:56:14","383930"
"AUZQIVJPQ4DCJ","cs_wg_mon_single_v1_real1","3LKC68YZ3A4L862HH2EDG8VLDDYOW8","18","0","DECEMBER","2",,"0","2","4081",,,,,"1","2018-11-09 16:56:15","383931"
"A2LI8283SXAJS9","cs_wg_mon_single_v1_real1","3NPI0JQDAO6B1PAO1XMHIOTCJOBPTZ","54","0","JANUARY","12",,"0","12","2350",,,,,"0","2018-11-09 16:56:15","383932"
"A239JNU2N6RC4U","cs_wg_mon_single_v1_real1","3TMSXRD2X610CEVGB0G24CIDK2OW1T","4","0","NOVEMBER","8",,"0","8","5250",,,,,"1","2018-11-09 16:56:15","383933"
"A2TGT3EVYQOJ8P","cs_wg_mon_single_v1_real1","3NC5L260MONJXKGMRD4DCK9LIA7FO0","29","0","OCTOBER","6",,"0","6","4969",,,,,"1","2018-11-09 16:56:16","383934"
"A28Q19NTTP0UIQ","cs_wg_mon_single_v1_real1","33M4IA01QG23UJZNJZR3CMEXX2OXRJ","10","0","DECEMBER","10",,"0","10","3019",,,,,"0","2018-11-09 16:56:16","383935"
"A1QRCJFX76DELI","cs_wg_mon_single_v1_real1","3AMYWKA6YBNNERNBQK19IEW8PB4O66","48","0","APRIL","4",,"0","4","1382",,,,,"0","2018-11-09 16:56:17","383936"
"A3QTDX0KPAKU39","cs_wg_mon_single_v1_real1","3Z4XG4ZF48SXCEKRKQL3L5JS7A08XI","7","0","OCTOBER","6",,"0","6","6122",,,,,"0","2018-11-09 16:56:18","383937"
"AYW016I0MGCB7","cs_wg_mon_single_v1_real1","3DZQRBDBSLG3F0SMEZKKVGUPC963SD","24","0","DECEMBER","12",,"0","12","3009",,,,,"1","2018-11-09 16:56:18","383938"
"A1335PAW6E5SE2","cs_wg_mon_single_v1_real1","32VNZTT0A75CWHBDZOPYFBHZ47IR4X","36","0","DECEMBER","4",,"0","4","3116",,,,,"0","2018-11-09 16:56:18","383939"
"AV11S93KI37X3","cs_wg_mon_single_v1_real1","3IFS6Q0HJIKI53A5Z2R7ZMWEVR2ISR","25","0","JANUARY","2",,"0","2","5005",,,,,"1","2018-11-09 16:56:18","383940"
"A18PFPO5K63ZL2","cs_wg_mon_single_v1_real1","3EJJQNKU9R668TZ8EV9H90Q39C5RHK","5","0","AUGUST","2",,"0","2","3734",,,,,"1","2018-11-09 16:56:18","383941"
"AHJ6FRXMQUDEH","cs_wg_mon_single_v1_real1","3RKNTXVS3MZKX0PWXD3CKLSP43VA49","33","0","JULY","12",,"0","12","3026",,,,,"1","2018-11-09 16:56:18","383942"
"A2L3TU04PQ346A","cs_wg_mon_single_v1_real1","39N5ACM9HEOSHA1A3RH0ROS0PH99PK","26","0","OCTOBER","8",,"0","8","3553",,,,,"1","2018-11-09 16:56:19","383943"
"A2LI8283SXAJS9","cs_wg_mon_single_v1_real1","3NPI0JQDAO6B1PAO1XMHIOTCJOBPTZ","55","0","JULY","8",,"0","8","1973",,,,,"0","2018-11-09 16:56:19","383944"
"A4IY48GQ4Q2FP","cs_wg_mon_single_v1_real1","3L6L49WXW0YNRUDF2HCVCAC3CPV54Z","5","0","SEPTEMBER","4",,"0","4","3707",,,,,"1","2018-11-09 16:56:20","383945"
"AUZQIVJPQ4DCJ","cs_wg_mon_single_v1_real1","3LKC68YZ3A4L862HH2EDG8VLDDYOW8","19","0","SEPTEMBER","4",,"0","4","3713",,,,,"1","2018-11-09 16:56:21","383946"
"A14QBG0BI8BFJ8","cs_wg_mon_single_v1_real1","31LM9EDVOLTHK1269OVLCT18L7JJNS","16","0","AUGUST","2",,"0","2","7711",,,,,"1","2018-11-09 16:56:21","383947"
"A1QRCJFX76DELI","cs_wg_mon_single_v1_real1","3AMYWKA6YBNNERNBQK19IEW8PB4O66","49","0","JUNE","8",,"0","10","2185",,,,,"0","2018-11-09 16:56:21","383948"
"ACP3EPSETF6IY","cs_wg_mon_single_v1_real1","3RXCAC0YIRQMQSP1VGLZXJJX4K4G8Y","20","0","MAY","10",,"0","10","5188",,,,,"1","2018-11-09 16:56:21","383949"
"AKVDK30EEV08C","cs_wg_mon_single_v1_real1","3EICBYG644XYTX5FKYM7WI7WM35CJ3","10","0","MAY","6",,"0","6","5338",,,,,"1","2018-11-09 16:56:21","383950"
"A2OBH6UQ8KXVIV","cs_wg_mon_single_v1_real1","3TY7ZAOG5FL9APGHQ3TZ2W58S3A0KZ","1","0","APRIL","12",,"0","12","15025",,,,,"1","2018-11-09 16:56:22","383951"
"A1CFXA3VVC9SNX","cs_wg_mon_single_v1_real1","3PM8NZGV8YH3IIKN6K237W4S1GMQXB","10","0","AUGUST","12",,"0","12","9555",,,,,"1","2018-11-09 16:56:22","383952"
"A28Q19NTTP0UIQ","cs_wg_mon_single_v1_real1","33M4IA01QG23UJZNJZR3CMEXX2OXRJ","11","0","JANUARY","2",,"0","2","3799",,,,,"1","2018-11-09 16:56:23","383953"
"AV11S93KI37X3","cs_wg_mon_single_v1_real1","3IFS6Q0HJIKI53A5Z2R7ZMWEVR2ISR","26","0","OCTOBER","12",,"0","12","2996",,,,,"1","2018-11-09 16:56:23","383954"
"A239JNU2N6RC4U","cs_wg_mon_single_v1_real1","3TMSXRD2X610CEVGB0G24CIDK2OW1T","5","0","NOVEMBER","8",,"0","8","4992",,,,,"0","2018-11-09 16:56:23","383955"
"A1N8YQYYDOXP74","cs_wg_mon_single_v1_real1","3OLF68YTN92UVGMLHUZVBPPGTT5AFY","2","0","DECEMBER","4",,"0","4","14150",,,,,"1","2018-11-09 16:56:23","383956"
"A3AL6CS7BIZWNB","cs_wg_mon_single_v1_real1","3NJM2BJS4W7UF88DFBRRTET8V2CCP4","16","0","FEBRUARY","10",,"0","10","7620",,,,,"1","2018-11-09 16:56:23","383957"
"AYW016I0MGCB7","cs_wg_mon_single_v1_real1","3DZQRBDBSLG3F0SMEZKKVGUPC963SD","25","0","JANUARY","6",,"0","6","3397",,,,,"1","2018-11-09 16:56:23","383958"
"A2LI8283SXAJS9","cs_wg_mon_single_v1_real1","3NPI0JQDAO6B1PAO1XMHIOTCJOBPTZ","56","0","MAY","6",,"0","6","2400",,,,,"0","2018-11-09 16:56:23","383959"
"A14E4UOQDV9O7O","cs_wg_mon_single_v1_real1","3NVC2EB65Q00BM4VD5C9D2IQTU2Y3M","10","0","SEPTEMBER","6",,"0","6","7872",,,,,"1","2018-11-09 16:56:24","383960"
"AHJ6FRXMQUDEH","cs_wg_mon_single_v1_real1","3RKNTXVS3MZKX0PWXD3CKLSP43VA49","34","0","SEPTEMBER","12",,"0","12","2741",,,,,"0","2018-11-09 16:56:24","383961"
"A18PFPO5K63ZL2","cs_wg_mon_single_v1_real1","3EJJQNKU9R668TZ8EV9H90Q39C5RHK","6","0","MAY","4",,"0","4","3730",,,,,"1","2018-11-09 16:56:24","383962"
"A2L3TU04PQ346A","cs_wg_mon_single_v1_real1","39N5ACM9HEOSHA1A3RH0ROS0PH99PK","27","0","JUNE","12",,"0","12","2870",,,,,"1","2018-11-09 16:56:24","383963"
"A1QRCJFX76DELI","cs_wg_mon_single_v1_real1","3AMYWKA6YBNNERNBQK19IEW8PB4O66","50","0","OCTOBER","10",,"0","10","1902",,,,,"0","2018-11-09 16:56:24","383964"
"A1EIKI2CBBKLEV","cs_wg_mon_single_v1_real1","3JC6VJ2SABK2TJTWBIMMPDY34ZQA5E","21","0","JUNE","2",,"0","2","9281",,,,,"1","2018-11-09 16:56:26","383965"
"A2TGT3EVYQOJ8P","cs_wg_mon_single_v1_real1","3NC5L260MONJXKGMRD4DCK9LIA7FO0","30","0","DECEMBER","12",,"0","12","7754",,,,,"1","2018-11-09 16:56:26","383966"
"A4IY48GQ4Q2FP","cs_wg_mon_single_v1_real1","3L6L49WXW0YNRUDF2HCVCAC3CPV54Z","6","0","MARCH","12",,"0","12","3739",,,,,"1","2018-11-09 16:56:26","383967"
"ACP3EPSETF6IY","cs_wg_mon_single_v1_real1","3RXCAC0YIRQMQSP1VGLZXJJX4K4G8Y","21","0","NOVEMBER","12",,"0","12","3555",,,,,"1","2018-11-09 16:56:27","383968"
"AUZQIVJPQ4DCJ","cs_wg_mon_single_v1_real1","3LKC68YZ3A4L862HH2EDG8VLDDYOW8","20","0","JUNE","6",,"0","6","4011",,,,,"1","2018-11-09 16:56:27","383969"
"AV11S93KI37X3","cs_wg_mon_single_v1_real1","3IFS6Q0HJIKI53A5Z2R7ZMWEVR2ISR","27","0","NOVEMBER","2",,"0","2","2519",,,,,"1","2018-11-09 16:56:27","383970"
"A2LI8283SXAJS9","cs_wg_mon_single_v1_real1","3NPI0JQDAO6B1PAO1XMHIOTCJOBPTZ","57","0","JUNE","8",,"0","8","2117",,,,,"0","2018-11-09 16:56:27","383971"
"AXPGZD6Q9556W","cs_wg_mon_single_v1_real1","3HFNH7HEMHFSWWPXHA2ZJA4XYQQGQ9","13","0","DECEMBER","6",,"0","6","10785",,,,,"1","2018-11-09 16:56:27","383972"
"A1QRCJFX76DELI","cs_wg_mon_single_v1_real1","3AMYWKA6YBNNERNBQK19IEW8PB4O66","51","0","APRIL","4",,"0","4","1597",,,,,"0","2018-11-09 16:56:27","383973"
"A1CFXA3VVC9SNX","cs_wg_mon_single_v1_real1","3PM8NZGV8YH3IIKN6K237W4S1GMQXB","11","0","AUGUST","12",,"0","12","2976",,,,,"0","2018-11-09 16:56:28","383974"
"AHJ6FRXMQUDEH","cs_wg_mon_single_v1_real1","3RKNTXVS3MZKX0PWXD3CKLSP43VA49","35","0","FEBRUARY","2",,"0","2","2578",,,,,"0","2018-11-09 16:56:28","383975"
"A1335PAW6E5SE2","cs_wg_mon_single_v1_real1","32VNZTT0A75CWHBDZOPYFBHZ47IR4X","37","0","APRIL","10",,"0","10","8791",,,,,"1","2018-11-09 16:56:29","383976"
"AKVDK30EEV08C","cs_wg_mon_single_v1_real1","3EICBYG644XYTX5FKYM7WI7WM35CJ3","11","0","JUNE","2",,"0","2","4915",,,,,"1","2018-11-09 16:56:29","383977"
"A14E4UOQDV9O7O","cs_wg_mon_single_v1_real1","3NVC2EB65Q00BM4VD5C9D2IQTU2Y3M","11","0","SEPTEMBER","6",,"0","6","4213",,,,,"1","2018-11-09 16:56:30","383978"
"A239JNU2N6RC4U","cs_wg_mon_single_v1_real1","3TMSXRD2X610CEVGB0G24CIDK2OW1T","6","0","APRIL","4",,"0","4","5669",,,,,"1","2018-11-09 16:56:31","383979"
"A2LI8283SXAJS9","cs_wg_mon_single_v1_real1","3NPI0JQDAO6B1PAO1XMHIOTCJOBPTZ","58","0","SEPTEMBER","2",,"0","2","2054",,,,,"0","2018-11-09 16:56:31","383980"
"A14QBG0BI8BFJ8","cs_wg_mon_single_v1_real1","31LM9EDVOLTHK1269OVLCT18L7JJNS","17","0","JULY","12",,"0","12","4446",,,,,"1","2018-11-09 16:56:31","383981"
"AV11S93KI37X3","cs_wg_mon_single_v1_real1","3IFS6Q0HJIKI53A5Z2R7ZMWEVR2ISR","28","0","JANUARY","2",,"0","2","2570",,,,,"1","2018-11-09 16:56:31","383982"
"A2TGT3EVYQOJ8P","cs_wg_mon_single_v1_real1","3NC5L260MONJXKGMRD4DCK9LIA7FO0","31","0","OCTOBER","6",,"0","6","3002",,,,,"1","2018-11-09 16:56:31","383983"
"A4IY48GQ4Q2FP","cs_wg_mon_single_v1_real1","3L6L49WXW0YNRUDF2HCVCAC3CPV54Z","7","0","AUGUST","2",,"0","2","3460",,,,,"1","2018-11-09 16:56:32","383984"
"ACP3EPSETF6IY","cs_wg_mon_single_v1_real1","3RXCAC0YIRQMQSP1VGLZXJJX4K4G8Y","22","0","DECEMBER","8",,"0","8","3473",,,,,"1","2018-11-09 16:56:32","383985"
"A3AL6CS7BIZWNB","cs_wg_mon_single_v1_real1","3NJM2BJS4W7UF88DFBRRTET8V2CCP4","17","0","JULY","12",,"0","12","6406",,,,,"0","2018-11-09 16:56:32","383986"
"A1QRCJFX76DELI","cs_wg_mon_single_v1_real1","3AMYWKA6YBNNERNBQK19IEW8PB4O66","52","0","MAY","4",,"0","12","2792",,,,,"0","2018-11-09 16:56:32","383987"
"A3QTDX0KPAKU39","cs_wg_mon_single_v1_real1","3Z4XG4ZF48SXCEKRKQL3L5JS7A08XI","8","0","MAY","6",,"0","6","11945",,,,,"1","2018-11-09 16:56:33","383988"
"AUZQIVJPQ4DCJ","cs_wg_mon_single_v1_real1","3LKC68YZ3A4L862HH2EDG8VLDDYOW8","21","0","AUGUST","8",,"0","8","3527",,,,,"1","2018-11-09 16:56:33","383989"
"A2L3TU04PQ346A","cs_wg_mon_single_v1_real1","39N5ACM9HEOSHA1A3RH0ROS0PH99PK","28","0","MARCH","10",,"0","10","7349",,,,,"0","2018-11-09 16:56:33","383990"
"AHJ6FRXMQUDEH","cs_wg_mon_single_v1_real1","3RKNTXVS3MZKX0PWXD3CKLSP43VA49","36","0","FEBRUARY","2",,"0","2","2954",,,,,"0","2018-11-09 16:56:33","383991"
"A3DYAUID960LZV","cs_wg_mon_single_v1_real1","3ITXP059PWKE0EUBHKC7BNBE86SJS5","10","0","AUGUST","2",,"0","2","5540",,,,,"1","2018-11-09 16:56:34","383992"
"A1QRCJFX76DELI","cs_wg_mon_single_v1_real1","3AMYWKA6YBNNERNBQK19IEW8PB4O66","53","0","APRIL","4",,"0","4","1226",,,,,"0","2018-11-09 16:56:35","383993"
"A1EIKI2CBBKLEV","cs_wg_mon_single_v1_real1","3JC6VJ2SABK2TJTWBIMMPDY34ZQA5E","22","0","SEPTEMBER","8",,"0","8","8006",,,,,"0","2018-11-09 16:56:36","383994"
"AYW016I0MGCB7","cs_wg_mon_single_v1_real1","3DZQRBDBSLG3F0SMEZKKVGUPC963SD","26","0","FEBRUARY","10",,"0","10","10288",,,,,"1","2018-11-09 16:56:36","383995"
"A2LI8283SXAJS9","cs_wg_mon_single_v1_real1","3NPI0JQDAO6B1PAO1XMHIOTCJOBPTZ","59","0","FEBRUARY","10",,"0","10","2191",,,,,"0","2018-11-09 16:56:36","383996"
"AV11S93KI37X3","cs_wg_mon_single_v1_real1","3IFS6Q0HJIKI53A5Z2R7ZMWEVR2ISR","29","0","APRIL","8",,"0","8","3441",,,,,"1","2018-11-09 16:56:36","383997"
"A1CFXA3VVC9SNX","cs_wg_mon_single_v1_real1","3PM8NZGV8YH3IIKN6K237W4S1GMQXB","12","0","JANUARY","8",,"0","8","7355",,,,,"1","2018-11-09 16:56:37","383998"
"ACP3EPSETF6IY","cs_wg_mon_single_v1_real1","3RXCAC0YIRQMQSP1VGLZXJJX4K4G8Y","23","0","APRIL","12",,"0","12","3140",,,,,"1","2018-11-09 16:56:37","383999"
"A4IY48GQ4Q2FP","cs_wg_mon_single_v1_real1","3L6L49WXW0YNRUDF2HCVCAC3CPV54Z","8","0","AUGUST","2",,"0","2","3684",,,,,"1","2018-11-09 16:56:38","384000"
"A2L3TU04PQ346A","cs_wg_mon_single_v1_real1","39N5ACM9HEOSHA1A3RH0ROS0PH99PK","29","0","MAY","8",,"0","4","3262",,,,,"0","2018-11-09 16:56:38","384001"
"AKVDK30EEV08C","cs_wg_mon_single_v1_real1","3EICBYG644XYTX5FKYM7WI7WM35CJ3","12","0","MAY","6",,"0","6","4691",,,,,"1","2018-11-09 16:56:38","384002"
"AHJ6FRXMQUDEH","cs_wg_mon_single_v1_real1","3RKNTXVS3MZKX0PWXD3CKLSP43VA49","37","0","JULY","12",,"0","12","2826",,,,,"0","2018-11-09 16:56:38","384003"
"AG1T80T4ZP5ZX","cs_wg_mon_single_v1_real1","3W2LOLRXLBGXAJ0GKGCEMS6V1T9KRH","5","0","JULY","4",,"0","4","28374",,,,,"1","2018-11-09 16:56:39","384004"
"A3AL6CS7BIZWNB","cs_wg_mon_single_v1_real1","3NJM2BJS4W7UF88DFBRRTET8V2CCP4","18","0","MARCH","4",,"0","4","4787",,,,,"1","2018-11-09 16:56:39","384005"
"AUZQIVJPQ4DCJ","cs_wg_mon_single_v1_real1","3LKC68YZ3A4L862HH2EDG8VLDDYOW8","22","0","NOVEMBER","12",,"0","12","4434",,,,,"1","2018-11-09 16:56:39","384006"
"A14E4UOQDV9O7O","cs_wg_mon_single_v1_real1","3NVC2EB65Q00BM4VD5C9D2IQTU2Y3M","12","0","DECEMBER","8",,"0","8","7204",,,,,"1","2018-11-09 16:56:39","384007"
"A2TGT3EVYQOJ8P","cs_wg_mon_single_v1_real1","3NC5L260MONJXKGMRD4DCK9LIA7FO0","32","0","JUNE","8",,"0","8","6155",,,,,"1","2018-11-09 16:56:40","384008"
"A239JNU2N6RC4U","cs_wg_mon_single_v1_real1","3TMSXRD2X610CEVGB0G24CIDK2OW1T","7","0","OCTOBER","12",,"0","12","6179",,,,,"1","2018-11-09 16:56:40","384009"
"AXPGZD6Q9556W","cs_wg_mon_single_v1_real1","3HFNH7HEMHFSWWPXHA2ZJA4XYQQGQ9","14","0","AUGUST","4",,"0","4","9985",,,,,"1","2018-11-09 16:56:40","384010"
"A1QRCJFX76DELI","cs_wg_mon_single_v1_real1","3AMYWKA6YBNNERNBQK19IEW8PB4O66","54","0","SEPTEMBER","8",,"0","12","3493",,,,,"0","2018-11-09 16:56:40","384011"
"A3DYAUID960LZV","cs_wg_mon_single_v1_real1","3ITXP059PWKE0EUBHKC7BNBE86SJS5","11","0","JUNE","6",,"0","6","4571",,,,,"1","2018-11-09 16:56:40","384012"
"A1N8YQYYDOXP74","cs_wg_mon_single_v1_real1","3OLF68YTN92UVGMLHUZVBPPGTT5AFY","3","0","OCTOBER","4",,"0","4","14897",,,,,"1","2018-11-09 16:56:40","384013"
"AYW016I0MGCB7","cs_wg_mon_single_v1_real1","3DZQRBDBSLG3F0SMEZKKVGUPC963SD","27","0","MARCH","4",,"0","4","2259",,,,,"0","2018-11-09 16:56:40","384014"
"ACP3EPSETF6IY","cs_wg_mon_single_v1_real1","3RXCAC0YIRQMQSP1VGLZXJJX4K4G8Y","24","0","APRIL","12",,"0","12","2158",,,,,"1","2018-11-09 16:56:41","384015"
"A1335PAW6E5SE2","cs_wg_mon_single_v1_real1","32VNZTT0A75CWHBDZOPYFBHZ47IR4X","38","0","MAY","12",,"0","12","8662",,,,,"1","2018-11-09 16:56:41","384016"
"A3QTDX0KPAKU39","cs_wg_mon_single_v1_real1","3Z4XG4ZF48SXCEKRKQL3L5JS7A08XI","9","0","APRIL","8",,"0","8","4363",,,,,"0","2018-11-09 16:56:42","384017"
"AV11S93KI37X3","cs_wg_mon_single_v1_real1","3IFS6Q0HJIKI53A5Z2R7ZMWEVR2ISR","30","0","JULY","8",,"0","8","3742",,,,,"1","2018-11-09 16:56:42","384018"
"A18PFPO5K63ZL2","cs_wg_mon_single_v1_real1","3EJJQNKU9R668TZ8EV9H90Q39C5RHK","7","0","MARCH","8",,"0","8","16485",,,,,"1","2018-11-09 16:56:42","384019"
"A2LI8283SXAJS9","cs_wg_mon_single_v1_real1","3NPI0JQDAO6B1PAO1XMHIOTCJOBPTZ","60","0","DECEMBER","6",,"0","6","3374",,,,,"0","2018-11-09 16:56:42","384020"
"A14QBG0BI8BFJ8","cs_wg_mon_single_v1_real1","31LM9EDVOLTHK1269OVLCT18L7JJNS","18","0","JUNE","10",,"0","10","8457",,,,,"1","2018-11-09 16:56:42","384021"
"AHJ6FRXMQUDEH","cs_wg_mon_single_v1_real1","3RKNTXVS3MZKX0PWXD3CKLSP43VA49","38","0","APRIL","8",,"0","8","2195",,,,,"0","2018-11-09 16:56:43","384022"
"A1QRCJFX76DELI","cs_wg_mon_single_v1_real1","3AMYWKA6YBNNERNBQK19IEW8PB4O66","55","0","AUGUST","12",,"0","12","1496",,,,,"0","2018-11-09 16:56:43","384023"
"A4IY48GQ4Q2FP","cs_wg_mon_single_v1_real1","3L6L49WXW0YNRUDF2HCVCAC3CPV54Z","9","0","OCTOBER","6",,"0","6","3755",,,,,"1","2018-11-09 16:56:44","384024"
"A2OBH6UQ8KXVIV","cs_wg_mon_single_v1_real1","3TY7ZAOG5FL9APGHQ3TZ2W58S3A0KZ","2","0","DECEMBER","4",,"0","4","20240",,,,,"1","2018-11-09 16:56:45","384025"
"A2L3TU04PQ346A","cs_wg_mon_single_v1_real1","39N5ACM9HEOSHA1A3RH0ROS0PH99PK","30","0","APRIL","6",,"0","8","5362",,,,,"0","2018-11-09 16:56:45","384026"
"AUZQIVJPQ4DCJ","cs_wg_mon_single_v1_real1","3LKC68YZ3A4L862HH2EDG8VLDDYOW8","23","0","OCTOBER","12",,"0","12","3982",,,,,"1","2018-11-09 16:56:45","384027"
"ACP3EPSETF6IY","cs_wg_mon_single_v1_real1","3RXCAC0YIRQMQSP1VGLZXJJX4K4G8Y","25","0","APRIL","12",,"0","12","2223",,,,,"0","2018-11-09 16:56:45","384028"
"A1EIKI2CBBKLEV","cs_wg_mon_single_v1_real1","3JC6VJ2SABK2TJTWBIMMPDY34ZQA5E","23","0","OCTOBER","10",,"0","10","7945",,,,,"1","2018-11-09 16:56:46","384029"
"A2TGT3EVYQOJ8P","cs_wg_mon_single_v1_real1","3NC5L260MONJXKGMRD4DCK9LIA7FO0","33","0","APRIL","2",,"0","2","4634",,,,,"1","2018-11-09 16:56:47","384030"
"A239JNU2N6RC4U","cs_wg_mon_single_v1_real1","3TMSXRD2X610CEVGB0G24CIDK2OW1T","8","0","JUNE","6",,"0","6","4747",,,,,"1","2018-11-09 16:56:47","384031"
"A3AL6CS7BIZWNB","cs_wg_mon_single_v1_real1","3NJM2BJS4W7UF88DFBRRTET8V2CCP4","19","0","DECEMBER","4",,"0","4","5156",,,,,"1","2018-11-09 16:56:47","384032"
"A1QRCJFX76DELI","cs_wg_mon_single_v1_real1","3AMYWKA6YBNNERNBQK19IEW8PB4O66","56","0","JANUARY","6",,"0","4","2551",,,,,"0","2018-11-09 16:56:47","384033"
"AHJ6FRXMQUDEH","cs_wg_mon_single_v1_real1","3RKNTXVS3MZKX0PWXD3CKLSP43VA49","39","0","OCTOBER","8",,"0","8","3196",,,,,"1","2018-11-09 16:56:48","384034"
"A14E4UOQDV9O7O","cs_wg_mon_single_v1_real1","3NVC2EB65Q00BM4VD5C9D2IQTU2Y3M","13","0","MAY","8",,"0","8","6565",,,,,"1","2018-11-09 16:56:48","384035"
"AXPGZD6Q9556W","cs_wg_mon_single_v1_real1","3HFNH7HEMHFSWWPXHA2ZJA4XYQQGQ9","15","0","MARCH","2",,"0","4","6225",,,,,"0","2018-11-09 16:56:48","384036"
"A14QBG0BI8BFJ8","cs_wg_mon_single_v1_real1","31LM9EDVOLTHK1269OVLCT18L7JJNS","19","0","FEBRUARY","8",,"0","8","4089",,,,,"1","2018-11-09 16:56:48","384037"
"AYW016I0MGCB7","cs_wg_mon_single_v1_real1","3DZQRBDBSLG3F0SMEZKKVGUPC963SD","28","0","OCTOBER","10",,"0","10","6402",,,,,"1","2018-11-09 16:56:49","384038"
"ACP3EPSETF6IY","cs_wg_mon_single_v1_real1","3RXCAC0YIRQMQSP1VGLZXJJX4K4G8Y","26","0","APRIL","12",,"0","12","1373",,,,,"0","2018-11-09 16:56:49","384039"
"A2L3TU04PQ346A","cs_wg_mon_single_v1_real1","39N5ACM9HEOSHA1A3RH0ROS0PH99PK","31","0","DECEMBER","4",,"0","4","2595",,,,,"0","2018-11-09 16:56:49","384040"
"A3IRQEJDDTCO3K","cs_wg_mon_single_v1_real1","3IUZPWIU1O82IFH2JAMK9RECT8PKWL","0","0","DECEMBER","8",,"0","12","7930",,,,,"0","2018-11-09 16:56:50","384041"
"A28Q19NTTP0UIQ","cs_wg_mon_single_v1_real1","33M4IA01QG23UJZNJZR3CMEXX2OXRJ","12","0","JUNE","12",,"0","12","11391",,,,,"1","2018-11-09 16:56:50","384042"
"A1CFXA3VVC9SNX","cs_wg_mon_single_v1_real1","3PM8NZGV8YH3IIKN6K237W4S1GMQXB","13","0","SEPTEMBER","4",,"0","4","11164",,,,,"1","2018-11-09 16:56:50","384043"
"A3QTDX0KPAKU39","cs_wg_mon_single_v1_real1","3Z4XG4ZF48SXCEKRKQL3L5JS7A08XI","10","0","AUGUST","8",,"0","8","6413",,,,,"0","2018-11-09 16:56:50","384044"
"A18PFPO5K63ZL2","cs_wg_mon_single_v1_real1","3EJJQNKU9R668TZ8EV9H90Q39C5RHK","8","0","JUNE","6",,"0","6","5939",,,,,"1","2018-11-09 16:56:50","384045"
"A1QRCJFX76DELI","cs_wg_mon_single_v1_real1","3AMYWKA6YBNNERNBQK19IEW8PB4O66","57","0","APRIL","4",,"0","4","1654",,,,,"0","2018-11-09 16:56:51","384046"
"AKVDK30EEV08C","cs_wg_mon_single_v1_real1","3EICBYG644XYTX5FKYM7WI7WM35CJ3","13","0","JULY","6",,"0","6","9966",,,,,"1","2018-11-09 16:56:51","384047"
"A2LI8283SXAJS9","cs_wg_mon_single_v1_real1","3NPI0JQDAO6B1PAO1XMHIOTCJOBPTZ","61","0","OCTOBER","12",,"0","12","6728",,,,,"0","2018-11-09 16:56:52","384048"
"A4IY48GQ4Q2FP","cs_wg_mon_single_v1_real1","3L6L49WXW0YNRUDF2HCVCAC3CPV54Z","10","0","JULY","10",,"0","10","7055",,,,,"1","2018-11-09 16:56:53","384049"
"AYW016I0MGCB7","cs_wg_mon_single_v1_real1","3DZQRBDBSLG3F0SMEZKKVGUPC963SD","29","0","JULY","4",,"0","4","2372",,,,,"0","2018-11-09 16:56:53","384050"
"A14E4UOQDV9O7O","cs_wg_mon_single_v1_real1","3NVC2EB65Q00BM4VD5C9D2IQTU2Y3M","14","0","MAY","8",,"0","8","2560",,,,,"0","2018-11-09 16:56:53","384051"
"A239JNU2N6RC4U","cs_wg_mon_single_v1_real1","3TMSXRD2X610CEVGB0G24CIDK2OW1T","9","0","DECEMBER","2",,"0","2","4770",,,,,"1","2018-11-09 16:56:54","384052"
"A1335PAW6E5SE2","cs_wg_mon_single_v1_real1","32VNZTT0A75CWHBDZOPYFBHZ47IR4X","39","0","JULY","6",,"0","6","10395",,,,,"1","2018-11-09 16:56:54","384053"
"A2TGT3EVYQOJ8P","cs_wg_mon_single_v1_real1","3NC5L260MONJXKGMRD4DCK9LIA7FO0","34","0","JUNE","8",,"0","8","4938",,,,,"1","2018-11-09 16:56:54","384054"
"A3DYAUID960LZV","cs_wg_mon_single_v1_real1","3ITXP059PWKE0EUBHKC7BNBE86SJS5","12","0","MAY","8",,"0","8","12157",,,,,"1","2018-11-09 16:56:55","384055"
"A3AL6CS7BIZWNB","cs_wg_mon_single_v1_real1","3NJM2BJS4W7UF88DFBRRTET8V2CCP4","20","0","APRIL","2",,"0","2","5333",,,,,"1","2018-11-09 16:56:55","384056"
"A14QBG0BI8BFJ8","cs_wg_mon_single_v1_real1","31LM9EDVOLTHK1269OVLCT18L7JJNS","20","0","JANUARY","12",,"0","12","4522",,,,,"1","2018-11-09 16:56:55","384057"
"A1EIKI2CBBKLEV","cs_wg_mon_single_v1_real1","3JC6VJ2SABK2TJTWBIMMPDY34ZQA5E","24","0","DECEMBER","10",,"0","10","6660",,,,,"1","2018-11-09 16:56:55","384058"
"AE1MZIYF1J4IK","cs_wg_mon_single_v1_real1","3PS7W85Z8Z3Q92UHK8QKWYTXEKVT9A","0","0","JUNE","2",,"0","2","5773",,,,,"1","2018-11-09 16:56:56","384059"
"A1QRCJFX76DELI","cs_wg_mon_single_v1_real1","3AMYWKA6YBNNERNBQK19IEW8PB4O66","58","0","JANUARY","6",,"0","6","3416",,,,,"0","2018-11-09 16:56:56","384060"
"AXPGZD6Q9556W","cs_wg_mon_single_v1_real1","3HFNH7HEMHFSWWPXHA2ZJA4XYQQGQ9","16","0","MAY","6",,"0","6","5612",,,,,"0","2018-11-09 16:56:56","384061"
"A1CFXA3VVC9SNX","cs_wg_mon_single_v1_real1","3PM8NZGV8YH3IIKN6K237W4S1GMQXB","14","0","JANUARY","8",,"0","8","3829",,,,,"0","2018-11-09 16:56:56","384062"
"ACP3EPSETF6IY","cs_wg_mon_single_v1_real1","3RXCAC0YIRQMQSP1VGLZXJJX4K4G8Y","27","0","OCTOBER","6",,"0","6","5680",,,,,"1","2018-11-09 16:56:57","384063"
"A3IRQEJDDTCO3K","cs_wg_mon_single_v1_real1","3IUZPWIU1O82IFH2JAMK9RECT8PKWL","1","0","APRIL","4",,"0","4","3443",,,,,"0","2018-11-09 16:56:57","384064"
"AHJ6FRXMQUDEH","cs_wg_mon_single_v1_real1","3RKNTXVS3MZKX0PWXD3CKLSP43VA49","40","0","AUGUST","6",,"0","2","7457",,,,,"0","2018-11-09 16:56:57","384065"
"A2LI8283SXAJS9","cs_wg_mon_single_v1_real1","3NPI0JQDAO6B1PAO1XMHIOTCJOBPTZ","62","0","JUNE","8",,"0","8","3473",,,,,"0","2018-11-09 16:56:57","384066"
"A3QTDX0KPAKU39","cs_wg_mon_single_v1_real1","3Z4XG4ZF48SXCEKRKQL3L5JS7A08XI","11","0","JUNE","10",,"0","10","5354",,,,,"0","2018-11-09 16:56:58","384067"
"AKVDK30EEV08C","cs_wg_mon_single_v1_real1","3EICBYG644XYTX5FKYM7WI7WM35CJ3","14","0","SEPTEMBER","8",,"0","8","4590",,,,,"1","2018-11-09 16:56:58","384068"
"AYW016I0MGCB7","cs_wg_mon_single_v1_real1","3DZQRBDBSLG3F0SMEZKKVGUPC963SD","30","0","AUGUST","2",,"0","2","3611",,,,,"1","2018-11-09 16:56:58","384069"
"A2L3TU04PQ346A","cs_wg_mon_single_v1_real1","39N5ACM9HEOSHA1A3RH0ROS0PH99PK","32","0","SEPTEMBER","2",,"0","2","5633",,,,,"1","2018-11-09 16:56:59","384070"
"A1QRCJFX76DELI","cs_wg_mon_single_v1_real1","3AMYWKA6YBNNERNBQK19IEW8PB4O66","59","0","DECEMBER","6",,"0","2","1914",,,,,"0","2018-11-09 16:56:59","384071"
"A4IY48GQ4Q2FP","cs_wg_mon_single_v1_real1","3L6L49WXW0YNRUDF2HCVCAC3CPV54Z","11","0","JANUARY","8",,"0","8","4207",,,,,"1","2018-11-09 16:57:00","384072"
"A28Q19NTTP0UIQ","cs_wg_mon_single_v1_real1","33M4IA01QG23UJZNJZR3CMEXX2OXRJ","13","0","JUNE","12",,"0","12","7435",,,,,"1","2018-11-09 16:57:00","384073"
"AV11S93KI37X3","cs_wg_mon_single_v1_real1","3IFS6Q0HJIKI53A5Z2R7ZMWEVR2ISR","31","0","JUNE","6",,"0","6","8109",,,,,"1","2018-11-09 16:57:00","384074"
"A239JNU2N6RC4U","cs_wg_mon_single_v1_real1","3TMSXRD2X610CEVGB0G24CIDK2OW1T","10","0","SEPTEMBER","4",,"0","4","4157",,,,,"1","2018-11-09 16:57:00","384075"
"A18PFPO5K63ZL2","cs_wg_mon_single_v1_real1","3EJJQNKU9R668TZ8EV9H90Q39C5RHK","9","0","JANUARY","10",,"0","10","7706",,,,,"1","2018-11-09 16:57:00","384076"
"AUZQIVJPQ4DCJ","cs_wg_mon_single_v1_real1","3LKC68YZ3A4L862HH2EDG8VLDDYOW8","24","0","SEPTEMBER","4",,"0","4","13084",,,,,"1","2018-11-09 16:57:01","384077"
"A1CFXA3VVC9SNX","cs_wg_mon_single_v1_real1","3PM8NZGV8YH3IIKN6K237W4S1GMQXB","15","0","JULY","6",,"0","6","2802",,,,,"0","2018-11-09 16:57:01","384078"
"A1335PAW6E5SE2","cs_wg_mon_single_v1_real1","32VNZTT0A75CWHBDZOPYFBHZ47IR4X","40","0","JUNE","10",,"0","10","4990",,,,,"0","2018-11-09 16:57:01","384079"
"ACP3EPSETF6IY","cs_wg_mon_single_v1_real1","3RXCAC0YIRQMQSP1VGLZXJJX4K4G8Y","28","0","SEPTEMBER","4",,"0","4","2872",,,,,"1","2018-11-09 16:57:02","384080"
"AHJ6FRXMQUDEH","cs_wg_mon_single_v1_real1","3RKNTXVS3MZKX0PWXD3CKLSP43VA49","41","0","JUNE","4",,"0","10","2651",,,,,"0","2018-11-09 16:57:02","384081"
"AXPGZD6Q9556W","cs_wg_mon_single_v1_real1","3HFNH7HEMHFSWWPXHA2ZJA4XYQQGQ9","17","0","JUNE","2",,"0","10","4569",,,,,"0","2018-11-09 16:57:02","384082"
"A14E4UOQDV9O7O","cs_wg_mon_single_v1_real1","3NVC2EB65Q00BM4VD5C9D2IQTU2Y3M","15","0","JUNE","2",,"0","2","5743",,,,,"1","2018-11-09 16:57:03","384083"
"A2LI8283SXAJS9","cs_wg_mon_single_v1_real1","3NPI0JQDAO6B1PAO1XMHIOTCJOBPTZ","63","0","MAY","6",,"0","6","3483",,,,,"0","2018-11-09 16:57:03","384084"
"A324VBRLXHG5IB","cs_wg_mon_single_v1_real1","3TAYZSBPLL9EUIW3AZ6FC6PX6V7S2S","0","0","JANUARY","2",,"0","2","8498",,,,,"1","2018-11-09 16:57:03","384085"
"A3AL6CS7BIZWNB","cs_wg_mon_single_v1_real1","3NJM2BJS4W7UF88DFBRRTET8V2CCP4","21","0","MARCH","4",,"0","4","6199",,,,,"1","2018-11-09 16:57:03","384086"
"A1EIKI2CBBKLEV","cs_wg_mon_single_v1_real1","3JC6VJ2SABK2TJTWBIMMPDY34ZQA5E","25","0","APRIL","6",,"0","6","6283",,,,,"1","2018-11-09 16:57:04","384087"
"A2TGT3EVYQOJ8P","cs_wg_mon_single_v1_real1","3NC5L260MONJXKGMRD4DCK9LIA7FO0","35","0","JANUARY","10",,"0","10","7146",,,,,"1","2018-11-09 16:57:04","384088"
"AYW016I0MGCB7","cs_wg_mon_single_v1_real1","3DZQRBDBSLG3F0SMEZKKVGUPC963SD","31","0","APRIL","8",,"0","8","3731",,,,,"1","2018-11-09 16:57:04","384089"
"A3DYAUID960LZV","cs_wg_mon_single_v1_real1","3ITXP059PWKE0EUBHKC7BNBE86SJS5","13","0","JULY","10",,"0","10","7830",,,,,"1","2018-11-09 16:57:04","384090"
"A1QRCJFX76DELI","cs_wg_mon_single_v1_real1","3AMYWKA6YBNNERNBQK19IEW8PB4O66","60","0","JULY","10",,"0","10","3943",,,,,"0","2018-11-09 16:57:05","384091"
"A4IY48GQ4Q2FP","cs_wg_mon_single_v1_real1","3L6L49WXW0YNRUDF2HCVCAC3CPV54Z","12","0","FEBRUARY","8",,"0","8","3676",,,,,"1","2018-11-09 16:57:06","384092"
"A3IRQEJDDTCO3K","cs_wg_mon_single_v1_real1","3IUZPWIU1O82IFH2JAMK9RECT8PKWL","2","0","JANUARY","6",,"0","1","6741",,,,,"0","2018-11-09 16:57:06","384093"
"A2L3TU04PQ346A","cs_wg_mon_single_v1_real1","39N5ACM9HEOSHA1A3RH0ROS0PH99PK","33","0","AUGUST","6",,"0","6","5100",,,,,"0","2018-11-09 16:57:06","384094"
"A1CFXA3VVC9SNX","cs_wg_mon_single_v1_real1","3PM8NZGV8YH3IIKN6K237W4S1GMQXB","16","0","SEPTEMBER","4",,"0","4","3130",,,,,"0","2018-11-09 16:57:06","384095"
"A2OBH6UQ8KXVIV","cs_wg_mon_single_v1_real1","3TY7ZAOG5FL9APGHQ3TZ2W58S3A0KZ","3","0","OCTOBER","2",,"0","2","17142",,,,,"1","2018-11-09 16:57:06","384096"
"AUZQIVJPQ4DCJ","cs_wg_mon_single_v1_real1","3LKC68YZ3A4L862HH2EDG8VLDDYOW8","25","0","NOVEMBER","12",,"0","12","4184",,,,,"1","2018-11-09 16:57:07","384097"
"AHJ6FRXMQUDEH","cs_wg_mon_single_v1_real1","3RKNTXVS3MZKX0PWXD3CKLSP43VA49","42","0","SEPTEMBER","12",,"0","12","2083",,,,,"0","2018-11-09 16:57:07","384098"
"A14QBG0BI8BFJ8","cs_wg_mon_single_v1_real1","31LM9EDVOLTHK1269OVLCT18L7JJNS","21","0","OCTOBER","6",,"0","6","9790",,,,,"1","2018-11-09 16:57:07","384099"
"A1335PAW6E5SE2","cs_wg_mon_single_v1_real1","32VNZTT0A75CWHBDZOPYFBHZ47IR4X","41","0","SEPTEMBER","6",,"0","6","4143",,,,,"0","2018-11-09 16:57:07","384100"
"A28Q19NTTP0UIQ","cs_wg_mon_single_v1_real1","33M4IA01QG23UJZNJZR3CMEXX2OXRJ","14","0","DECEMBER","10",,"0","10","3009",,,,,"0","2018-11-09 16:57:07","384101"
"AXPGZD6Q9556W","cs_wg_mon_single_v1_real1","3HFNH7HEMHFSWWPXHA2ZJA4XYQQGQ9","18","0","DECEMBER","6",,"0","6","3337",,,,,"0","2018-11-09 16:57:08","384102"
"ACP3EPSETF6IY","cs_wg_mon_single_v1_real1","3RXCAC0YIRQMQSP1VGLZXJJX4K4G8Y","29","0","FEBRUARY","10",,"0","10","3839",,,,,"1","2018-11-09 16:57:08","384103"
"AV11S93KI37X3","cs_wg_mon_single_v1_real1","3IFS6Q0HJIKI53A5Z2R7ZMWEVR2ISR","32","0","JUNE","6",,"0","6","6430",,,,,"1","2018-11-09 16:57:08","384104"
"A2LI8283SXAJS9","cs_wg_mon_single_v1_real1","3NPI0JQDAO6B1PAO1XMHIOTCJOBPTZ","64","0","DECEMBER","6",,"0","6","3189",,,,,"0","2018-11-09 16:57:08","384105"
"A3QTDX0KPAKU39","cs_wg_mon_single_v1_real1","3Z4XG4ZF48SXCEKRKQL3L5JS7A08XI","12","0","JULY","12",,"0","12","8482",,,,,"1","2018-11-09 16:57:08","384106"
"A18PFPO5K63ZL2","cs_wg_mon_single_v1_real1","3EJJQNKU9R668TZ8EV9H90Q39C5RHK","10","0","FEBRUARY","2",,"0","2","6562",,,,,"1","2018-11-09 16:57:09","384107"
"AYW016I0MGCB7","cs_wg_mon_single_v1_real1","3DZQRBDBSLG3F0SMEZKKVGUPC963SD","32","0","OCTOBER","10",,"0","10","2979",,,,,"0","2018-11-09 16:57:09","384108"
"A2TGT3EVYQOJ8P","cs_wg_mon_single_v1_real1","3NC5L260MONJXKGMRD4DCK9LIA7FO0","36","0","MAY","4",,"0","4","2862",,,,,"1","2018-11-09 16:57:09","384109"
"A14E4UOQDV9O7O","cs_wg_mon_single_v1_real1","3NVC2EB65Q00BM4VD5C9D2IQTU2Y3M","16","0","MARCH","6",,"0","6","4219",,,,,"0","2018-11-09 16:57:09","384110"
"A1EIKI2CBBKLEV","cs_wg_mon_single_v1_real1","3JC6VJ2SABK2TJTWBIMMPDY34ZQA5E","26","0","JANUARY","12",,"0","12","3607",,,,,"1","2018-11-09 16:57:09","384111"
"AKVDK30EEV08C","cs_wg_mon_single_v1_real1","3EICBYG644XYTX5FKYM7WI7WM35CJ3","15","0","MARCH","4",,"0","4","8635",,,,,"1","2018-11-09 16:57:10","384112"
"A3DYAUID960LZV","cs_wg_mon_single_v1_real1","3ITXP059PWKE0EUBHKC7BNBE86SJS5","14","0","AUGUST","2",,"0","2","3707",,,,,"0","2018-11-09 16:57:10","384113"
"A1N8YQYYDOXP74","cs_wg_mon_single_v1_real1","3OLF68YTN92UVGMLHUZVBPPGTT5AFY","4","0","DECEMBER","4",,"0","4","6009",,,,,"1","2018-11-09 16:57:10","384114"
"AOXRO186OJMVJ","cs_wg_mon_single_v1_real1","3B837J3LDOXVY2DOPPLGDEX5INNRS6","0","0","NOVEMBER","2",,"0","2","8170",,,,,"1","2018-11-09 16:57:10","384115"
