"subject","version","assignmentId","trial","trial_type","word","value","alt","choice","rt","resp","resp2","stamp","id"
"A36TE52PSYAAD6","cs_wg_v4_pilot1","3OUYGIZWR7ZALGDX3VY7YDR373YP00","0","0","FOOTBALL","0","5","0","2429","football","0","2017-03-24 17:18:52","4169"
"A4IH4CO046EV3","cs_wg_v4_pilot1","3ZAK8W07I4FNDLLTKHX18JE2FKQU01","0","0","WEDDING","2","5","0","4856","WEDDING","2","2017-03-24 17:18:53","4170"
"A36TE52PSYAAD6","cs_wg_v4_pilot1","3OUYGIZWR7ZALGDX3VY7YDR373YP00","1","0","MACHINE","10","5","0","2049","machine","10","2017-03-24 17:19:02","4171"
"A4IH4CO046EV3","cs_wg_v4_pilot1","3ZAK8W07I4FNDLLTKHX18JE2FKQU01","1","0","DOORWAY","0","5","0","2448","DOORWAY","0","2017-03-24 17:19:06","4172"
"A36TE52PSYAAD6","cs_wg_v4_pilot1","3OUYGIZWR7ZALGDX3VY7YDR373YP00","2","0","STOMACH","1","5","0","1874","stomach","1","2017-03-24 17:19:11","4173"
"A4IH4CO046EV3","cs_wg_v4_pilot1","3ZAK8W07I4FNDLLTKHX18JE2FKQU01","2","0","TRAFFIC","10","5","1","1689","TRAFFIC","10","2017-03-24 17:19:17","4174"
"A36TE52PSYAAD6","cs_wg_v4_pilot1","3OUYGIZWR7ZALGDX3VY7YDR373YP00","3","0","MACHINE","10","5","0","1643","machine","10","2017-03-24 17:19:20","4175"
"A4IH4CO046EV3","cs_wg_v4_pilot1","3ZAK8W07I4FNDLLTKHX18JE2FKQU01","3","0","BOOKSHELF","0","5","1","2271","bookshelf","0","2017-03-24 17:19:29","4176"
"A36TE52PSYAAD6","cs_wg_v4_pilot1","3OUYGIZWR7ZALGDX3VY7YDR373YP00","4","0","STOMACH","1","5","1","2405","stomach","1","2017-03-24 17:19:35","4177"
"A4IH4CO046EV3","cs_wg_v4_pilot1","3ZAK8W07I4FNDLLTKHX18JE2FKQU01","4","0","KEYBOARD","1","5","1","1756","keyboard","1","2017-03-24 17:19:40","4178"
"A36TE52PSYAAD6","cs_wg_v4_pilot1","3OUYGIZWR7ZALGDX3VY7YDR373YP00","5","0","LADDER","9","5","0","1419","ladder","9","2017-03-24 17:19:43","4179"
"A36TE52PSYAAD6","cs_wg_v4_pilot1","3OUYGIZWR7ZALGDX3VY7YDR373YP00","6","0","UMBRELLA","10","5","0","1284","umbrella","10","2017-03-24 17:19:50","4180"
"A4IH4CO046EV3","cs_wg_v4_pilot1","3ZAK8W07I4FNDLLTKHX18JE2FKQU01","5","0","KEYBOARD","1","5","1","1983","keyboard","1","2017-03-24 17:19:51","4181"
"A36TE52PSYAAD6","cs_wg_v4_pilot1","3OUYGIZWR7ZALGDX3VY7YDR373YP00","7","0","BASKET","9","5","0","1124","basket","9","2017-03-24 17:19:58","4182"
"A4IH4CO046EV3","cs_wg_v4_pilot1","3ZAK8W07I4FNDLLTKHX18JE2FKQU01","6","0","LADDER","9","5","0","2157","ladder","9","2017-03-24 17:20:01","4183"
"A36TE52PSYAAD6","cs_wg_v4_pilot1","3OUYGIZWR7ZALGDX3VY7YDR373YP00","8","0","MACHINE","10","5","0","1049","machine","10","2017-03-24 17:20:05","4184"
"A36TE52PSYAAD6","cs_wg_v4_pilot1","3OUYGIZWR7ZALGDX3VY7YDR373YP00","9","0","FOOTBALL","0","5","1","1314","football","0","2017-03-24 17:20:13","4185"
"A4IH4CO046EV3","cs_wg_v4_pilot1","3ZAK8W07I4FNDLLTKHX18JE2FKQU01","7","0","HELICOPTER","0","5","0","2101","helicopter","0","2017-03-24 17:20:13","4186"
"A36TE52PSYAAD6","cs_wg_v4_pilot1","3OUYGIZWR7ZALGDX3VY7YDR373YP00","10","0","COMMUNITY","0","5","0","962","community","0","2017-03-24 17:20:20","4187"
"A4IH4CO046EV3","cs_wg_v4_pilot1","3ZAK8W07I4FNDLLTKHX18JE2FKQU01","8","0","STOMACH","10","5","1","1550","stomach","10","2017-03-24 17:20:23","4188"
"A36TE52PSYAAD6","cs_wg_v4_pilot1","3OUYGIZWR7ZALGDX3VY7YDR373YP00","11","0","BASKET","9","5","0","1106","basket","9","2017-03-24 17:20:27","4189"
"A4IH4CO046EV3","cs_wg_v4_pilot1","3ZAK8W07I4FNDLLTKHX18JE2FKQU01","9","0","STRUCTURE","9","5","1","1578","structure","9","2017-03-24 17:20:33","4190"
"A36TE52PSYAAD6","cs_wg_v4_pilot1","3OUYGIZWR7ZALGDX3VY7YDR373YP00","12","0","HELICOPTER","1","5","0","879","helicopter","1","2017-03-24 17:20:34","4191"
"A36TE52PSYAAD6","cs_wg_v4_pilot1","3OUYGIZWR7ZALGDX3VY7YDR373YP00","13","0","MACHINE","10","5","0","778","machine","10","2017-03-24 17:20:41","4192"
"A4IH4CO046EV3","cs_wg_v4_pilot1","3ZAK8W07I4FNDLLTKHX18JE2FKQU01","10","0","KEYBOARD","1","5","1","1577","keyboard","1","2017-03-24 17:20:44","4193"
"A36TE52PSYAAD6","cs_wg_v4_pilot1","3OUYGIZWR7ZALGDX3VY7YDR373YP00","14","0","COMMUNITY","0","5","1","1282","community","0","2017-03-24 17:20:48","4194"
"A4IH4CO046EV3","cs_wg_v4_pilot1","3ZAK8W07I4FNDLLTKHX18JE2FKQU01","11","0","BASKET","2","5","0","1547","basket","2","2017-03-24 17:20:53","4195"
"A36TE52PSYAAD6","cs_wg_v4_pilot1","3OUYGIZWR7ZALGDX3VY7YDR373YP00","15","0","STRUCTURE","8","5","0","801","structure","8","2017-03-24 17:20:55","4196"
"A36TE52PSYAAD6","cs_wg_v4_pilot1","3OUYGIZWR7ZALGDX3VY7YDR373YP00","16","0","COMMUNITY","0","5","1","1550","community","0","2017-03-24 17:21:03","4197"
"A4IH4CO046EV3","cs_wg_v4_pilot1","3ZAK8W07I4FNDLLTKHX18JE2FKQU01","12","0","BOOKSHELF","0","5","1","4053","bookshelf","0","2017-03-24 17:21:07","4198"
"A36TE52PSYAAD6","cs_wg_v4_pilot1","3OUYGIZWR7ZALGDX3VY7YDR373YP00","17","0","TRAFFIC","2","5","0","1098","traffic","2","2017-03-24 17:21:10","4199"
"A3FTOELF4L0OWS","cs_wg_v4_pilot1","39ASUFLU6X8ELFUIXT73DFFA33HEXZ","0","0","COMMUNITY","8","5","0","4515","community","8","2017-03-24 17:21:14","4200"
"A36TE52PSYAAD6","cs_wg_v4_pilot1","3OUYGIZWR7ZALGDX3VY7YDR373YP00","18","0","LADDER","9","5","0","2556","ladder","9","2017-03-24 17:21:18","4201"
"A4IH4CO046EV3","cs_wg_v4_pilot1","3ZAK8W07I4FNDLLTKHX18JE2FKQU01","13","0","HELICOPTER","0","5","1","5150","helicopter","0","2017-03-24 17:21:22","4202"
"A36TE52PSYAAD6","cs_wg_v4_pilot1","3OUYGIZWR7ZALGDX3VY7YDR373YP00","19","0","DOORWAY","8","5","0","967","doorway","8","2017-03-24 17:21:25","4203"
"A3FTOELF4L0OWS","cs_wg_v4_pilot1","39ASUFLU6X8ELFUIXT73DFFA33HEXZ","1","0","UMBRELLA","10","5","0","2576","umbrella","10","2017-03-24 17:21:26","4204"
"A36TE52PSYAAD6","cs_wg_v4_pilot1","3OUYGIZWR7ZALGDX3VY7YDR373YP00","20","0","WEDDING","0","5","0","885","wedding","0","2017-03-24 17:21:32","4205"
"A4IH4CO046EV3","cs_wg_v4_pilot1","3ZAK8W07I4FNDLLTKHX18JE2FKQU01","14","0","HELICOPTER","0","5","1","1400","helicopter","0","2017-03-24 17:21:32","4206"
"A3FTOELF4L0OWS","cs_wg_v4_pilot1","39ASUFLU6X8ELFUIXT73DFFA33HEXZ","2","0","FOOTBALL","2","5","0","2276","football","2","2017-03-24 17:21:36","4207"
"A36TE52PSYAAD6","cs_wg_v4_pilot1","3OUYGIZWR7ZALGDX3VY7YDR373YP00","21","0","KEYBOARD","10","5","0","826","keyboard","10","2017-03-24 17:21:38","4208"
"A4IH4CO046EV3","cs_wg_v4_pilot1","3ZAK8W07I4FNDLLTKHX18JE2FKQU01","15","0","HELICOPTER","0","5","1","1238","helicopter","0","2017-03-24 17:21:43","4209"
"A36TE52PSYAAD6","cs_wg_v4_pilot1","3OUYGIZWR7ZALGDX3VY7YDR373YP00","22","0","LADDER","9","5","0","1263","ladder","9","2017-03-24 17:21:45","4210"
"A3FTOELF4L0OWS","cs_wg_v4_pilot1","39ASUFLU6X8ELFUIXT73DFFA33HEXZ","3","0","STRUCTURE","9","5","0","1794","structure","9","2017-03-24 17:21:46","4211"
"A36TE52PSYAAD6","cs_wg_v4_pilot1","3OUYGIZWR7ZALGDX3VY7YDR373YP00","23","0","BOOKSHELF","2","5","0","771","bookshelf","2","2017-03-24 17:21:52","4212"
"A4IH4CO046EV3","cs_wg_v4_pilot1","3ZAK8W07I4FNDLLTKHX18JE2FKQU01","16","0","STOMACH","10","5","0","1946","stomach","10","2017-03-24 17:21:53","4213"
"A36TE52PSYAAD6","cs_wg_v4_pilot1","3OUYGIZWR7ZALGDX3VY7YDR373YP00","24","0","LADDER","9","5","0","819","ladder","9","2017-03-24 17:21:58","4214"
"A3FTOELF4L0OWS","cs_wg_v4_pilot1","39ASUFLU6X8ELFUIXT73DFFA33HEXZ","4","0","BASKET","10","5","0","1941","basket","10","2017-03-24 17:22:02","4215"
"A4IH4CO046EV3","cs_wg_v4_pilot1","3ZAK8W07I4FNDLLTKHX18JE2FKQU01","17","0","TRAFFIC","10","5","0","2292","traffic","10","2017-03-24 17:22:03","4216"
"A36TE52PSYAAD6","cs_wg_v4_pilot1","3OUYGIZWR7ZALGDX3VY7YDR373YP00","25","0","FOOTBALL","0","5","1","1542","football","0","2017-03-24 17:22:06","4217"
"A36TE52PSYAAD6","cs_wg_v4_pilot1","3OUYGIZWR7ZALGDX3VY7YDR373YP00","26","0","MACHINE","10","5","0","701","machine","10","2017-03-24 17:22:12","4218"
"A4IH4CO046EV3","cs_wg_v4_pilot1","3ZAK8W07I4FNDLLTKHX18JE2FKQU01","18","0","FOOTBALL","10","5","0","1453","football","10","2017-03-24 17:22:14","4219"
"A3FTOELF4L0OWS","cs_wg_v4_pilot1","39ASUFLU6X8ELFUIXT73DFFA33HEXZ","5","0","STOMACH","0","5","0","4248","stomach","0","2017-03-24 17:22:15","4220"
"A36TE52PSYAAD6","cs_wg_v4_pilot1","3OUYGIZWR7ZALGDX3VY7YDR373YP00","27","0","STRUCTURE","8","5","0","780","structure","8","2017-03-24 17:22:19","4221"
"A4IH4CO046EV3","cs_wg_v4_pilot1","3ZAK8W07I4FNDLLTKHX18JE2FKQU01","19","0","UMBRELLA","1","5","1","1392","umbrealla","1","2017-03-24 17:22:23","4222"
"A36TE52PSYAAD6","cs_wg_v4_pilot1","3OUYGIZWR7ZALGDX3VY7YDR373YP00","28","0","MACHINE","10","5","0","658","machine","10","2017-03-24 17:22:25","4223"
"A2ZR3PL5I0KPQ6","cs_wg_v4_pilot1","3ITXP059PWKE0EUBHKC7BNBATWBJSH","0","0","HELICOPTER","10","5","0","6021","Helicopter","10","2017-03-24 17:22:26","4224"
"A3FTOELF4L0OWS","cs_wg_v4_pilot1","39ASUFLU6X8ELFUIXT73DFFA33HEXZ","6","0","STOMACH","0","5","1","3143","stomach","0","2017-03-24 17:22:32","4225"
"A4IH4CO046EV3","cs_wg_v4_pilot1","3ZAK8W07I4FNDLLTKHX18JE2FKQU01","20","0","MACHINE","8","5","0","1362","machine","8","2017-03-24 17:22:33","4226"
"A36TE52PSYAAD6","cs_wg_v4_pilot1","3OUYGIZWR7ZALGDX3VY7YDR373YP00","29","0","STOMACH","1","5","1","1181","stomach","1","2017-03-24 17:22:35","4227"
"A36TE52PSYAAD6","cs_wg_v4_pilot1","3OUYGIZWR7ZALGDX3VY7YDR373YP00","30","0","BOOKSHELF","2","5","1","1480","bookshelf","2","2017-03-24 17:22:42","4228"
"A4IH4CO046EV3","cs_wg_v4_pilot1","3ZAK8W07I4FNDLLTKHX18JE2FKQU01","21","0","STOMACH","10","5","0","1529","stomach","10","2017-03-24 17:22:45","4229"
"A3FTOELF4L0OWS","cs_wg_v4_pilot1","39ASUFLU6X8ELFUIXT73DFFA33HEXZ","7","0","DOORWAY","2","5","0","1548","doorway","2","2017-03-24 17:22:49","4230"
"A36TE52PSYAAD6","cs_wg_v4_pilot1","3OUYGIZWR7ZALGDX3VY7YDR373YP00","31","0","WEDDING","0","5","1","1334","wedding","0","2017-03-24 17:22:49","4231"
"A2ZR3PL5I0KPQ6","cs_wg_v4_pilot1","3ITXP059PWKE0EUBHKC7BNBATWBJSH","1","0","STOMACH","8","5","1","8238","Stomach","8","2017-03-24 17:22:49","4232"
"A4IH4CO046EV3","cs_wg_v4_pilot1","3ZAK8W07I4FNDLLTKHX18JE2FKQU01","22","0","HELICOPTER","0","5","1","1065","helicopter","0","2017-03-24 17:22:55","4233"
"A36TE52PSYAAD6","cs_wg_v4_pilot1","3OUYGIZWR7ZALGDX3VY7YDR373YP00","32","0","KEYBOARD","10","5","0","926","keyboard","10","2017-03-24 17:22:56","4234"
"A3FTOELF4L0OWS","cs_wg_v4_pilot1","39ASUFLU6X8ELFUIXT73DFFA33HEXZ","8","0","WEDDING","0","5","0","1712","wedding","0","2017-03-24 17:22:59","4235"
"A36TE52PSYAAD6","cs_wg_v4_pilot1","3OUYGIZWR7ZALGDX3VY7YDR373YP00","33","0","DOORWAY","8","5","0","2178","doorway","8","2017-03-24 17:23:04","4236"
"A4IH4CO046EV3","cs_wg_v4_pilot1","3ZAK8W07I4FNDLLTKHX18JE2FKQU01","23","0","DOORWAY","0","5","1","1673","doorway","0","2017-03-24 17:23:04","4237"
"A3FTOELF4L0OWS","cs_wg_v4_pilot1","39ASUFLU6X8ELFUIXT73DFFA33HEXZ","9","0","HELICOPTER","1","5","0","1247","helicopter","1","2017-03-24 17:23:09","4238"
"A36TE52PSYAAD6","cs_wg_v4_pilot1","3OUYGIZWR7ZALGDX3VY7YDR373YP00","34","0","BOOKSHELF","2","5","1","1221","bookshelf","2","2017-03-24 17:23:10","4239"
"A4IH4CO046EV3","cs_wg_v4_pilot1","3ZAK8W07I4FNDLLTKHX18JE2FKQU01","24","0","DOORWAY","0","5","1","1166","doorway","0","2017-03-24 17:23:14","4240"
"A17R9PYLUB516A","cs_wg_v4_pilot1","3ZGVPD4G6TI5FTCUO6KJ9MVMED2TZ1","0","0","STRUCTURE","2","5","1","6274","structure","2","2017-03-24 17:23:16","4241"
"A36TE52PSYAAD6","cs_wg_v4_pilot1","3OUYGIZWR7ZALGDX3VY7YDR373YP00","35","0","STOMACH","1","5","1","1016","stomach","1","2017-03-24 17:23:17","4242"
"A4IH4CO046EV3","cs_wg_v4_pilot1","3ZAK8W07I4FNDLLTKHX18JE2FKQU01","25","0","UMBRELLA","1","5","1","1356","umbrella","1","2017-03-24 17:23:24","4243"
"A36TE52PSYAAD6","cs_wg_v4_pilot1","3OUYGIZWR7ZALGDX3VY7YDR373YP00","36","0","TRAFFIC","2","5","0","2182","traffic","2","2017-03-24 17:23:26","4244"
"A2ZR3PL5I0KPQ6","cs_wg_v4_pilot1","3ITXP059PWKE0EUBHKC7BNBATWBJSH","2","0","KEYBOARD","9","5","0","9879","keyboard","9","2017-03-24 17:23:27","4245"
"A17R9PYLUB516A","cs_wg_v4_pilot1","3ZGVPD4G6TI5FTCUO6KJ9MVMED2TZ1","1","0","WEDDING","9","5","1","3111","wedding","9","2017-03-24 17:23:31","4246"
"A3FTOELF4L0OWS","cs_wg_v4_pilot1","39ASUFLU6X8ELFUIXT73DFFA33HEXZ","10","0","UMBRELLA","10","5","0","5213","umbrella","10","2017-03-24 17:23:32","4247"
"A36TE52PSYAAD6","cs_wg_v4_pilot1","3OUYGIZWR7ZALGDX3VY7YDR373YP00","37","0","COMMUNITY","0","5","1","1512","community","0","2017-03-24 17:23:34","4248"
"A4IH4CO046EV3","cs_wg_v4_pilot1","3ZAK8W07I4FNDLLTKHX18JE2FKQU01","26","0","COMMUNITY","8","5","0","1408","community","8","2017-03-24 17:23:38","4249"
"A36TE52PSYAAD6","cs_wg_v4_pilot1","3OUYGIZWR7ZALGDX3VY7YDR373YP00","38","0","WEDDING","0","5","1","1182","wedding","0","2017-03-24 17:23:41","4250"
"A3FTOELF4L0OWS","cs_wg_v4_pilot1","39ASUFLU6X8ELFUIXT73DFFA33HEXZ","11","0","DOORWAY","2","5","0","4007","doorway","2","2017-03-24 17:23:44","4251"
"A17R9PYLUB516A","cs_wg_v4_pilot1","3ZGVPD4G6TI5FTCUO6KJ9MVMED2TZ1","2","0","UMBRELLA","8","5","1","1707","umbrella","8","2017-03-24 17:23:44","4252"
"A2ZR3PL5I0KPQ6","cs_wg_v4_pilot1","3ITXP059PWKE0EUBHKC7BNBATWBJSH","3","0","BASKET","1","5","0","4527","Basket","1","2017-03-24 17:23:46","4253"
"A36TE52PSYAAD6","cs_wg_v4_pilot1","3OUYGIZWR7ZALGDX3VY7YDR373YP00","39","0","LADDER","9","5","0","936","ladder","9","2017-03-24 17:23:47","4254"
"A4IH4CO046EV3","cs_wg_v4_pilot1","3ZAK8W07I4FNDLLTKHX18JE2FKQU01","27","0","FOOTBALL","10","5","0","1787","football","10","2017-03-24 17:23:47","4255"
"A36TE52PSYAAD6","cs_wg_v4_pilot1","3OUYGIZWR7ZALGDX3VY7YDR373YP00","40","0","LADDER","9","5","0","650","ladder","9","2017-03-24 17:23:52","4256"
"A3FTOELF4L0OWS","cs_wg_v4_pilot1","39ASUFLU6X8ELFUIXT73DFFA33HEXZ","12","0","MACHINE","10","5","0","5322","machine","10","2017-03-24 17:23:57","4257"
"A17R9PYLUB516A","cs_wg_v4_pilot1","3ZGVPD4G6TI5FTCUO6KJ9MVMED2TZ1","3","0","COMMUNITY","2","5","0","3167","community","2","2017-03-24 17:23:57","4258"
"A36TE52PSYAAD6","cs_wg_v4_pilot1","3OUYGIZWR7ZALGDX3VY7YDR373YP00","41","0","BASKET","9","5","0","870","basket","9","2017-03-24 17:23:59","4259"
"A4IH4CO046EV3","cs_wg_v4_pilot1","3ZAK8W07I4FNDLLTKHX18JE2FKQU01","28","0","BASKET","2","5","1","1760","basket","2","2017-03-24 17:24:00","4260"
"A36TE52PSYAAD6","cs_wg_v4_pilot1","3OUYGIZWR7ZALGDX3VY7YDR373YP00","42","0","BOOKSHELF","2","5","1","1134","bookshelf","2","2017-03-24 17:24:05","4261"
"A2ZR3PL5I0KPQ6","cs_wg_v4_pilot1","3ITXP059PWKE0EUBHKC7BNBATWBJSH","4","0","KEYBOARD","9","5","0","6362","keyboard","9
","2017-03-24 17:24:08","4262"
"A17R9PYLUB516A","cs_wg_v4_pilot1","3ZGVPD4G6TI5FTCUO6KJ9MVMED2TZ1","4","0","COMMUNITY","2","5","1","1868","community","2","2017-03-24 17:24:11","4263"
"A4IH4CO046EV3","cs_wg_v4_pilot1","3ZAK8W07I4FNDLLTKHX18JE2FKQU01","29","0","MACHINE","8","5","0","2614","machine","8","2017-03-24 17:24:13","4264"
"A36TE52PSYAAD6","cs_wg_v4_pilot1","3OUYGIZWR7ZALGDX3VY7YDR373YP00","43","0","STOMACH","1","5","1","952","stomach","1","2017-03-24 17:24:13","4265"
"A36TE52PSYAAD6","cs_wg_v4_pilot1","3OUYGIZWR7ZALGDX3VY7YDR373YP00","44","0","COMMUNITY","0","5","1","892","community","0","2017-03-24 17:24:20","4266"
"A3FTOELF4L0OWS","cs_wg_v4_pilot1","39ASUFLU6X8ELFUIXT73DFFA33HEXZ","13","0","COMMUNITY","8","5","0","15334","community","8","2017-03-24 17:24:22","4267"
"A4IH4CO046EV3","cs_wg_v4_pilot1","3ZAK8W07I4FNDLLTKHX18JE2FKQU01","30","0","LADDER","9","5","1","1200","ladder","9","2017-03-24 17:24:22","4268"
"A36TE52PSYAAD6","cs_wg_v4_pilot1","3OUYGIZWR7ZALGDX3VY7YDR373YP00","45","0","TRAFFIC","2","5","1","1299","traffic","2","2017-03-24 17:24:27","4269"
"A17R9PYLUB516A","cs_wg_v4_pilot1","3ZGVPD4G6TI5FTCUO6KJ9MVMED2TZ1","5","0","STRUCTURE","2","5","1","3954","structure","2","2017-03-24 17:24:28","4270"
"A2ZR3PL5I0KPQ6","cs_wg_v4_pilot1","3ITXP059PWKE0EUBHKC7BNBATWBJSH","5","0","HELICOPTER","10","5","0","8393","helicopter","10","2017-03-24 17:24:30","4271"
"A3FTOELF4L0OWS","cs_wg_v4_pilot1","39ASUFLU6X8ELFUIXT73DFFA33HEXZ","14","0","KEYBOARD","1","5","0","1377","keyboard","1","2017-03-24 17:24:31","4272"
"A4IH4CO046EV3","cs_wg_v4_pilot1","3ZAK8W07I4FNDLLTKHX18JE2FKQU01","31","0","WEDDING","2","5","0","1513","wedding","2","2017-03-24 17:24:31","4273"
"A36TE52PSYAAD6","cs_wg_v4_pilot1","3OUYGIZWR7ZALGDX3VY7YDR373YP00","46","0","STOMACH","1","5","1","807","stomach","1","2017-03-24 17:24:33","4274"
"A17R9PYLUB516A","cs_wg_v4_pilot1","3ZGVPD4G6TI5FTCUO6KJ9MVMED2TZ1","6","0","KEYBOARD","0","5","1","1922","keyboard","0","2017-03-24 17:24:40","4275"
"A36TE52PSYAAD6","cs_wg_v4_pilot1","3OUYGIZWR7ZALGDX3VY7YDR373YP00","47","0","STRUCTURE","8","5","0","1054","structure","8","2017-03-24 17:24:41","4276"
"A4IH4CO046EV3","cs_wg_v4_pilot1","3ZAK8W07I4FNDLLTKHX18JE2FKQU01","32","0","STRUCTURE","9","5","1","2218","structure","9","2017-03-24 17:24:43","4277"
"A3FTOELF4L0OWS","cs_wg_v4_pilot1","39ASUFLU6X8ELFUIXT73DFFA33HEXZ","15","0","BASKET","10","5","1","4288","basket","10","2017-03-24 17:24:45","4278"
"A36TE52PSYAAD6","cs_wg_v4_pilot1","3OUYGIZWR7ZALGDX3VY7YDR373YP00","48","0","BASKET","9","5","0","868","basket","9","2017-03-24 17:24:47","4279"
"A17R9PYLUB516A","cs_wg_v4_pilot1","3ZGVPD4G6TI5FTCUO6KJ9MVMED2TZ1","7","0","DOORWAY","8","5","1","1508","doorway","8","2017-03-24 17:24:52","4280"
"A4IH4CO046EV3","cs_wg_v4_pilot1","3ZAK8W07I4FNDLLTKHX18JE2FKQU01","33","0","STOMACH","10","5","0","1671","stomach","10","2017-03-24 17:24:53","4281"
"A3FTOELF4L0OWS","cs_wg_v4_pilot1","39ASUFLU6X8ELFUIXT73DFFA33HEXZ","16","0","STRUCTURE","9","5","0","2207","structure","9","2017-03-24 17:24:56","4282"
"A36TE52PSYAAD6","cs_wg_v4_pilot1","3OUYGIZWR7ZALGDX3VY7YDR373YP00","49","0","DOORWAY","8","5","0","6769","doorway","8","2017-03-24 17:25:00","4283"
"A2ZR3PL5I0KPQ6","cs_wg_v4_pilot1","3ITXP059PWKE0EUBHKC7BNBATWBJSH","6","0","UMBRELLA","2","5","1","6992","umbrella","2","2017-03-24 17:25:05","4284"
"A17R9PYLUB516A","cs_wg_v4_pilot1","3ZGVPD4G6TI5FTCUO6KJ9MVMED2TZ1","8","0","UMBRELLA","8","5","0","2351","umbrella","8","2017-03-24 17:25:06","4285"
"A3FTOELF4L0OWS","cs_wg_v4_pilot1","39ASUFLU6X8ELFUIXT73DFFA33HEXZ","17","0","BASKET","10","5","0","2560","basket","10","2017-03-24 17:25:07","4286"
"A36TE52PSYAAD6","cs_wg_v4_pilot1","3OUYGIZWR7ZALGDX3VY7YDR373YP00","50","0","KEYBOARD","10","5","0","746","keyboard","10","2017-03-24 17:25:07","4287"
"A4IH4CO046EV3","cs_wg_v4_pilot1","3ZAK8W07I4FNDLLTKHX18JE2FKQU01","34","0","BASKET","2","5","1","1411","basket","2","2017-03-24 17:25:08","4288"
"A36TE52PSYAAD6","cs_wg_v4_pilot1","3OUYGIZWR7ZALGDX3VY7YDR373YP00","51","0","MACHINE","10","5","0","889","machine","10","2017-03-24 17:25:14","4289"
"A17R9PYLUB516A","cs_wg_v4_pilot1","3ZGVPD4G6TI5FTCUO6KJ9MVMED2TZ1","9","0","MACHINE","0","5","1","1246","machine","0","2017-03-24 17:25:18","4290"
"A4IH4CO046EV3","cs_wg_v4_pilot1","3ZAK8W07I4FNDLLTKHX18JE2FKQU01","35","0","MACHINE","8","5","0","1583","machine","8","2017-03-24 17:25:19","4291"
"A3FTOELF4L0OWS","cs_wg_v4_pilot1","39ASUFLU6X8ELFUIXT73DFFA33HEXZ","18","0","WEDDING","0","5","1","3186","wedding","0","2017-03-24 17:25:20","4292"
"A36TE52PSYAAD6","cs_wg_v4_pilot1","3OUYGIZWR7ZALGDX3VY7YDR373YP00","52","0","STRUCTURE","8","5","0","713","structure","8","2017-03-24 17:25:21","4293"
"A2ZR3PL5I0KPQ6","cs_wg_v4_pilot1","3ITXP059PWKE0EUBHKC7BNBATWBJSH","7","0","BOOKSHELF","10","5","1","9207","bookshelf","10","2017-03-24 17:25:27","4294"
"A4IH4CO046EV3","cs_wg_v4_pilot1","3ZAK8W07I4FNDLLTKHX18JE2FKQU01","36","0","UMBRELLA","1","5","1","1167","umbrella","1","2017-03-24 17:25:28","4295"
"A36TE52PSYAAD6","cs_wg_v4_pilot1","3OUYGIZWR7ZALGDX3VY7YDR373YP00","53","0","HELICOPTER","1","5","0","1247","helicopter","1","2017-03-24 17:25:29","4296"
"A17R9PYLUB516A","cs_wg_v4_pilot1","3ZGVPD4G6TI5FTCUO6KJ9MVMED2TZ1","10","0","COMMUNITY","2","5","1","3276","community","2","2017-03-24 17:25:30","4297"
"A3FTOELF4L0OWS","cs_wg_v4_pilot1","39ASUFLU6X8ELFUIXT73DFFA33HEXZ","19","0","BOOKSHELF","8","5","0","1536","bookshelf","8","2017-03-24 17:25:31","4298"
"A36TE52PSYAAD6","cs_wg_v4_pilot1","3OUYGIZWR7ZALGDX3VY7YDR373YP00","54","0","LADDER","9","5","0","702","ladder","9","2017-03-24 17:25:34","4299"
"A4IH4CO046EV3","cs_wg_v4_pilot1","3ZAK8W07I4FNDLLTKHX18JE2FKQU01","37","0","LADDER","9","5","0","1821","ladder","9","2017-03-24 17:25:37","4300"
"A36TE52PSYAAD6","cs_wg_v4_pilot1","3OUYGIZWR7ZALGDX3VY7YDR373YP00","55","0","DOORWAY","8","5","0","823","doorway","8","2017-03-24 17:25:41","4301"
"A17R9PYLUB516A","cs_wg_v4_pilot1","3ZGVPD4G6TI5FTCUO6KJ9MVMED2TZ1","11","0","FOOTBALL","9","5","1","1597","football","9","2017-03-24 17:25:42","4302"
"A2ZR3PL5I0KPQ6","cs_wg_v4_pilot1","3ITXP059PWKE0EUBHKC7BNBATWBJSH","8","0","TRAFFIC","2","5","0","6511","traffic","2","2017-03-24 17:25:46","4303"
"A3FTOELF4L0OWS","cs_wg_v4_pilot1","39ASUFLU6X8ELFUIXT73DFFA33HEXZ","20","0","MACHINE","10","5","0","6246","machine","10","2017-03-24 17:25:46","4304"
"A36TE52PSYAAD6","cs_wg_v4_pilot1","3OUYGIZWR7ZALGDX3VY7YDR373YP00","56","0","TRAFFIC","2","5","1","984","traffic","2","2017-03-24 17:25:47","4305"
"A4IH4CO046EV3","cs_wg_v4_pilot1","3ZAK8W07I4FNDLLTKHX18JE2FKQU01","38","0","BASKET","2","5","1","1562","basket","2","2017-03-24 17:25:49","4306"
"A36TE52PSYAAD6","cs_wg_v4_pilot1","3OUYGIZWR7ZALGDX3VY7YDR373YP00","57","0","STOMACH","1","5","1","860","stomach","1","2017-03-24 17:25:53","4307"
"A17R9PYLUB516A","cs_wg_v4_pilot1","3ZGVPD4G6TI5FTCUO6KJ9MVMED2TZ1","12","0","KEYBOARD","0","5","1","2365","keyboard","0","2017-03-24 17:25:54","4308"
"A3FTOELF4L0OWS","cs_wg_v4_pilot1","39ASUFLU6X8ELFUIXT73DFFA33HEXZ","21","0","BOOKSHELF","8","5","0","3170","bookshelf","8","2017-03-24 17:25:58","4309"
"A36TE52PSYAAD6","cs_wg_v4_pilot1","3OUYGIZWR7ZALGDX3VY7YDR373YP00","58","0","WEDDING","0","5","1","696","wedding","0","2017-03-24 17:26:03","4310"
"A4IH4CO046EV3","cs_wg_v4_pilot1","3ZAK8W07I4FNDLLTKHX18JE2FKQU01","39","0","UMBRELLA","1","5","1","1235","umbrella","2","2017-03-24 17:26:04","4311"
"A2ZR3PL5I0KPQ6","cs_wg_v4_pilot1","3ITXP059PWKE0EUBHKC7BNBATWBJSH","9","0","DOORWAY","10","5","0","5651","doorway","10","2017-03-24 17:26:05","4312"
"A17R9PYLUB516A","cs_wg_v4_pilot1","3ZGVPD4G6TI5FTCUO6KJ9MVMED2TZ1","13","0","WEDDING","9","5","0","1753","wedding","9","2017-03-24 17:26:06","4313"
"A36TE52PSYAAD6","cs_wg_v4_pilot1","3OUYGIZWR7ZALGDX3VY7YDR373YP00","59","0","HELICOPTER","1","5","1","1015","helicopter","1","2017-03-24 17:26:09","4314"
"A3FTOELF4L0OWS","cs_wg_v4_pilot1","39ASUFLU6X8ELFUIXT73DFFA33HEXZ","22","0","TRAFFIC","0","5","0","1542","traffic","0","2017-03-24 17:26:10","4315"
"A4IH4CO046EV3","cs_wg_v4_pilot1","3ZAK8W07I4FNDLLTKHX18JE2FKQU01","40","0","DOORWAY","0","5","0","1701","doorway","0","2017-03-24 17:26:14","4316"
"A36TE52PSYAAD6","cs_wg_v4_pilot1","3OUYGIZWR7ZALGDX3VY7YDR373YP00","60","0","BOOKSHELF","2","5","1","1144","bookshelf","2","2017-03-24 17:26:17","4317"
"A17R9PYLUB516A","cs_wg_v4_pilot1","3ZGVPD4G6TI5FTCUO6KJ9MVMED2TZ1","14","0","FOOTBALL","9","5","1","2237","football","9","2017-03-24 17:26:18","4318"
"A4IH4CO046EV3","cs_wg_v4_pilot1","3ZAK8W07I4FNDLLTKHX18JE2FKQU01","41","0","MACHINE","8","5","0","1359","machine","8","2017-03-24 17:26:22","4319"
"A2ZR3PL5I0KPQ6","cs_wg_v4_pilot1","3ITXP059PWKE0EUBHKC7BNBATWBJSH","10","0","UMBRELLA","2","5","1","5657","umbrella","2","2017-03-24 17:26:23","4320"
"A36TE52PSYAAD6","cs_wg_v4_pilot1","3OUYGIZWR7ZALGDX3VY7YDR373YP00","61","0","HELICOPTER","1","5","1","677","helicopter","1","2017-03-24 17:26:25","4321"
"A3FTOELF4L0OWS","cs_wg_v4_pilot1","39ASUFLU6X8ELFUIXT73DFFA33HEXZ","23","0","BASKET","10","5","0","5193","basket","10","2017-03-24 17:26:28","4322"
"A17R9PYLUB516A","cs_wg_v4_pilot1","3ZGVPD4G6TI5FTCUO6KJ9MVMED2TZ1","15","0","MACHINE","0","5","1","1429","machine","0","2017-03-24 17:26:29","4323"
"A36TE52PSYAAD6","cs_wg_v4_pilot1","3OUYGIZWR7ZALGDX3VY7YDR373YP00","62","0","KEYBOARD","10","5","0","984","keyboard","10","2017-03-24 17:26:32","4324"
"A4IH4CO046EV3","cs_wg_v4_pilot1","3ZAK8W07I4FNDLLTKHX18JE2FKQU01","42","0","COMMUNITY","8","5","0","1247","community","8","2017-03-24 17:26:32","4325"
"A3FTOELF4L0OWS","cs_wg_v4_pilot1","39ASUFLU6X8ELFUIXT73DFFA33HEXZ","24","0","KEYBOARD","1","5","0","2327","keyboard","1","2017-03-24 17:26:39","4326"
"A36TE52PSYAAD6","cs_wg_v4_pilot1","3OUYGIZWR7ZALGDX3VY7YDR373YP00","63","0","DOORWAY","8","5","0","1085","doorway","8","2017-03-24 17:26:40","4327"
"A4IH4CO046EV3","cs_wg_v4_pilot1","3ZAK8W07I4FNDLLTKHX18JE2FKQU01","43","0","LADDER","9","5","0","1362","ladder","9","2017-03-24 17:26:40","4328"
"A17R9PYLUB516A","cs_wg_v4_pilot1","3ZGVPD4G6TI5FTCUO6KJ9MVMED2TZ1","16","0","COMMUNITY","2","5","1","1723","community","2","2017-03-24 17:26:40","4329"
"A2ZR3PL5I0KPQ6","cs_wg_v4_pilot1","3ITXP059PWKE0EUBHKC7BNBATWBJSH","11","0","MACHINE","0","5","0","6573","machine","0","2017-03-24 17:26:42","4330"
"A36TE52PSYAAD6","cs_wg_v4_pilot1","3OUYGIZWR7ZALGDX3VY7YDR373YP00","64","0","TRAFFIC","2","5","1","1398","traffic","2","2017-03-24 17:26:46","4331"
"A4IH4CO046EV3","cs_wg_v4_pilot1","3ZAK8W07I4FNDLLTKHX18JE2FKQU01","44","0","BASKET","2","5","1","1296","basket","2","2017-03-24 17:26:50","4332"
"A17R9PYLUB516A","cs_wg_v4_pilot1","3ZGVPD4G6TI5FTCUO6KJ9MVMED2TZ1","17","0","LADDER","10","5","1","1712","ladder","10","2017-03-24 17:26:51","4333"
"A36TE52PSYAAD6","cs_wg_v4_pilot1","3OUYGIZWR7ZALGDX3VY7YDR373YP00","65","0","STRUCTURE","8","5","0","808","structure","8","2017-03-24 17:26:52","4334"
"A3FTOELF4L0OWS","cs_wg_v4_pilot1","39ASUFLU6X8ELFUIXT73DFFA33HEXZ","25","0","TRAFFIC","0","5","1","5900","traffic ","0","2017-03-24 17:26:53","4335"
"A4IH4CO046EV3","cs_wg_v4_pilot1","3ZAK8W07I4FNDLLTKHX18JE2FKQU01","45","0","BASKET","2","5","1","1238","basket","2","2017-03-24 17:26:58","4336"
"A36TE52PSYAAD6","cs_wg_v4_pilot1","3OUYGIZWR7ZALGDX3VY7YDR373YP00","66","0","FOOTBALL","0","5","1","889","football","0","2017-03-24 17:27:00","4337"
"A3G6L97AX9KR7F","cs_wg_v4_pilot1","3D4CH1LGEAUM4X8B08RDXFE49G59GS","0","0","TRAFFIC","10","5","1","7923","TRAFFIC","10","2017-03-24 17:27:02","4338"
"A2ZR3PL5I0KPQ6","cs_wg_v4_pilot1","3ITXP059PWKE0EUBHKC7BNBATWBJSH","12","0","DOORWAY","10","5","0","6823","doorway","10","2017-03-24 17:27:02","4339"
"A17R9PYLUB516A","cs_wg_v4_pilot1","3ZGVPD4G6TI5FTCUO6KJ9MVMED2TZ1","18","0","KEYBOARD","0","5","1","1345","keyboard","0","2017-03-24 17:27:03","4340"
"A3FTOELF4L0OWS","cs_wg_v4_pilot1","39ASUFLU6X8ELFUIXT73DFFA33HEXZ","26","0","COMMUNITY","8","5","0","3878","community","8","2017-03-24 17:27:05","4341"
"A36TE52PSYAAD6","cs_wg_v4_pilot1","3OUYGIZWR7ZALGDX3VY7YDR373YP00","67","0","LADDER","9","5","0","853","ladder","9","2017-03-24 17:27:06","4342"
"A4IH4CO046EV3","cs_wg_v4_pilot1","3ZAK8W07I4FNDLLTKHX18JE2FKQU01","46","0","COMMUNITY","8","5","0","1112","community","8","2017-03-24 17:27:12","4343"
"A36TE52PSYAAD6","cs_wg_v4_pilot1","3OUYGIZWR7ZALGDX3VY7YDR373YP00","68","0","TRAFFIC","2","5","1","796","traffic","2","2017-03-24 17:27:12","4344"
"A3FTOELF4L0OWS","cs_wg_v4_pilot1","39ASUFLU6X8ELFUIXT73DFFA33HEXZ","27","0","LADDER","9","5","0","1405","ladder","9","2017-03-24 17:27:14","4345"
"A17R9PYLUB516A","cs_wg_v4_pilot1","3ZGVPD4G6TI5FTCUO6KJ9MVMED2TZ1","19","0","WEDDING","9","5","0","1874","wedding","9","2017-03-24 17:27:14","4346"
"A36TE52PSYAAD6","cs_wg_v4_pilot1","3OUYGIZWR7ZALGDX3VY7YDR373YP00","69","0","WEDDING","0","5","1","665","wedding","0","2017-03-24 17:27:18","4347"
"A2ZR3PL5I0KPQ6","cs_wg_v4_pilot1","3ITXP059PWKE0EUBHKC7BNBATWBJSH","13","0","COMMUNITY","0","5","0","4109","community","0","2017-03-24 17:27:19","4348"
"A4IH4CO046EV3","cs_wg_v4_pilot1","3ZAK8W07I4FNDLLTKHX18JE2FKQU01","47","0","COMMUNITY","8","5","0","1475","community","8","2017-03-24 17:27:24","4349"
"A36TE52PSYAAD6","cs_wg_v4_pilot1","3OUYGIZWR7ZALGDX3VY7YDR373YP00","70","0","UMBRELLA","10","5","0","849","umbrella","10","2017-03-24 17:27:25","4350"
"A17R9PYLUB516A","cs_wg_v4_pilot1","3ZGVPD4G6TI5FTCUO6KJ9MVMED2TZ1","20","0","COMMUNITY","2","5","1","1302","community","2","2017-03-24 17:27:25","4351"
"A3FTOELF4L0OWS","cs_wg_v4_pilot1","39ASUFLU6X8ELFUIXT73DFFA33HEXZ","28","0","FOOTBALL","2","5","1","2825","football ","2","2017-03-24 17:27:25","4352"
"A3G6L97AX9KR7F","cs_wg_v4_pilot1","3D4CH1LGEAUM4X8B08RDXFE49G59GS","1","0","BOOKSHELF","8","5","1","6076","BOOKSHELF","8","2017-03-24 17:27:31","4353"
"A36TE52PSYAAD6","cs_wg_v4_pilot1","3OUYGIZWR7ZALGDX3VY7YDR373YP00","71","0","BASKET","9","5","0","680","basket","9","2017-03-24 17:27:31","4354"
"A3FTOELF4L0OWS","cs_wg_v4_pilot1","39ASUFLU6X8ELFUIXT73DFFA33HEXZ","29","0","LADDER","9","5","0","1688","ladder","9","2017-03-24 17:27:33","4355"
"A4IH4CO046EV3","cs_wg_v4_pilot1","3ZAK8W07I4FNDLLTKHX18JE2FKQU01","48","0","WEDDING","2","5","1","2726","WEDDING","2","2017-03-24 17:27:34","4356"
"A2ZR3PL5I0KPQ6","cs_wg_v4_pilot1","3ITXP059PWKE0EUBHKC7BNBATWBJSH","14","0","MACHINE","0","5","1","3326","machine","0","2017-03-24 17:27:36","4357"
"A17R9PYLUB516A","cs_wg_v4_pilot1","3ZGVPD4G6TI5FTCUO6KJ9MVMED2TZ1","21","0","HELICOPTER","0","5","1","1254","helicopter","0","2017-03-24 17:27:37","4358"
"A36TE52PSYAAD6","cs_wg_v4_pilot1","3OUYGIZWR7ZALGDX3VY7YDR373YP00","72","0","KEYBOARD","10","5","0","919","keyboard","10","2017-03-24 17:27:38","4359"
"A4IH4CO046EV3","cs_wg_v4_pilot1","3ZAK8W07I4FNDLLTKHX18JE2FKQU01","49","0","BOOKSHELF","0","5","0","1772","BOOKSHELF","0","2017-03-24 17:27:43","4360"
"A3FTOELF4L0OWS","cs_wg_v4_pilot1","39ASUFLU6X8ELFUIXT73DFFA33HEXZ","30","0","DOORWAY","2","5","0","1895","doorway","2","2017-03-24 17:27:43","4361"
"A36TE52PSYAAD6","cs_wg_v4_pilot1","3OUYGIZWR7ZALGDX3VY7YDR373YP00","73","0","HELICOPTER","1","5","1","801","helicopter","1","2017-03-24 17:27:47","4362"
"A17R9PYLUB516A","cs_wg_v4_pilot1","3ZGVPD4G6TI5FTCUO6KJ9MVMED2TZ1","22","0","BASKET","10","5","1","1407","basket","10","2017-03-24 17:27:47","4363"
"A2ZR3PL5I0KPQ6","cs_wg_v4_pilot1","3ITXP059PWKE0EUBHKC7BNBATWBJSH","15","0","BASKET","1","5","1","3784","basket","1","2017-03-24 17:27:52","4364"
"A3FTOELF4L0OWS","cs_wg_v4_pilot1","39ASUFLU6X8ELFUIXT73DFFA33HEXZ","31","0","FOOTBALL","2","5","1","1976","football","2","2017-03-24 17:27:52","4365"
"A36TE52PSYAAD6","cs_wg_v4_pilot1","3OUYGIZWR7ZALGDX3VY7YDR373YP00","74","0","UMBRELLA","10","5","0","873","umbrella","10","2017-03-24 17:27:53","4366"
"A4IH4CO046EV3","cs_wg_v4_pilot1","3ZAK8W07I4FNDLLTKHX18JE2FKQU01","50","0","TRAFFIC","10","5","0","2090","TRAFFIC","10","2017-03-24 17:27:53","4367"
"A3G6L97AX9KR7F","cs_wg_v4_pilot1","3D4CH1LGEAUM4X8B08RDXFE49G59GS","2","0","FOOTBALL","0","5","1","4257","FOOTBALL","0","2017-03-24 17:27:55","4368"
"A36TE52PSYAAD6","cs_wg_v4_pilot1","3OUYGIZWR7ZALGDX3VY7YDR373YP00","75","0","DOORWAY","8","5","0","1034","doorway","8","2017-03-24 17:27:59","4369"
"A3FTOELF4L0OWS","cs_wg_v4_pilot1","39ASUFLU6X8ELFUIXT73DFFA33HEXZ","32","0","TRAFFIC","0","5","1","2927","traffic ","0","2017-03-24 17:28:03","4370"
"A4IH4CO046EV3","cs_wg_v4_pilot1","3ZAK8W07I4FNDLLTKHX18JE2FKQU01","51","0","LADDER","9","5","0","1403","LADDER","9","2017-03-24 17:28:05","4371"
"A17R9PYLUB516A","cs_wg_v4_pilot1","3ZGVPD4G6TI5FTCUO6KJ9MVMED2TZ1","23","0","STOMACH","10","5","1","1136","stomach","10","2017-03-24 17:28:05","4372"
"A36TE52PSYAAD6","cs_wg_v4_pilot1","3OUYGIZWR7ZALGDX3VY7YDR373YP00","76","0","UMBRELLA","10","5","0","655","umbrella","10","2017-03-24 17:28:06","4373"
"A17R9PYLUB516A","cs_wg_v4_pilot1","3ZGVPD4G6TI5FTCUO6KJ9MVMED2TZ1","24","0","TRAFFIC","1","5","1","1011","traffic","1","2017-03-24 17:28:09","4374"
"A3FTOELF4L0OWS","cs_wg_v4_pilot1","39ASUFLU6X8ELFUIXT73DFFA33HEXZ","33","0","BOOKSHELF","8","5","0","1667","bookshelf","8","2017-03-24 17:28:12","4375"
"A3G6L97AX9KR7F","cs_wg_v4_pilot1","3D4CH1LGEAUM4X8B08RDXFE49G59GS","3","0","BOOKSHELF","8","5","0","3488","BOOKSHELF","8","2017-03-24 17:28:13","4376"
"A36TE52PSYAAD6","cs_wg_v4_pilot1","3OUYGIZWR7ZALGDX3VY7YDR373YP00","77","0","KEYBOARD","10","5","0","828","keyboard","10","2017-03-24 17:28:14","4377"
"A2ZR3PL5I0KPQ6","cs_wg_v4_pilot1","3ITXP059PWKE0EUBHKC7BNBATWBJSH","16","0","TRAFFIC","2","5","1","14512","traffic","2","2017-03-24 17:28:17","4378"
"A4IH4CO046EV3","cs_wg_v4_pilot1","3ZAK8W07I4FNDLLTKHX18JE2FKQU01","52","0","BOOKSHELF","0","5","1","2627","BOOKSHELF","0","2017-03-24 17:28:17","4379"
"A36TE52PSYAAD6","cs_wg_v4_pilot1","3OUYGIZWR7ZALGDX3VY7YDR373YP00","78","0","TRAFFIC","2","5","1","854","traffic","2","2017-03-24 17:28:21","4380"
"A3FTOELF4L0OWS","cs_wg_v4_pilot1","39ASUFLU6X8ELFUIXT73DFFA33HEXZ","34","0","BASKET","10","5","0","1190","basket","10","2017-03-24 17:28:22","4381"
"A17R9PYLUB516A","cs_wg_v4_pilot1","3ZGVPD4G6TI5FTCUO6KJ9MVMED2TZ1","25","0","HELICOPTER","0","5","0","3115","helicopter","0","2017-03-24 17:28:26","4382"
"A4IH4CO046EV3","cs_wg_v4_pilot1","3ZAK8W07I4FNDLLTKHX18JE2FKQU01","53","0","FOOTBALL","10","5","0","1602","FOOTBALL","10","2017-03-24 17:28:26","4383"
"A3G6L97AX9KR7F","cs_wg_v4_pilot1","3D4CH1LGEAUM4X8B08RDXFE49G59GS","4","0","FOOTBALL","0","5","1","3152","FOOTBALL","0","2017-03-24 17:28:30","4384"
"A3FTOELF4L0OWS","cs_wg_v4_pilot1","39ASUFLU6X8ELFUIXT73DFFA33HEXZ","35","0","STRUCTURE","9","5","0","2008","structure","9","2017-03-24 17:28:33","4385"
"A36TE52PSYAAD6","cs_wg_v4_pilot1","3OUYGIZWR7ZALGDX3VY7YDR373YP00","79","0","UMBRELLA","10","5","0","1070","umbrella","10","2017-03-24 17:28:33","4386"
"A2ZR3PL5I0KPQ6","cs_wg_v4_pilot1","3ITXP059PWKE0EUBHKC7BNBATWBJSH","17","0","UMBRELLA","2","5","1","5879","umbrella","2","2017-03-24 17:28:36","4387"
"A4IH4CO046EV3","cs_wg_v4_pilot1","3ZAK8W07I4FNDLLTKHX18JE2FKQU01","54","0","STOMACH","10","5","0","1769","STOMACH","10","2017-03-24 17:28:37","4388"
"A17R9PYLUB516A","cs_wg_v4_pilot1","3ZGVPD4G6TI5FTCUO6KJ9MVMED2TZ1","26","0","KEYBOARD","0","5","1","2444","keyboard","0","2017-03-24 17:28:38","4389"
"A36TE52PSYAAD6","cs_wg_v4_pilot1","3OUYGIZWR7ZALGDX3VY7YDR373YP00","80","0","KEYBOARD","10","5","0","820","keyboard","10","2017-03-24 17:28:42","4390"
"A3G6L97AX9KR7F","cs_wg_v4_pilot1","3D4CH1LGEAUM4X8B08RDXFE49G59GS","5","0","BOOKSHELF","8","5","0","2921","BOOKSHELF","8","2017-03-24 17:28:46","4391"
"A3FTOELF4L0OWS","cs_wg_v4_pilot1","39ASUFLU6X8ELFUIXT73DFFA33HEXZ","36","0","MACHINE","10","5","0","1360","structure","9","2017-03-24 17:28:46","4392"
"A4IH4CO046EV3","cs_wg_v4_pilot1","3ZAK8W07I4FNDLLTKHX18JE2FKQU01","55","0","WEDDING","2","5","1","2374","WEDDING","2","2017-03-24 17:28:46","4393"
"A36TE52PSYAAD6","cs_wg_v4_pilot1","3OUYGIZWR7ZALGDX3VY7YDR373YP00","81","0","STRUCTURE","8","5","0","841","structure","8","2017-03-24 17:28:48","4394"
"A17R9PYLUB516A","cs_wg_v4_pilot1","3ZGVPD4G6TI5FTCUO6KJ9MVMED2TZ1","27","0","BASKET","10","5","0","2526","basket","10","2017-03-24 17:28:50","4395"
"A4IH4CO046EV3","cs_wg_v4_pilot1","3ZAK8W07I4FNDLLTKHX18JE2FKQU01","56","0","BOOKSHELF","0","5","1","1547","BOOKSHELF","0","2017-03-24 17:28:54","4396"
"A2ZR3PL5I0KPQ6","cs_wg_v4_pilot1","3ITXP059PWKE0EUBHKC7BNBATWBJSH","18","0","STRUCTURE","9","5","0","4830","structure","9","2017-03-24 17:28:54","4397"
"A36TE52PSYAAD6","cs_wg_v4_pilot1","3OUYGIZWR7ZALGDX3VY7YDR373YP00","82","0","UMBRELLA","10","5","0","890","umbrella","10","2017-03-24 17:28:55","4398"
"A36TE52PSYAAD6","cs_wg_v4_pilot1","3OUYGIZWR7ZALGDX3VY7YDR373YP00","83","0","DOORWAY","8","5","0","555","doorway","8","2017-03-24 17:29:01","4399"
"A3FTOELF4L0OWS","cs_wg_v4_pilot1","39ASUFLU6X8ELFUIXT73DFFA33HEXZ","37","0","LADDER","9","5","1","3193","ladder","9","2017-03-24 17:29:02","4400"
"A17R9PYLUB516A","cs_wg_v4_pilot1","3ZGVPD4G6TI5FTCUO6KJ9MVMED2TZ1","28","0","STOMACH","10","5","0","2258","stomach","10","2017-03-24 17:29:03","4401"
"A4IH4CO046EV3","cs_wg_v4_pilot1","3ZAK8W07I4FNDLLTKHX18JE2FKQU01","57","0","MACHINE","8","5","0","1208","MACHINE ","8","2017-03-24 17:29:03","4402"
"A36TE52PSYAAD6","cs_wg_v4_pilot1","3OUYGIZWR7ZALGDX3VY7YDR373YP00","84","0","HELICOPTER","1","5","1","755","helicopter","1","2017-03-24 17:29:07","4403"
"A2ZR3PL5I0KPQ6","cs_wg_v4_pilot1","3ITXP059PWKE0EUBHKC7BNBATWBJSH","19","0","UMBRELLA","2","5","1","3091","umbrella","2","2017-03-24 17:29:08","4404"
"A4IH4CO046EV3","cs_wg_v4_pilot1","3ZAK8W07I4FNDLLTKHX18JE2FKQU01","58","0","UMBRELLA","1","5","1","2101","UMBRELLA","1","2017-03-24 17:29:12","4405"
"A3G6L97AX9KR7F","cs_wg_v4_pilot1","3D4CH1LGEAUM4X8B08RDXFE49G59GS","6","0","COMMUNITY","9","5","1","4009","COMMUNITY","9","2017-03-24 17:29:12","4406"
"A36TE52PSYAAD6","cs_wg_v4_pilot1","3OUYGIZWR7ZALGDX3VY7YDR373YP00","85","0","FOOTBALL","0","5","1","733","football","0","2017-03-24 17:29:13","4407"
"A3FTOELF4L0OWS","cs_wg_v4_pilot1","39ASUFLU6X8ELFUIXT73DFFA33HEXZ","38","0","STOMACH","0","5","0","2122","stomach","0","2017-03-24 17:29:13","4408"
"A17R9PYLUB516A","cs_wg_v4_pilot1","3ZGVPD4G6TI5FTCUO6KJ9MVMED2TZ1","29","0","DOORWAY","8","5","1","1630","doorway","8","2017-03-24 17:29:14","4409"
"A4IH4CO046EV3","cs_wg_v4_pilot1","3ZAK8W07I4FNDLLTKHX18JE2FKQU01","59","0","LADDER","9","5","0","1401","LADDER","9","2017-03-24 17:29:19","4410"
"A36TE52PSYAAD6","cs_wg_v4_pilot1","3OUYGIZWR7ZALGDX3VY7YDR373YP00","86","0","UMBRELLA","10","5","0","599","umbrella","10","2017-03-24 17:29:19","4411"
"A2ZR3PL5I0KPQ6","cs_wg_v4_pilot1","3ITXP059PWKE0EUBHKC7BNBATWBJSH","20","0","MACHINE","0","5","1","2208","machine","0","2017-03-24 17:29:20","4412"
"A3FTOELF4L0OWS","cs_wg_v4_pilot1","39ASUFLU6X8ELFUIXT73DFFA33HEXZ","39","0","UMBRELLA","10","5","0","2012","umbrella","10","2017-03-24 17:29:24","4413"
"A36TE52PSYAAD6","cs_wg_v4_pilot1","3OUYGIZWR7ZALGDX3VY7YDR373YP00","87","0","STOMACH","1","5","1","745","stomach","1","2017-03-24 17:29:26","4414"
"A4IH4CO046EV3","cs_wg_v4_pilot1","3ZAK8W07I4FNDLLTKHX18JE2FKQU01","60","0","FOOTBALL","10","5","0","1439","FOOTBALL","10","2017-03-24 17:29:27","4415"
"A17R9PYLUB516A","cs_wg_v4_pilot1","3ZGVPD4G6TI5FTCUO6KJ9MVMED2TZ1","30","0","FOOTBALL","9","5","1","1618","football","9","2017-03-24 17:29:29","4416"
"A36TE52PSYAAD6","cs_wg_v4_pilot1","3OUYGIZWR7ZALGDX3VY7YDR373YP00","88","0","BASKET","9","5","0","1017","basket","9","2017-03-24 17:29:32","4417"
"A4IH4CO046EV3","cs_wg_v4_pilot1","3ZAK8W07I4FNDLLTKHX18JE2FKQU01","61","0","DOORWAY","0","5","1","1589","DOORWAY","0","2017-03-24 17:29:35","4418"
"A3FTOELF4L0OWS","cs_wg_v4_pilot1","39ASUFLU6X8ELFUIXT73DFFA33HEXZ","40","0","STOMACH","0","5","1","2844","stomach","0","2017-03-24 17:29:35","4419"
"A36TE52PSYAAD6","cs_wg_v4_pilot1","3OUYGIZWR7ZALGDX3VY7YDR373YP00","89","0","COMMUNITY","0","5","1","1615","community","0","2017-03-24 17:29:40","4420"
"A4IH4CO046EV3","cs_wg_v4_pilot1","3ZAK8W07I4FNDLLTKHX18JE2FKQU01","62","0","STRUCTURE","9","5","0","1227","STRUCTURE","9","2017-03-24 17:29:42","4421"
"A17R9PYLUB516A","cs_wg_v4_pilot1","3ZGVPD4G6TI5FTCUO6KJ9MVMED2TZ1","31","0","HELICOPTER","0","5","1","1957","helicopter","0","2017-03-24 17:29:43","4422"
"A2ZR3PL5I0KPQ6","cs_wg_v4_pilot1","3ITXP059PWKE0EUBHKC7BNBATWBJSH","21","0","BOOKSHELF","10","5","1","10755","bookshelf","10","2017-03-24 17:29:44","4423"
"A36TE52PSYAAD6","cs_wg_v4_pilot1","3OUYGIZWR7ZALGDX3VY7YDR373YP00","90","0","COMMUNITY","0","5","1","754","community","0","2017-03-24 17:29:46","4424"
"A3FTOELF4L0OWS","cs_wg_v4_pilot1","39ASUFLU6X8ELFUIXT73DFFA33HEXZ","41","0","DOORWAY","2","5","1","2658","soorway","2","2017-03-24 17:29:47","4425"
"A4IH4CO046EV3","cs_wg_v4_pilot1","3ZAK8W07I4FNDLLTKHX18JE2FKQU01","63","0","MACHINE","8","5","0","1357","MACHINE","8","2017-03-24 17:29:50","4426"
"A3G6L97AX9KR7F","cs_wg_v4_pilot1","3D4CH1LGEAUM4X8B08RDXFE49G59GS","7","0","HELICOPTER","9","5","1","2426","HELICOPTER","9","2017-03-24 17:29:52","4427"
"A36TE52PSYAAD6","cs_wg_v4_pilot1","3OUYGIZWR7ZALGDX3VY7YDR373YP00","91","0","HELICOPTER","1","5","1","655","helicopter","1","2017-03-24 17:29:53","4428"
"A3FTOELF4L0OWS","cs_wg_v4_pilot1","39ASUFLU6X8ELFUIXT73DFFA33HEXZ","42","0","WEDDING","0","5","1","1797","wedding","0","2017-03-24 17:29:57","4429"
"A2ZR3PL5I0KPQ6","cs_wg_v4_pilot1","3ITXP059PWKE0EUBHKC7BNBATWBJSH","22","0","TRAFFIC","2","5","1","3736","traffic","2","2017-03-24 17:29:58","4430"
"A4IH4CO046EV3","cs_wg_v4_pilot1","3ZAK8W07I4FNDLLTKHX18JE2FKQU01","64","0","BOOKSHELF","0","5","1","2137","BOOKSHELF","0","2017-03-24 17:29:58","4431"
"A36TE52PSYAAD6","cs_wg_v4_pilot1","3OUYGIZWR7ZALGDX3VY7YDR373YP00","92","0","COMMUNITY","0","5","1","606","community","0","2017-03-24 17:30:00","4432"
"A17R9PYLUB516A","cs_wg_v4_pilot1","3ZGVPD4G6TI5FTCUO6KJ9MVMED2TZ1","32","0","UMBRELLA","8","5","0","6872","umbrella","8","2017-03-24 17:30:02","4433"
"A36TE52PSYAAD6","cs_wg_v4_pilot1","3OUYGIZWR7ZALGDX3VY7YDR373YP00","93","0","FOOTBALL","0","5","1","937","football","0","2017-03-24 17:30:07","4434"
"A4IH4CO046EV3","cs_wg_v4_pilot1","3ZAK8W07I4FNDLLTKHX18JE2FKQU01","65","0","TRAFFIC","10","5","0","1466","TRAFFIC","10","2017-03-24 17:30:08","4435"
"A3FTOELF4L0OWS","cs_wg_v4_pilot1","39ASUFLU6X8ELFUIXT73DFFA33HEXZ","43","0","DOORWAY","2","5","1","3863","doorway","2","2017-03-24 17:30:09","4436"
"A36TE52PSYAAD6","cs_wg_v4_pilot1","3OUYGIZWR7ZALGDX3VY7YDR373YP00","94","0","KEYBOARD","10","5","0","765","keyboard","10","2017-03-24 17:30:13","4437"
"A17R9PYLUB516A","cs_wg_v4_pilot1","3ZGVPD4G6TI5FTCUO6KJ9MVMED2TZ1","33","0","FOOTBALL","9","5","0","1385","football","9","2017-03-24 17:30:13","4438"
"A2ZR3PL5I0KPQ6","cs_wg_v4_pilot1","3ITXP059PWKE0EUBHKC7BNBATWBJSH","23","0","DOORWAY","10","5","0","5126","doorway","10","2017-03-24 17:30:14","4439"
"A4IH4CO046EV3","cs_wg_v4_pilot1","3ZAK8W07I4FNDLLTKHX18JE2FKQU01","66","0","LADDER","9","5","0","1403","LADDER","9","2017-03-24 17:30:16","4440"
"A3FTOELF4L0OWS","cs_wg_v4_pilot1","39ASUFLU6X8ELFUIXT73DFFA33HEXZ","44","0","MACHINE","10","5","0","1583","machine","10","2017-03-24 17:30:18","4441"
"A3G6L97AX9KR7F","cs_wg_v4_pilot1","3D4CH1LGEAUM4X8B08RDXFE49G59GS","8","0","LADDER","10","5","1","1748","LADDER","10","2017-03-24 17:30:19","4442"
"A36TE52PSYAAD6","cs_wg_v4_pilot1","3OUYGIZWR7ZALGDX3VY7YDR373YP00","95","0","HELICOPTER","1","5","1","663","helicopter","1","2017-03-24 17:30:19","4443"
"A4IH4CO046EV3","cs_wg_v4_pilot1","3ZAK8W07I4FNDLLTKHX18JE2FKQU01","67","0","MACHINE","8","5","0","1791","MACHINE","8","2017-03-24 17:30:25","4444"
"A36TE52PSYAAD6","cs_wg_v4_pilot1","3OUYGIZWR7ZALGDX3VY7YDR373YP00","96","0","BOOKSHELF","2","5","1","972","bookshelf","2","2017-03-24 17:30:26","4445"
"A17R9PYLUB516A","cs_wg_v4_pilot1","3ZGVPD4G6TI5FTCUO6KJ9MVMED2TZ1","34","0","TRAFFIC","1","5","0","5238","traffic","1","2017-03-24 17:30:28","4446"
"A2ZR3PL5I0KPQ6","cs_wg_v4_pilot1","3ITXP059PWKE0EUBHKC7BNBATWBJSH","24","0","COMMUNITY","0","5","1","3933","community","0","2017-03-24 17:30:29","4447"
"A3FTOELF4L0OWS","cs_wg_v4_pilot1","39ASUFLU6X8ELFUIXT73DFFA33HEXZ","45","0","FOOTBALL","2","5","1","3119","football","2","2017-03-24 17:30:30","4448"
"A36TE52PSYAAD6","cs_wg_v4_pilot1","3OUYGIZWR7ZALGDX3VY7YDR373YP00","97","0","WEDDING","0","5","1","1977","wedding","0","2017-03-24 17:30:33","4449"
"A4IH4CO046EV3","cs_wg_v4_pilot1","3ZAK8W07I4FNDLLTKHX18JE2FKQU01","68","0","KEYBOARD","1","5","1","2647","KEYBOARD","1","2017-03-24 17:30:34","4450"
"A3G6L97AX9KR7F","cs_wg_v4_pilot1","3D4CH1LGEAUM4X8B08RDXFE49G59GS","9","0","COMMUNITY","9","5","0","4283","COMMUNITY","9","2017-03-24 17:30:38","4451"
"A3FTOELF4L0OWS","cs_wg_v4_pilot1","39ASUFLU6X8ELFUIXT73DFFA33HEXZ","46","0","WEDDING","0","5","1","1764","wedding","0","2017-03-24 17:30:39","4452"
"A17R9PYLUB516A","cs_wg_v4_pilot1","3ZGVPD4G6TI5FTCUO6KJ9MVMED2TZ1","35","0","COMMUNITY","2","5","1","1195","community","2","2017-03-24 17:30:40","4453"
"A4IH4CO046EV3","cs_wg_v4_pilot1","3ZAK8W07I4FNDLLTKHX18JE2FKQU01","69","0","WEDDING","2","5","1","1828","WEDDING","2","2017-03-24 17:30:41","4454"
"A36TE52PSYAAD6","cs_wg_v4_pilot1","3OUYGIZWR7ZALGDX3VY7YDR373YP00","98","0","UMBRELLA","10","5","0","624","umbrella","10","2017-03-24 17:30:44","4455"
"A2ZR3PL5I0KPQ6","cs_wg_v4_pilot1","3ITXP059PWKE0EUBHKC7BNBATWBJSH","25","0","KEYBOARD","9","5","0","3773","keyboard","9","2017-03-24 17:30:48","4456"
"A3FTOELF4L0OWS","cs_wg_v4_pilot1","39ASUFLU6X8ELFUIXT73DFFA33HEXZ","47","0","WEDDING","0","5","1","1563","wedding","0","2017-03-24 17:30:49","4457"
"A4IH4CO046EV3","cs_wg_v4_pilot1","3ZAK8W07I4FNDLLTKHX18JE2FKQU01","70","0","STRUCTURE","9","5","0","1189","STRUCTURE","9","2017-03-24 17:30:50","4458"
"A36TE52PSYAAD6","cs_wg_v4_pilot1","3OUYGIZWR7ZALGDX3VY7YDR373YP00","99","0","DOORWAY","8","5","0","778","doorway","8","2017-03-24 17:30:50","4459"
"A17R9PYLUB516A","cs_wg_v4_pilot1","3ZGVPD4G6TI5FTCUO6KJ9MVMED2TZ1","36","0","STOMACH","10","5","0","2186","stomach","10","2017-03-24 17:30:53","4460"
"A36TE52PSYAAD6","cs_wg_v4_pilot1","3OUYGIZWR7ZALGDX3VY7YDR373YP00","100","0","BASKET","9","5","0","1068","basket","9","2017-03-24 17:30:57","4461"
"A4IH4CO046EV3","cs_wg_v4_pilot1","3ZAK8W07I4FNDLLTKHX18JE2FKQU01","71","0","HELICOPTER","0","5","1","1362","HELICOPTER","0","2017-03-24 17:30:58","4462"
"A3FTOELF4L0OWS","cs_wg_v4_pilot1","39ASUFLU6X8ELFUIXT73DFFA33HEXZ","48","0","KEYBOARD","1","5","1","2632","keyboard","1","2017-03-24 17:30:58","4463"
"A2ZR3PL5I0KPQ6","cs_wg_v4_pilot1","3ITXP059PWKE0EUBHKC7BNBATWBJSH","26","0","TRAFFIC","2","5","1","2976","traffic","2","2017-03-24 17:31:02","4464"
"A36TE52PSYAAD6","cs_wg_v4_pilot1","3OUYGIZWR7ZALGDX3VY7YDR373YP00","101","0","STRUCTURE","8","5","0","1295","structure","8","2017-03-24 17:31:04","4465"
"A4IH4CO046EV3","cs_wg_v4_pilot1","3ZAK8W07I4FNDLLTKHX18JE2FKQU01","72","0","UMBRELLA","1","5","1","1583","UMBRELLA","1","2017-03-24 17:31:06","4466"
"A3FTOELF4L0OWS","cs_wg_v4_pilot1","39ASUFLU6X8ELFUIXT73DFFA33HEXZ","49","0","TRAFFIC","0","5","1","1668","traffic","0","2017-03-24 17:31:07","4467"
"A3G6L97AX9KR7F","cs_wg_v4_pilot1","3D4CH1LGEAUM4X8B08RDXFE49G59GS","10","0","UMBRELLA","1","5","0","3711","UMBRELLA","1","2017-03-24 17:31:07","4468"
"A17R9PYLUB516A","cs_wg_v4_pilot1","3ZGVPD4G6TI5FTCUO6KJ9MVMED2TZ1","37","0","BASKET","10","5","0","4277","basket","10","2017-03-24 17:31:07","4469"
"A36TE52PSYAAD6","cs_wg_v4_pilot1","3OUYGIZWR7ZALGDX3VY7YDR373YP00","102","0","WEDDING","0","5","1","984","wedding","0","2017-03-24 17:31:10","4470"
"A3FTOELF4L0OWS","cs_wg_v4_pilot1","39ASUFLU6X8ELFUIXT73DFFA33HEXZ","50","0","UMBRELLA","10","5","0","1077","umbrella","10","2017-03-24 17:31:16","4471"
"A4IH4CO046EV3","cs_wg_v4_pilot1","3ZAK8W07I4FNDLLTKHX18JE2FKQU01","73","0","STRUCTURE","9","5","0","1984","STRUCTURE","9","2017-03-24 17:31:16","4472"
"A36TE52PSYAAD6","cs_wg_v4_pilot1","3OUYGIZWR7ZALGDX3VY7YDR373YP00","103","0","BOOKSHELF","2","5","1","1122","bookshelf","2","2017-03-24 17:31:17","4473"
"A2ZR3PL5I0KPQ6","cs_wg_v4_pilot1","3ITXP059PWKE0EUBHKC7BNBATWBJSH","27","0","WEDDING","1","5","0","6070","wedding ","1","2017-03-24 17:31:21","4474"
"A17R9PYLUB516A","cs_wg_v4_pilot1","3ZGVPD4G6TI5FTCUO6KJ9MVMED2TZ1","38","0","BASKET","10","5","0","1380","basket","10","2017-03-24 17:31:22","4475"
"A36TE52PSYAAD6","cs_wg_v4_pilot1","3OUYGIZWR7ZALGDX3VY7YDR373YP00","104","0","TRAFFIC","2","5","1","813","traffic","2","2017-03-24 17:31:23","4476"
"A4IH4CO046EV3","cs_wg_v4_pilot1","3ZAK8W07I4FNDLLTKHX18JE2FKQU01","74","0","BASKET","2","5","1","1511","BASKET","2","2017-03-24 17:31:24","4477"
"A36TE52PSYAAD6","cs_wg_v4_pilot1","3OUYGIZWR7ZALGDX3VY7YDR373YP00","105","0","FOOTBALL","0","5","1","693","football","0","2017-03-24 17:31:29","4478"
"A17R9PYLUB516A","cs_wg_v4_pilot1","3ZGVPD4G6TI5FTCUO6KJ9MVMED2TZ1","39","0","KEYBOARD","0","5","1","1445","keyboard","0","2017-03-24 17:31:33","4479"
"A3FTOELF4L0OWS","cs_wg_v4_pilot1","39ASUFLU6X8ELFUIXT73DFFA33HEXZ","51","0","BASKET","10","5","0","2527","basket","10","2017-03-24 17:31:33","4480"
"A4IH4CO046EV3","cs_wg_v4_pilot1","3ZAK8W07I4FNDLLTKHX18JE2FKQU01","75","0","TRAFFIC","10","5","0","1825","TRAFFIC","8","2017-03-24 17:31:35","4481"
"A36TE52PSYAAD6","cs_wg_v4_pilot1","3OUYGIZWR7ZALGDX3VY7YDR373YP00","106","0","BOOKSHELF","2","5","1","633","bookshelf","2","2017-03-24 17:31:36","4482"
"A2ZR3PL5I0KPQ6","cs_wg_v4_pilot1","3ITXP059PWKE0EUBHKC7BNBATWBJSH","28","0","WEDDING","1","5","1","2539","wedding ","1","2017-03-24 17:31:36","4483"
"A3G6L97AX9KR7F","cs_wg_v4_pilot1","3D4CH1LGEAUM4X8B08RDXFE49G59GS","11","0","BASKET","0","5","1","3966","Basket","0","2017-03-24 17:31:38","4484"
"A36TE52PSYAAD6","cs_wg_v4_pilot1","3OUYGIZWR7ZALGDX3VY7YDR373YP00","107","0","STRUCTURE","8","5","0","673","structure","8","2017-03-24 17:31:42","4485"
"A4IH4CO046EV3","cs_wg_v4_pilot1","3ZAK8W07I4FNDLLTKHX18JE2FKQU01","76","0","DOORWAY","0","5","1","2207","DOORWAY","0","2017-03-24 17:31:45","4486"
"A3FTOELF4L0OWS","cs_wg_v4_pilot1","39ASUFLU6X8ELFUIXT73DFFA33HEXZ","52","0","TRAFFIC","0","5","1","1420","traffic","0","2017-03-24 17:31:47","4487"
"A17R9PYLUB516A","cs_wg_v4_pilot1","3ZGVPD4G6TI5FTCUO6KJ9MVMED2TZ1","40","0","STRUCTURE","2","5","1","1358","structure","0","2017-03-24 17:31:47","4488"
"A36TE52PSYAAD6","cs_wg_v4_pilot1","3OUYGIZWR7ZALGDX3VY7YDR373YP00","108","0","FOOTBALL","0","5","1","836","football","0","2017-03-24 17:31:48","4489"
"A2ZR3PL5I0KPQ6","cs_wg_v4_pilot1","3ITXP059PWKE0EUBHKC7BNBATWBJSH","29","0","LADDER","8","5","0","3244","ladder","8","2017-03-24 17:31:51","4490"
"A36TE52PSYAAD6","cs_wg_v4_pilot1","3OUYGIZWR7ZALGDX3VY7YDR373YP00","109","0","BASKET","9","5","0","686","basket","9","2017-03-24 17:31:54","4491"
"A3G6L97AX9KR7F","cs_wg_v4_pilot1","3D4CH1LGEAUM4X8B08RDXFE49G59GS","12","0","TRAFFIC","10","5","0","4597","Traffic","10","2017-03-24 17:31:56","4492"
"A17R9PYLUB516A","cs_wg_v4_pilot1","3ZGVPD4G6TI5FTCUO6KJ9MVMED2TZ1","41","0","MACHINE","0","5","1","1327","machine","0","2017-03-24 17:31:58","4493"
"A4IH4CO046EV3","cs_wg_v4_pilot1","3ZAK8W07I4FNDLLTKHX18JE2FKQU01","77","0","STOMACH","10","5","0","2840","STOMACH","10","2017-03-24 17:31:59","4494"
"A36TE52PSYAAD6","cs_wg_v4_pilot1","3OUYGIZWR7ZALGDX3VY7YDR373YP00","110","0","WEDDING","0","5","1","639","wedding","0","2017-03-24 17:32:00","4495"
"A3FTOELF4L0OWS","cs_wg_v4_pilot1","39ASUFLU6X8ELFUIXT73DFFA33HEXZ","53","0","LADDER","9","5","0","3124","ladder","9","2017-03-24 17:32:00","4496"
"A2ZR3PL5I0KPQ6","cs_wg_v4_pilot1","3ITXP059PWKE0EUBHKC7BNBATWBJSH","30","0","COMMUNITY","0","5","1","2731","community","0","2017-03-24 17:32:07","4497"
"A17R9PYLUB516A","cs_wg_v4_pilot1","3ZGVPD4G6TI5FTCUO6KJ9MVMED2TZ1","42","0","STOMACH","10","5","0","1671","stomach","10","2017-03-24 17:32:10","4498"
"A36TE52PSYAAD6","cs_wg_v4_pilot1","3OUYGIZWR7ZALGDX3VY7YDR373YP00","111","0","MACHINE","10","5","0","4790","machine","10","2017-03-24 17:32:11","4499"
"A3G6L97AX9KR7F","cs_wg_v4_pilot1","3D4CH1LGEAUM4X8B08RDXFE49G59GS","13","0","FOOTBALL","0","5","1","6156","Football","0","2017-03-24 17:32:13","4500"
"A4IH4CO046EV3","cs_wg_v4_pilot1","3ZAK8W07I4FNDLLTKHX18JE2FKQU01","78","0","LADDER","9","5","0","4873","LADDER","9","2017-03-24 17:32:14","4501"
"A2ZR3PL5I0KPQ6","cs_wg_v4_pilot1","3ITXP059PWKE0EUBHKC7BNBATWBJSH","31","0","COMMUNITY","0","5","1","2534","community","0","2017-03-24 17:32:21","4502"
"A17R9PYLUB516A","cs_wg_v4_pilot1","3ZGVPD4G6TI5FTCUO6KJ9MVMED2TZ1","43","0","WEDDING","9","5","0","1098","wedding","9","2017-03-24 17:32:22","4503"
"A4IH4CO046EV3","cs_wg_v4_pilot1","3ZAK8W07I4FNDLLTKHX18JE2FKQU01","79","0","BOOKSHELF","0","5","0","2085","BOOKSHELF","0","2017-03-24 17:32:26","4504"
"A3FTOELF4L0OWS","cs_wg_v4_pilot1","39ASUFLU6X8ELFUIXT73DFFA33HEXZ","54","0","STOMACH","0","5","1","7498","stomach","0","2017-03-24 17:32:29","4505"
"A3G6L97AX9KR7F","cs_wg_v4_pilot1","3D4CH1LGEAUM4X8B08RDXFE49G59GS","14","0","UMBRELLA","1","5","1","5036","Umbrella","1","2017-03-24 17:32:30","4506"
"A17R9PYLUB516A","cs_wg_v4_pilot1","3ZGVPD4G6TI5FTCUO6KJ9MVMED2TZ1","44","0","TRAFFIC","1","5","1","1126","traffic","1","2017-03-24 17:32:34","4507"
"A4IH4CO046EV3","cs_wg_v4_pilot1","3ZAK8W07I4FNDLLTKHX18JE2FKQU01","80","0","STRUCTURE","9","5","0","2637","STRUCTURE","9","2017-03-24 17:32:37","4508"
"A3FTOELF4L0OWS","cs_wg_v4_pilot1","39ASUFLU6X8ELFUIXT73DFFA33HEXZ","55","0","HELICOPTER","1","5","0","1589","helicopter","1","2017-03-24 17:32:39","4509"
"A2ZR3PL5I0KPQ6","cs_wg_v4_pilot1","3ITXP059PWKE0EUBHKC7BNBATWBJSH","32","0","FOOTBALL","0","5","1","10556","football","0","2017-03-24 17:32:45","4510"
"A3G6L97AX9KR7F","cs_wg_v4_pilot1","3D4CH1LGEAUM4X8B08RDXFE49G59GS","15","0","BASKET","0","5","1","5744","Basket","0","2017-03-24 17:32:46","4511"
"A17R9PYLUB516A","cs_wg_v4_pilot1","3ZGVPD4G6TI5FTCUO6KJ9MVMED2TZ1","45","0","HELICOPTER","0","5","1","1946","helicopter","0","2017-03-24 17:32:47","4512"
"A4IH4CO046EV3","cs_wg_v4_pilot1","3ZAK8W07I4FNDLLTKHX18JE2FKQU01","81","0","WEDDING","2","5","0","2580","WEDDING","2","2017-03-24 17:32:47","4513"
"A3FTOELF4L0OWS","cs_wg_v4_pilot1","39ASUFLU6X8ELFUIXT73DFFA33HEXZ","56","0","STOMACH","0","5","1","1567","stomach","0","2017-03-24 17:32:48","4514"
"A3FTOELF4L0OWS","cs_wg_v4_pilot1","39ASUFLU6X8ELFUIXT73DFFA33HEXZ","57","0","TRAFFIC","0","5","1","1291","traffic","0","2017-03-24 17:32:57","4515"
"A4IH4CO046EV3","cs_wg_v4_pilot1","3ZAK8W07I4FNDLLTKHX18JE2FKQU01","82","0","FOOTBALL","10","5","0","2878","FOOTBALL","10","2017-03-24 17:32:57","4516"
"A17R9PYLUB516A","cs_wg_v4_pilot1","3ZGVPD4G6TI5FTCUO6KJ9MVMED2TZ1","46","0","BOOKSHELF","1","5","1","2479","bookshelf","1","2017-03-24 17:33:00","4517"
"A2ZR3PL5I0KPQ6","cs_wg_v4_pilot1","3ITXP059PWKE0EUBHKC7BNBATWBJSH","33","0","BOOKSHELF","10","5","0","3372","bookshelf","10","2017-03-24 17:33:00","4518"
"A3FTOELF4L0OWS","cs_wg_v4_pilot1","39ASUFLU6X8ELFUIXT73DFFA33HEXZ","58","0","KEYBOARD","1","5","1","1511","keyboard","1","2017-03-24 17:33:05","4519"
"A4IH4CO046EV3","cs_wg_v4_pilot1","3ZAK8W07I4FNDLLTKHX18JE2FKQU01","83","0","FOOTBALL","10","5","0","2845","FOOTBALL","10","2017-03-24 17:33:08","4520"
"A3G6L97AX9KR7F","cs_wg_v4_pilot1","3D4CH1LGEAUM4X8B08RDXFE49G59GS","16","0","TRAFFIC","10","5","0","4264","Traffic","10","2017-03-24 17:33:09","4521"
"A17R9PYLUB516A","cs_wg_v4_pilot1","3ZGVPD4G6TI5FTCUO6KJ9MVMED2TZ1","47","0","STOMACH","10","5","0","979","stomach","10","2017-03-24 17:33:10","4522"
"A4IH4CO046EV3","cs_wg_v4_pilot1","3ZAK8W07I4FNDLLTKHX18JE2FKQU01","84","0","WEDDING","2","5","1","1380","WEDDING","2","2017-03-24 17:33:16","4523"
"A2ZR3PL5I0KPQ6","cs_wg_v4_pilot1","3ITXP059PWKE0EUBHKC7BNBATWBJSH","34","0","KEYBOARD","9","5","0","3540","keyboard","9","2017-03-24 17:33:17","4524"
"A17R9PYLUB516A","cs_wg_v4_pilot1","3ZGVPD4G6TI5FTCUO6KJ9MVMED2TZ1","48","0","STRUCTURE","2","5","1","1875","structure","2","2017-03-24 17:33:22","4525"
"A3FTOELF4L0OWS","cs_wg_v4_pilot1","39ASUFLU6X8ELFUIXT73DFFA33HEXZ","59","0","KEYBOARD","1","5","1","1381","keyboard","1","2017-03-24 17:33:23","4526"
"A4IH4CO046EV3","cs_wg_v4_pilot1","3ZAK8W07I4FNDLLTKHX18JE2FKQU01","85","0","COMMUNITY","8","5","0","1460","COMMUNITY","8","2017-03-24 17:33:25","4527"
"A3G6L97AX9KR7F","cs_wg_v4_pilot1","3D4CH1LGEAUM4X8B08RDXFE49G59GS","17","0","STRUCTURE","8","5","1","1815","Structure","8","2017-03-24 17:33:32","4528"
"A17R9PYLUB516A","cs_wg_v4_pilot1","3ZGVPD4G6TI5FTCUO6KJ9MVMED2TZ1","49","0","LADDER","10","5","0","1358","ladder","10","2017-03-24 17:33:34","4529"
"A4IH4CO046EV3","cs_wg_v4_pilot1","3ZAK8W07I4FNDLLTKHX18JE2FKQU01","86","0","TRAFFIC","10","5","0","1975","TRAFFIC","10","2017-03-24 17:33:35","4530"
"A2ZR3PL5I0KPQ6","cs_wg_v4_pilot1","3ITXP059PWKE0EUBHKC7BNBATWBJSH","35","0","DOORWAY","10","5","0","5109","doorway","10","2017-03-24 17:33:38","4531"
"A3G6L97AX9KR7F","cs_wg_v4_pilot1","3D4CH1LGEAUM4X8B08RDXFE49G59GS","18","0","STRUCTURE","8","5","0","2769","Structure","8","2017-03-24 17:33:46","4532"
"A4IH4CO046EV3","cs_wg_v4_pilot1","3ZAK8W07I4FNDLLTKHX18JE2FKQU01","87","0","TRAFFIC","10","5","0","3950","TRAFFIC","10","2017-03-24 17:33:47","4533"
"A17R9PYLUB516A","cs_wg_v4_pilot1","3ZGVPD4G6TI5FTCUO6KJ9MVMED2TZ1","50","0","HELICOPTER","0","5","1","2747","helicopter","0","2017-03-24 17:33:50","4534"
"A2ZR3PL5I0KPQ6","cs_wg_v4_pilot1","3ITXP059PWKE0EUBHKC7BNBATWBJSH","36","0","BASKET","1","5","1","2967","basket","1","2017-03-24 17:33:50","4535"
"A4IH4CO046EV3","cs_wg_v4_pilot1","3ZAK8W07I4FNDLLTKHX18JE2FKQU01","88","0","WEDDING","2","5","1","1351","WEDDING","2","2017-03-24 17:33:57","4536"
"A17R9PYLUB516A","cs_wg_v4_pilot1","3ZGVPD4G6TI5FTCUO6KJ9MVMED2TZ1","51","0","STOMACH","10","5","0","1136","stomach","10","2017-03-24 17:34:02","4537"
"A3G6L97AX9KR7F","cs_wg_v4_pilot1","3D4CH1LGEAUM4X8B08RDXFE49G59GS","19","0","UMBRELLA","1","5","1","4008","Umbrella","1","2017-03-24 17:34:07","4538"
"A2ZR3PL5I0KPQ6","cs_wg_v4_pilot1","3ITXP059PWKE0EUBHKC7BNBATWBJSH","37","0","STOMACH","8","5","0","3729","stomach","8","2017-03-24 17:34:10","4539"
"A4IH4CO046EV3","cs_wg_v4_pilot1","3ZAK8W07I4FNDLLTKHX18JE2FKQU01","89","0","UMBRELLA","1","5","1","1776","UMBRELLA","1","2017-03-24 17:34:11","4540"
"A17R9PYLUB516A","cs_wg_v4_pilot1","3ZGVPD4G6TI5FTCUO6KJ9MVMED2TZ1","52","0","STRUCTURE","2","5","1","1395","structure","2","2017-03-24 17:34:12","4541"
"A4IH4CO046EV3","cs_wg_v4_pilot1","3ZAK8W07I4FNDLLTKHX18JE2FKQU01","90","0","STRUCTURE","9","5","0","2546","STRUCTURE","9","2017-03-24 17:34:21","4542"
"A17R9PYLUB516A","cs_wg_v4_pilot1","3ZGVPD4G6TI5FTCUO6KJ9MVMED2TZ1","53","0","HELICOPTER","0","5","1","2225","helicopter","0","2017-03-24 17:34:24","4543"
"A3G6L97AX9KR7F","cs_wg_v4_pilot1","3D4CH1LGEAUM4X8B08RDXFE49G59GS","20","0","STRUCTURE","8","5","0","3285","Structure","8","2017-03-24 17:34:25","4544"
"A4IH4CO046EV3","cs_wg_v4_pilot1","3ZAK8W07I4FNDLLTKHX18JE2FKQU01","91","0","FOOTBALL","10","5","0","2040","FOOTBALL","10","2017-03-24 17:34:30","4545"
"A2ZR3PL5I0KPQ6","cs_wg_v4_pilot1","3ITXP059PWKE0EUBHKC7BNBATWBJSH","38","0","UMBRELLA","2","5","1","5662","umbrella","2","2017-03-24 17:34:34","4546"
"A17R9PYLUB516A","cs_wg_v4_pilot1","3ZGVPD4G6TI5FTCUO6KJ9MVMED2TZ1","54","0","TRAFFIC","1","5","1","2044","traffic","1","2017-03-24 17:34:36","4547"
"A4IH4CO046EV3","cs_wg_v4_pilot1","3ZAK8W07I4FNDLLTKHX18JE2FKQU01","92","0","DOORWAY","0","5","1","1614","DOORWAY","0","2017-03-24 17:34:38","4548"
"A17R9PYLUB516A","cs_wg_v4_pilot1","3ZGVPD4G6TI5FTCUO6KJ9MVMED2TZ1","55","0","MACHINE","0","5","1","1263","machine","0","2017-03-24 17:34:47","4549"
"A4IH4CO046EV3","cs_wg_v4_pilot1","3ZAK8W07I4FNDLLTKHX18JE2FKQU01","93","0","COMMUNITY","8","5","0","1896","COMMUNITY","8","2017-03-24 17:34:47","4550"
"A4IH4CO046EV3","cs_wg_v4_pilot1","3ZAK8W07I4FNDLLTKHX18JE2FKQU01","94","0","DOORWAY","0","5","1","1446","DOORWAY","0","2017-03-24 17:34:54","4551"
"A2ZR3PL5I0KPQ6","cs_wg_v4_pilot1","3ITXP059PWKE0EUBHKC7BNBATWBJSH","39","0","DOORWAY","10","5","0","2491","doorway","10","2017-03-24 17:34:55","4552"
"A3G6L97AX9KR7F","cs_wg_v4_pilot1","3D4CH1LGEAUM4X8B08RDXFE49G59GS","21","0","BOOKSHELF","8","5","1","11287","Bookshelf","8","2017-03-24 17:34:57","4553"
"A17R9PYLUB516A","cs_wg_v4_pilot1","3ZGVPD4G6TI5FTCUO6KJ9MVMED2TZ1","56","0","LADDER","10","5","0","1283","ladder","10","2017-03-24 17:34:59","4554"
"A4IH4CO046EV3","cs_wg_v4_pilot1","3ZAK8W07I4FNDLLTKHX18JE2FKQU01","95","0","KEYBOARD","1","5","1","1351","KEYBOARD","1","2017-03-24 17:35:03","4555"
"A2ZR3PL5I0KPQ6","cs_wg_v4_pilot1","3ITXP059PWKE0EUBHKC7BNBATWBJSH","40","0","TRAFFIC","2","5","1","2623","traffic","2","2017-03-24 17:35:07","4556"
"A17R9PYLUB516A","cs_wg_v4_pilot1","3ZGVPD4G6TI5FTCUO6KJ9MVMED2TZ1","57","0","FOOTBALL","9","5","1","1449","football","9","2017-03-24 17:35:11","4557"
"A4IH4CO046EV3","cs_wg_v4_pilot1","3ZAK8W07I4FNDLLTKHX18JE2FKQU01","96","0","TRAFFIC","10","5","0","1377","TRAFFIC","10","2017-03-24 17:35:11","4558"
"A3G6L97AX9KR7F","cs_wg_v4_pilot1","3D4CH1LGEAUM4X8B08RDXFE49G59GS","22","0","FOOTBALL","0","5","1","4852","Football","0","2017-03-24 17:35:12","4559"
"A4IH4CO046EV3","cs_wg_v4_pilot1","3ZAK8W07I4FNDLLTKHX18JE2FKQU01","97","0","STOMACH","10","5","0","1245","STOMACH","10","2017-03-24 17:35:19","4560"
"A17R9PYLUB516A","cs_wg_v4_pilot1","3ZGVPD4G6TI5FTCUO6KJ9MVMED2TZ1","58","0","BASKET","10","5","0","1585","basket","10","2017-03-24 17:35:21","4561"
"A4IH4CO046EV3","cs_wg_v4_pilot1","3ZAK8W07I4FNDLLTKHX18JE2FKQU01","98","0","BOOKSHELF","0","5","1","1453","BOOKSHELF","0","2017-03-24 17:35:26","4562"
"A2ZR3PL5I0KPQ6","cs_wg_v4_pilot1","3ITXP059PWKE0EUBHKC7BNBATWBJSH","41","0","FOOTBALL","0","5","1","2943","football","0","2017-03-24 17:35:29","4563"
"A3G6L97AX9KR7F","cs_wg_v4_pilot1","3D4CH1LGEAUM4X8B08RDXFE49G59GS","23","0","BASKET","0","5","1","5337","Basket","0","2017-03-24 17:35:32","4564"
"A17R9PYLUB516A","cs_wg_v4_pilot1","3ZGVPD4G6TI5FTCUO6KJ9MVMED2TZ1","59","0","LADDER","10","5","0","2007","ladder","10","2017-03-24 17:35:32","4565"
"A4IH4CO046EV3","cs_wg_v4_pilot1","3ZAK8W07I4FNDLLTKHX18JE2FKQU01","99","0","COMMUNITY","8","5","0","1867","COMMUNITY","8","2017-03-24 17:35:34","4566"
"A4IH4CO046EV3","cs_wg_v4_pilot1","3ZAK8W07I4FNDLLTKHX18JE2FKQU01","100","0","MACHINE","8","5","0","1507","MACHINE","8","2017-03-24 17:35:42","4567"
"A17R9PYLUB516A","cs_wg_v4_pilot1","3ZGVPD4G6TI5FTCUO6KJ9MVMED2TZ1","60","0","LADDER","10","5","0","1372","ladder","10","2017-03-24 17:35:44","4568"
"A4IH4CO046EV3","cs_wg_v4_pilot1","3ZAK8W07I4FNDLLTKHX18JE2FKQU01","101","0","COMMUNITY","8","5","0","1107","COMMUNITY ","8","2017-03-24 17:35:50","4569"
"A17R9PYLUB516A","cs_wg_v4_pilot1","3ZGVPD4G6TI5FTCUO6KJ9MVMED2TZ1","61","0","DOORWAY","8","5","1","3106","doorway","8","2017-03-24 17:35:56","4570"
"A3G6L97AX9KR7F","cs_wg_v4_pilot1","3D4CH1LGEAUM4X8B08RDXFE49G59GS","24","0","LADDER","10","5","0","10517","Ladder","10","2017-03-24 17:35:58","4571"
"A4IH4CO046EV3","cs_wg_v4_pilot1","3ZAK8W07I4FNDLLTKHX18JE2FKQU01","102","0","KEYBOARD","1","5","1","1024","KEYBOARD ","1","2017-03-24 17:35:59","4572"
"A2ZR3PL5I0KPQ6","cs_wg_v4_pilot1","3ITXP059PWKE0EUBHKC7BNBATWBJSH","42","0","HELICOPTER","10","5","0","2851","helicopter","10","2017-03-24 17:36:06","4573"
"A17R9PYLUB516A","cs_wg_v4_pilot1","3ZGVPD4G6TI5FTCUO6KJ9MVMED2TZ1","62","0","MACHINE","0","5","1","921","machine","0","2017-03-24 17:36:06","4574"
"A4IH4CO046EV3","cs_wg_v4_pilot1","3ZAK8W07I4FNDLLTKHX18JE2FKQU01","103","0","HELICOPTER","0","5","1","1898","HELICOPTER ","0","2017-03-24 17:36:08","4575"
"A3G6L97AX9KR7F","cs_wg_v4_pilot1","3D4CH1LGEAUM4X8B08RDXFE49G59GS","25","0","LADDER","10","5","0","4037","Ladder","10","2017-03-24 17:36:13","4576"
"A4IH4CO046EV3","cs_wg_v4_pilot1","3ZAK8W07I4FNDLLTKHX18JE2FKQU01","104","0","STOMACH","10","5","0","1294","STOMACH","10","2017-03-24 17:36:17","4577"
"A17R9PYLUB516A","cs_wg_v4_pilot1","3ZGVPD4G6TI5FTCUO6KJ9MVMED2TZ1","63","0","STRUCTURE","2","5","1","1165","structure","2","2017-03-24 17:36:17","4578"
"A2ZR3PL5I0KPQ6","cs_wg_v4_pilot1","3ITXP059PWKE0EUBHKC7BNBATWBJSH","43","0","FOOTBALL","0","5","1","3093","football","0","2017-03-24 17:36:21","4579"
"A4IH4CO046EV3","cs_wg_v4_pilot1","3ZAK8W07I4FNDLLTKHX18JE2FKQU01","105","0","STRUCTURE","9","5","0","1558","STRUCTURE ","9","2017-03-24 17:36:26","4580"
"A17R9PYLUB516A","cs_wg_v4_pilot1","3ZGVPD4G6TI5FTCUO6KJ9MVMED2TZ1","64","0","KEYBOARD","0","5","1","1453","keyboard","0","2017-03-24 17:36:27","4581"
"A4IH4CO046EV3","cs_wg_v4_pilot1","3ZAK8W07I4FNDLLTKHX18JE2FKQU01","106","0","KEYBOARD","1","5","1","1546","KEYBOARD","1","2017-03-24 17:36:34","4582"
"A2ZR3PL5I0KPQ6","cs_wg_v4_pilot1","3ITXP059PWKE0EUBHKC7BNBATWBJSH","44","0","COMMUNITY","0","5","1","3352","community","0","2017-03-24 17:36:36","4583"
"A17R9PYLUB516A","cs_wg_v4_pilot1","3ZGVPD4G6TI5FTCUO6KJ9MVMED2TZ1","65","0","WEDDING","9","5","0","1177","wedding","9","2017-03-24 17:36:38","4584"
"A3G6L97AX9KR7F","cs_wg_v4_pilot1","3D4CH1LGEAUM4X8B08RDXFE49G59GS","26","0","MACHINE","2","5","1","2431","Machine","2","2017-03-24 17:36:39","4585"
"A4IH4CO046EV3","cs_wg_v4_pilot1","3ZAK8W07I4FNDLLTKHX18JE2FKQU01","107","0","BASKET","2","5","1","1252","BASKET","2","2017-03-24 17:36:42","4586"
"A17R9PYLUB516A","cs_wg_v4_pilot1","3ZGVPD4G6TI5FTCUO6KJ9MVMED2TZ1","66","0","STRUCTURE","2","5","1","894","structure","2","2017-03-24 17:36:49","4587"
"A4IH4CO046EV3","cs_wg_v4_pilot1","3ZAK8W07I4FNDLLTKHX18JE2FKQU01","108","0","UMBRELLA","1","5","1","1186","UMBRELLA","1","2017-03-24 17:36:50","4588"
"A4IH4CO046EV3","cs_wg_v4_pilot1","3ZAK8W07I4FNDLLTKHX18JE2FKQU01","109","0","FOOTBALL","10","5","0","1426","FOOTBALL","10","2017-03-24 17:36:58","4589"
"A2ZR3PL5I0KPQ6","cs_wg_v4_pilot1","3ITXP059PWKE0EUBHKC7BNBATWBJSH","45","0","DOORWAY","10","5","0","5943","doorway","10","2017-03-24 17:36:58","4590"
"A17R9PYLUB516A","cs_wg_v4_pilot1","3ZGVPD4G6TI5FTCUO6KJ9MVMED2TZ1","67","0","KEYBOARD","0","5","1","984","keyboard","0","2017-03-24 17:37:05","4591"
"A4IH4CO046EV3","cs_wg_v4_pilot1","3ZAK8W07I4FNDLLTKHX18JE2FKQU01","110","0","KEYBOARD","1","5","1","1315","KEYBOARD ","1","2017-03-24 17:37:09","4592"
"A3G6L97AX9KR7F","cs_wg_v4_pilot1","3D4CH1LGEAUM4X8B08RDXFE49G59GS","27","0","MACHINE","2","5","1","2424","Machine","2","2017-03-24 17:37:09","4593"
"A2ZR3PL5I0KPQ6","cs_wg_v4_pilot1","3ITXP059PWKE0EUBHKC7BNBATWBJSH","46","0","BASKET","1","5","1","3161","basket","1","2017-03-24 17:37:11","4594"
"A17R9PYLUB516A","cs_wg_v4_pilot1","3ZGVPD4G6TI5FTCUO6KJ9MVMED2TZ1","68","0","TRAFFIC","1","5","1","870","traffic","1","2017-03-24 17:37:15","4595"
"A4IH4CO046EV3","cs_wg_v4_pilot1","3ZAK8W07I4FNDLLTKHX18JE2FKQU01","111","0","HELICOPTER","0","5","0","1556","HELICOPTER","0","2017-03-24 17:37:16","4596"
"A3G6L97AX9KR7F","cs_wg_v4_pilot1","3D4CH1LGEAUM4X8B08RDXFE49G59GS","28","0","FOOTBALL","0","5","1","3682","Football","0","2017-03-24 17:37:22","4597"
"A17R9PYLUB516A","cs_wg_v4_pilot1","3ZGVPD4G6TI5FTCUO6KJ9MVMED2TZ1","69","0","DOORWAY","8","5","0","1497","doorway","8","2017-03-24 17:37:26","4598"
"A2ZR3PL5I0KPQ6","cs_wg_v4_pilot1","3ITXP059PWKE0EUBHKC7BNBATWBJSH","47","0","STRUCTURE","9","5","1","8688","structure","9","2017-03-24 17:37:32","4599"
"A3G6L97AX9KR7F","cs_wg_v4_pilot1","3D4CH1LGEAUM4X8B08RDXFE49G59GS","29","0","WEDDING","10","5","1","1977","Wedding","10","2017-03-24 17:37:42","4600"
"A17R9PYLUB516A","cs_wg_v4_pilot1","3ZGVPD4G6TI5FTCUO6KJ9MVMED2TZ1","70","0","TRAFFIC","1","5","1","1236","traffic","1","2017-03-24 17:37:51","4601"
"A17R9PYLUB516A","cs_wg_v4_pilot1","3ZGVPD4G6TI5FTCUO6KJ9MVMED2TZ1","71","0","LADDER","10","5","0","1097","ladder","10","2017-03-24 17:37:59","4602"
"A2ZR3PL5I0KPQ6","cs_wg_v4_pilot1","3ITXP059PWKE0EUBHKC7BNBATWBJSH","48","0","STOMACH","8","5","1","12147","stomach","8","2017-03-24 17:38:01","4603"
"A3G6L97AX9KR7F","cs_wg_v4_pilot1","3D4CH1LGEAUM4X8B08RDXFE49G59GS","30","0","HELICOPTER","9","5","0","12861","Helicopter","9","2017-03-24 17:38:12","4604"
"A17R9PYLUB516A","cs_wg_v4_pilot1","3ZGVPD4G6TI5FTCUO6KJ9MVMED2TZ1","72","0","HELICOPTER","0","5","1","1159","helicopter","0","2017-03-24 17:38:12","4605"
"A2ZR3PL5I0KPQ6","cs_wg_v4_pilot1","3ITXP059PWKE0EUBHKC7BNBATWBJSH","49","0","COMMUNITY","0","5","1","4814","community","0","2017-03-24 17:38:21","4606"
"A17R9PYLUB516A","cs_wg_v4_pilot1","3ZGVPD4G6TI5FTCUO6KJ9MVMED2TZ1","73","0","BOOKSHELF","1","5","0","1910","bookshelf","1","2017-03-24 17:38:24","4607"
"A3G6L97AX9KR7F","cs_wg_v4_pilot1","3D4CH1LGEAUM4X8B08RDXFE49G59GS","31","0","MACHINE","2","5","1","6067","Machine","2","2017-03-24 17:38:28","4608"
"A2ZR3PL5I0KPQ6","cs_wg_v4_pilot1","3ITXP059PWKE0EUBHKC7BNBATWBJSH","50","0","STOMACH","8","5","0","2981","stomach","8","2017-03-24 17:38:35","4609"
"A17R9PYLUB516A","cs_wg_v4_pilot1","3ZGVPD4G6TI5FTCUO6KJ9MVMED2TZ1","74","0","MACHINE","0","5","1","1128","machine","0","2017-03-24 17:38:35","4610"
"A17R9PYLUB516A","cs_wg_v4_pilot1","3ZGVPD4G6TI5FTCUO6KJ9MVMED2TZ1","75","0","TRAFFIC","1","5","1","2277","traffic","1","2017-03-24 17:38:47","4611"
"A3G6L97AX9KR7F","cs_wg_v4_pilot1","3D4CH1LGEAUM4X8B08RDXFE49G59GS","32","0","COMMUNITY","9","5","0","3914","Community","9","2017-03-24 17:38:53","4612"
"A17R9PYLUB516A","cs_wg_v4_pilot1","3ZGVPD4G6TI5FTCUO6KJ9MVMED2TZ1","76","0","COMMUNITY","2","5","1","1198","community","2","2017-03-24 17:39:00","4613"
"A17R9PYLUB516A","cs_wg_v4_pilot1","3ZGVPD4G6TI5FTCUO6KJ9MVMED2TZ1","77","0","HELICOPTER","0","5","1","905","helicopter","0","2017-03-24 17:39:11","4614"
"A2ZR3PL5I0KPQ6","cs_wg_v4_pilot1","3ITXP059PWKE0EUBHKC7BNBATWBJSH","51","0","MACHINE","0","5","1","26525","machine","0","2017-03-24 17:39:13","4615"
"A17R9PYLUB516A","cs_wg_v4_pilot1","3ZGVPD4G6TI5FTCUO6KJ9MVMED2TZ1","78","0","BASKET","10","5","0","2023","basket","10","2017-03-24 17:39:24","4616"
"A3G6L97AX9KR7F","cs_wg_v4_pilot1","3D4CH1LGEAUM4X8B08RDXFE49G59GS","33","0","BOOKSHELF","8","5","0","14041","Bookshelf","8","2017-03-24 17:39:26","4617"
"A17R9PYLUB516A","cs_wg_v4_pilot1","3ZGVPD4G6TI5FTCUO6KJ9MVMED2TZ1","79","0","MACHINE","0","5","1","2529","machine","0","2017-03-24 17:39:41","4618"
"A2ZR3PL5I0KPQ6","cs_wg_v4_pilot1","3ITXP059PWKE0EUBHKC7BNBATWBJSH","52","0","COMMUNITY","0","5","1","3304","community","0","2017-03-24 17:39:43","4619"
"A3G6L97AX9KR7F","cs_wg_v4_pilot1","3D4CH1LGEAUM4X8B08RDXFE49G59GS","34","0","MACHINE","2","5","1","6677","Machine","2","2017-03-24 17:39:45","4620"
"A2ZR3PL5I0KPQ6","cs_wg_v4_pilot1","3ITXP059PWKE0EUBHKC7BNBATWBJSH","53","0","FOOTBALL","0","5","1","2120","football","0","2017-03-24 17:39:56","4621"
"A17R9PYLUB516A","cs_wg_v4_pilot1","3ZGVPD4G6TI5FTCUO6KJ9MVMED2TZ1","80","0","DOORWAY","8","5","0","3030","doorway","8","2017-03-24 17:39:56","4622"
"A3G6L97AX9KR7F","cs_wg_v4_pilot1","3D4CH1LGEAUM4X8B08RDXFE49G59GS","35","0","LADDER","10","5","0","8909","Ladder","10","2017-03-24 17:40:05","4623"
"A17R9PYLUB516A","cs_wg_v4_pilot1","3ZGVPD4G6TI5FTCUO6KJ9MVMED2TZ1","81","0","COMMUNITY","2","5","1","1210","community","2","2017-03-24 17:40:07","4624"
"A2ZR3PL5I0KPQ6","cs_wg_v4_pilot1","3ITXP059PWKE0EUBHKC7BNBATWBJSH","54","0","FOOTBALL","0","5","1","2300","football","0","2017-03-24 17:40:11","4625"
"A17R9PYLUB516A","cs_wg_v4_pilot1","3ZGVPD4G6TI5FTCUO6KJ9MVMED2TZ1","82","0","UMBRELLA","8","5","0","1390","umbrella","8","2017-03-24 17:40:20","4626"
"A2ZR3PL5I0KPQ6","cs_wg_v4_pilot1","3ITXP059PWKE0EUBHKC7BNBATWBJSH","55","0","MACHINE","0","5","1","5801","machine","0","2017-03-24 17:40:27","4627"
"A3G6L97AX9KR7F","cs_wg_v4_pilot1","3D4CH1LGEAUM4X8B08RDXFE49G59GS","36","0","KEYBOARD","0","5","1","5262","Keyboard","0","2017-03-24 17:40:30","4628"
"A17R9PYLUB516A","cs_wg_v4_pilot1","3ZGVPD4G6TI5FTCUO6KJ9MVMED2TZ1","83","0","LADDER","10","5","0","1927","ladder","10","2017-03-24 17:40:33","4629"
"A1W4Q0E00VP6VD","cs_wg_v4_pilot1","3IJXV6UZ1XK64OASKDR29CREUF3RIP","0","0","DOORWAY","9","5","1","9893","Doorway","9","2017-03-24 17:40:37","4630"
"A2ZR3PL5I0KPQ6","cs_wg_v4_pilot1","3ITXP059PWKE0EUBHKC7BNBATWBJSH","56","0","KEYBOARD","9","5","0","2553","keyboard","9","2017-03-24 17:40:41","4631"
"A17R9PYLUB516A","cs_wg_v4_pilot1","3ZGVPD4G6TI5FTCUO6KJ9MVMED2TZ1","84","0","DOORWAY","8","5","0","1402","doorway","8","2017-03-24 17:40:44","4632"
"A1W4Q0E00VP6VD","cs_wg_v4_pilot1","3IJXV6UZ1XK64OASKDR29CREUF3RIP","1","0","LADDER","10","5","1","3209","Ladder","5","2017-03-24 17:40:52","4633"
"A17R9PYLUB516A","cs_wg_v4_pilot1","3ZGVPD4G6TI5FTCUO6KJ9MVMED2TZ1","85","0","FOOTBALL","9","5","0","2174","football","9","2017-03-24 17:40:56","4634"
"A2ZR3PL5I0KPQ6","cs_wg_v4_pilot1","3ITXP059PWKE0EUBHKC7BNBATWBJSH","57","0","FOOTBALL","0","5","1","3146","football","0","2017-03-24 17:40:57","4635"
"A1W4Q0E00VP6VD","cs_wg_v4_pilot1","3IJXV6UZ1XK64OASKDR29CREUF3RIP","2","0","BOOKSHELF","1","5","0","1559","Bookshelf","1","2017-03-24 17:41:05","4636"
"A3G6L97AX9KR7F","cs_wg_v4_pilot1","3D4CH1LGEAUM4X8B08RDXFE49G59GS","37","0","DOORWAY","2","5","1","14404","Doorway","2","2017-03-24 17:41:06","4637"
"A17R9PYLUB516A","cs_wg_v4_pilot1","3ZGVPD4G6TI5FTCUO6KJ9MVMED2TZ1","86","0","BOOKSHELF","1","5","1","2336","bookshelf","1","2017-03-24 17:41:09","4638"
"A2ZR3PL5I0KPQ6","cs_wg_v4_pilot1","3ITXP059PWKE0EUBHKC7BNBATWBJSH","58","0","WEDDING","1","5","1","3341","wedding","0","2017-03-24 17:41:15","4639"
"A17R9PYLUB516A","cs_wg_v4_pilot1","3ZGVPD4G6TI5FTCUO6KJ9MVMED2TZ1","87","0","TRAFFIC","1","5","1","1493","traffic","1","2017-03-24 17:41:20","4640"
"A1W4Q0E00VP6VD","cs_wg_v4_pilot1","3IJXV6UZ1XK64OASKDR29CREUF3RIP","3","0","UMBRELLA","0","5","0","1966","Umbrella","0","2017-03-24 17:41:21","4641"
"A3G6L97AX9KR7F","cs_wg_v4_pilot1","3D4CH1LGEAUM4X8B08RDXFE49G59GS","38","0","KEYBOARD","0","5","1","7861","Keyboard","0","2017-03-24 17:41:32","4642"
"A2ZR3PL5I0KPQ6","cs_wg_v4_pilot1","3ITXP059PWKE0EUBHKC7BNBATWBJSH","59","0","STRUCTURE","9","5","0","2381","structure","9","2017-03-24 17:41:37","4643"
"A17R9PYLUB516A","cs_wg_v4_pilot1","3ZGVPD4G6TI5FTCUO6KJ9MVMED2TZ1","88","0","LADDER","10","5","0","1835","ladder","10","2017-03-24 17:41:45","4644"
"A3FTOELF4L0OWS","cs_wg_v4_pilot1","39ASUFLU6X8ELFUIXT73DFFA33HEXZ","60","0","WEDDING","0","5","1","465754","wedding","0","2017-03-24 17:41:48","4645"
"A1W4Q0E00VP6VD","cs_wg_v4_pilot1","3IJXV6UZ1XK64OASKDR29CREUF3RIP","4","0","HELICOPTER","8","5","0","1501","Helicopter ","8","2017-03-24 17:41:50","4646"
"A2ZR3PL5I0KPQ6","cs_wg_v4_pilot1","3ITXP059PWKE0EUBHKC7BNBATWBJSH","60","0","MACHINE","0","5","1","3503","machine","0","2017-03-24 17:41:55","4647"
"A3FTOELF4L0OWS","cs_wg_v4_pilot1","39ASUFLU6X8ELFUIXT73DFFA33HEXZ","61","0","KEYBOARD","1","5","1","2375","keyboard","1","2017-03-24 17:42:00","4648"
"A3G6L97AX9KR7F","cs_wg_v4_pilot1","3D4CH1LGEAUM4X8B08RDXFE49G59GS","39","0","FOOTBALL","0","5","0","11043","Football","0","2017-03-24 17:42:00","4649"
"A17R9PYLUB516A","cs_wg_v4_pilot1","3ZGVPD4G6TI5FTCUO6KJ9MVMED2TZ1","89","0","DOORWAY","8","5","0","1010","doorway","8","2017-03-24 17:42:04","4650"
"A2ZR3PL5I0KPQ6","cs_wg_v4_pilot1","3ITXP059PWKE0EUBHKC7BNBATWBJSH","61","0","STOMACH","8","5","1","3981","stomach","8","2017-03-24 17:42:18","4651"
"A3FTOELF4L0OWS","cs_wg_v4_pilot1","39ASUFLU6X8ELFUIXT73DFFA33HEXZ","62","0","HELICOPTER","1","5","1","8929","helicopter","1","2017-03-24 17:42:18","4652"
"A17R9PYLUB516A","cs_wg_v4_pilot1","3ZGVPD4G6TI5FTCUO6KJ9MVMED2TZ1","90","0","UMBRELLA","8","5","0","5389","umbrella","8","2017-03-24 17:42:22","4653"
"A3FTOELF4L0OWS","cs_wg_v4_pilot1","39ASUFLU6X8ELFUIXT73DFFA33HEXZ","63","0","BASKET","10","5","0","1776","basket","10","2017-03-24 17:42:31","4654"
"A17R9PYLUB516A","cs_wg_v4_pilot1","3ZGVPD4G6TI5FTCUO6KJ9MVMED2TZ1","91","0","FOOTBALL","9","5","0","1127","football","9","2017-03-24 17:42:34","4655"
"A2ZR3PL5I0KPQ6","cs_wg_v4_pilot1","3ITXP059PWKE0EUBHKC7BNBATWBJSH","62","0","LADDER","8","5","0","2215","ladder","8","2017-03-24 17:42:35","4656"
"A3G6L97AX9KR7F","cs_wg_v4_pilot1","3D4CH1LGEAUM4X8B08RDXFE49G59GS","40","0","STOMACH","1","5","1","14930","Stomach","1","2017-03-24 17:42:37","4657"
"A3FTOELF4L0OWS","cs_wg_v4_pilot1","39ASUFLU6X8ELFUIXT73DFFA33HEXZ","64","0","DOORWAY","2","5","1","1938","doorway","2","2017-03-24 17:42:40","4658"
"A17R9PYLUB516A","cs_wg_v4_pilot1","3ZGVPD4G6TI5FTCUO6KJ9MVMED2TZ1","92","0","MACHINE","0","5","1","1326","machine","0","2017-03-24 17:42:46","4659"
"A2ZR3PL5I0KPQ6","cs_wg_v4_pilot1","3ITXP059PWKE0EUBHKC7BNBATWBJSH","63","0","WEDDING","1","5","1","4050","wedding","1","2017-03-24 17:42:49","4660"
"A3FTOELF4L0OWS","cs_wg_v4_pilot1","39ASUFLU6X8ELFUIXT73DFFA33HEXZ","65","0","BOOKSHELF","8","5","0","2234","bookshelf","8","2017-03-24 17:42:52","4661"
"A17R9PYLUB516A","cs_wg_v4_pilot1","3ZGVPD4G6TI5FTCUO6KJ9MVMED2TZ1","93","0","STRUCTURE","2","5","1","1575","structure","2","2017-03-24 17:42:59","4662"
"A2ZR3PL5I0KPQ6","cs_wg_v4_pilot1","3ITXP059PWKE0EUBHKC7BNBATWBJSH","64","0","LADDER","8","5","0","2716","ladder","8","2017-03-24 17:43:02","4663"
"A3G6L97AX9KR7F","cs_wg_v4_pilot1","3D4CH1LGEAUM4X8B08RDXFE49G59GS","41","0","KEYBOARD","0","5","1","12047","Keyboard","0","2017-03-24 17:43:05","4664"
"A3FTOELF4L0OWS","cs_wg_v4_pilot1","39ASUFLU6X8ELFUIXT73DFFA33HEXZ","66","0","UMBRELLA","10","5","0","1379","umbrella","10","2017-03-24 17:43:05","4665"
"A1W4Q0E00VP6VD","cs_wg_v4_pilot1","3IJXV6UZ1XK64OASKDR29CREUF3RIP","5","0","TRAFFIC","10","5","0","60280","Traffic","10","2017-03-24 17:43:10","4666"
"A2ZR3PL5I0KPQ6","cs_wg_v4_pilot1","3ITXP059PWKE0EUBHKC7BNBATWBJSH","65","0","LADDER","8","5","0","2198","ladder","8","2017-03-24 17:43:14","4667"
"A17R9PYLUB516A","cs_wg_v4_pilot1","3ZGVPD4G6TI5FTCUO6KJ9MVMED2TZ1","94","0","BOOKSHELF","1","5","1","3599","bookshelf","1","2017-03-24 17:43:16","4668"
"A1W4Q0E00VP6VD","cs_wg_v4_pilot1","3IJXV6UZ1XK64OASKDR29CREUF3RIP","6","0","KEYBOARD","10","5","0","2334","Keyboard","10","2017-03-24 17:43:24","4669"
"A3SHLGG66PJXEB","cs_wg_v4_pilot1","3TMSXRD2X610CEVGB0G24CI95S7W15","0","0","DOORWAY","0","5","0","5676","doorway","0","2017-03-24 17:43:25","4670"
"A2ZR3PL5I0KPQ6","cs_wg_v4_pilot1","3ITXP059PWKE0EUBHKC7BNBATWBJSH","66","0","HELICOPTER","10","5","0","2718","helicopter","10","2017-03-24 17:43:28","4671"
"A3G6L97AX9KR7F","cs_wg_v4_pilot1","3D4CH1LGEAUM4X8B08RDXFE49G59GS","42","0","COMMUNITY","9","5","0","11573","Community","9","2017-03-24 17:43:30","4672"
"A17R9PYLUB516A","cs_wg_v4_pilot1","3ZGVPD4G6TI5FTCUO6KJ9MVMED2TZ1","95","0","STOMACH","10","5","0","4987","stomach","10","2017-03-24 17:43:33","4673"
"A1W4Q0E00VP6VD","cs_wg_v4_pilot1","3IJXV6UZ1XK64OASKDR29CREUF3RIP","7","0","FOOTBALL","2","5","1","5384","Football","2","2017-03-24 17:43:38","4674"
"A2ZR3PL5I0KPQ6","cs_wg_v4_pilot1","3ITXP059PWKE0EUBHKC7BNBATWBJSH","67","0","WEDDING","1","5","1","2519","wedding","1","2017-03-24 17:43:40","4675"
"A3SHLGG66PJXEB","cs_wg_v4_pilot1","3TMSXRD2X610CEVGB0G24CI95S7W15","1","0","FOOTBALL","2","5","0","4973","football","2","2017-03-24 17:43:46","4676"
"A1W4Q0E00VP6VD","cs_wg_v4_pilot1","3IJXV6UZ1XK64OASKDR29CREUF3RIP","8","0","DOORWAY","9","5","0","359","Doorway","9","2017-03-24 17:43:46","4677"
"A3FTOELF4L0OWS","cs_wg_v4_pilot1","39ASUFLU6X8ELFUIXT73DFFA33HEXZ","67","0","BASKET","10","5","0","33749","basket","10","2017-03-24 17:43:47","4678"
"A17R9PYLUB516A","cs_wg_v4_pilot1","3ZGVPD4G6TI5FTCUO6KJ9MVMED2TZ1","96","0","WEDDING","9","5","0","1561","wedding","9","2017-03-24 17:43:47","4679"
"A2ZR3PL5I0KPQ6","cs_wg_v4_pilot1","3ITXP059PWKE0EUBHKC7BNBATWBJSH","68","0","KEYBOARD","9","5","0","2119","keyboard","9","2017-03-24 17:43:52","4680"
"A3G6L97AX9KR7F","cs_wg_v4_pilot1","3D4CH1LGEAUM4X8B08RDXFE49G59GS","43","0","STOMACH","1","5","1","11334","Stomach","1","2017-03-24 17:43:57","4681"
"A3FTOELF4L0OWS","cs_wg_v4_pilot1","39ASUFLU6X8ELFUIXT73DFFA33HEXZ","68","0","MACHINE","10","5","0","2615","machine","10","2017-03-24 17:43:59","4682"
"A17R9PYLUB516A","cs_wg_v4_pilot1","3ZGVPD4G6TI5FTCUO6KJ9MVMED2TZ1","97","0","WEDDING","9","5","0","2759","wedding","9","2017-03-24 17:44:00","4683"
"A1W4Q0E00VP6VD","cs_wg_v4_pilot1","3IJXV6UZ1XK64OASKDR29CREUF3RIP","9","0","STOMACH","0","5","0","1694","Stomach","0","2017-03-24 17:44:00","4684"
"A2ZR3PL5I0KPQ6","cs_wg_v4_pilot1","3ITXP059PWKE0EUBHKC7BNBATWBJSH","69","0","BASKET","1","5","1","3684","basket","1","2017-03-24 17:44:05","4685"
"A3SHLGG66PJXEB","cs_wg_v4_pilot1","3TMSXRD2X610CEVGB0G24CI95S7W15","2","0","BASKET","9","5","1","7478","Basket","9","2017-03-24 17:44:09","4686"
"A17R9PYLUB516A","cs_wg_v4_pilot1","3ZGVPD4G6TI5FTCUO6KJ9MVMED2TZ1","98","0","BOOKSHELF","1","5","1","1253","bookshelf","1","2017-03-24 17:44:12","4687"
"A1W4Q0E00VP6VD","cs_wg_v4_pilot1","3IJXV6UZ1XK64OASKDR29CREUF3RIP","10","0","MACHINE","2","5","0","2318","Machine","2","2017-03-24 17:44:14","4688"
"A2ZR3PL5I0KPQ6","cs_wg_v4_pilot1","3ITXP059PWKE0EUBHKC7BNBATWBJSH","70","0","LADDER","8","5","0","1807","ladder","8","2017-03-24 17:44:17","4689"
"A3SHLGG66PJXEB","cs_wg_v4_pilot1","3TMSXRD2X610CEVGB0G24CI95S7W15","3","0","WEDDING","10","5","0","2730","wedding","10","2017-03-24 17:44:23","4690"
"A3G6L97AX9KR7F","cs_wg_v4_pilot1","3D4CH1LGEAUM4X8B08RDXFE49G59GS","44","0","HELICOPTER","9","5","0","14017","Helicopter","9","2017-03-24 17:44:23","4691"
"A1W4Q0E00VP6VD","cs_wg_v4_pilot1","3IJXV6UZ1XK64OASKDR29CREUF3RIP","11","0","COMMUNITY","8","5","0","1169","Community","8","2017-03-24 17:44:24","4692"
"A2ZR3PL5I0KPQ6","cs_wg_v4_pilot1","3ITXP059PWKE0EUBHKC7BNBATWBJSH","71","0","BASKET","1","5","1","2585","basket","1","2017-03-24 17:44:29","4693"
"A17R9PYLUB516A","cs_wg_v4_pilot1","3ZGVPD4G6TI5FTCUO6KJ9MVMED2TZ1","99","0","KEYBOARD","0","5","1","1527","keyboard","0","2017-03-24 17:44:32","4694"
"A3FTOELF4L0OWS","cs_wg_v4_pilot1","39ASUFLU6X8ELFUIXT73DFFA33HEXZ","69","0","COMMUNITY","8","5","0","1379","community","8","2017-03-24 17:44:38","4695"
"A1W4Q0E00VP6VD","cs_wg_v4_pilot1","3IJXV6UZ1XK64OASKDR29CREUF3RIP","12","0","HELICOPTER","8","5","0","4230","Helicopter","9","2017-03-24 17:44:39","4696"
"A3SHLGG66PJXEB","cs_wg_v4_pilot1","3TMSXRD2X610CEVGB0G24CI95S7W15","4","0","WEDDING","10","5","0","3060","wedding","10","2017-03-24 17:44:42","4697"
"A2ZR3PL5I0KPQ6","cs_wg_v4_pilot1","3ITXP059PWKE0EUBHKC7BNBATWBJSH","72","0","FOOTBALL","0","5","1","3149","football","0","2017-03-24 17:44:43","4698"
"A17R9PYLUB516A","cs_wg_v4_pilot1","3ZGVPD4G6TI5FTCUO6KJ9MVMED2TZ1","100","0","FOOTBALL","9","5","0","1843","football","9","2017-03-24 17:44:44","4699"
"A3FTOELF4L0OWS","cs_wg_v4_pilot1","39ASUFLU6X8ELFUIXT73DFFA33HEXZ","70","0","COMMUNITY","8","5","0","1039","community","8","2017-03-24 17:44:48","4700"
"A3G6L97AX9KR7F","cs_wg_v4_pilot1","3D4CH1LGEAUM4X8B08RDXFE49G59GS","45","0","MACHINE","2","5","1","6848","Machine","2","2017-03-24 17:44:51","4701"
"A1W4Q0E00VP6VD","cs_wg_v4_pilot1","3IJXV6UZ1XK64OASKDR29CREUF3RIP","13","0","DOORWAY","9","5","0","3433","Doorway","9","2017-03-24 17:44:51","4702"
"A2ZR3PL5I0KPQ6","cs_wg_v4_pilot1","3ITXP059PWKE0EUBHKC7BNBATWBJSH","73","0","STRUCTURE","9","5","0","2198","structure","9","2017-03-24 17:44:56","4703"
"A17R9PYLUB516A","cs_wg_v4_pilot1","3ZGVPD4G6TI5FTCUO6KJ9MVMED2TZ1","101","0","BOOKSHELF","1","5","1","1146","bookshelf","1","2017-03-24 17:44:57","4704"
"A3SHLGG66PJXEB","cs_wg_v4_pilot1","3TMSXRD2X610CEVGB0G24CI95S7W15","5","0","HELICOPTER","2","5","0","2784","helicopter","6","2017-03-24 17:44:57","4705"
"A3FTOELF4L0OWS","cs_wg_v4_pilot1","39ASUFLU6X8ELFUIXT73DFFA33HEXZ","71","0","DOORWAY","2","5","1","2150","doorway","2","2017-03-24 17:44:57","4706"
"A1W4Q0E00VP6VD","cs_wg_v4_pilot1","3IJXV6UZ1XK64OASKDR29CREUF3RIP","14","0","STOMACH","0","5","1","2877","Stomach","0","2017-03-24 17:45:02","4707"
"A3FTOELF4L0OWS","cs_wg_v4_pilot1","39ASUFLU6X8ELFUIXT73DFFA33HEXZ","72","0","UMBRELLA","10","5","0","1547","umbrella","10","2017-03-24 17:45:08","4708"
"A3SHLGG66PJXEB","cs_wg_v4_pilot1","3TMSXRD2X610CEVGB0G24CI95S7W15","6","0","MACHINE","8","5","1","2821","machine","8","2017-03-24 17:45:08","4709"
"A17R9PYLUB516A","cs_wg_v4_pilot1","3ZGVPD4G6TI5FTCUO6KJ9MVMED2TZ1","102","0","UMBRELLA","8","5","0","1042","umbrella","8","2017-03-24 17:45:08","4710"
"A2ZR3PL5I0KPQ6","cs_wg_v4_pilot1","3ITXP059PWKE0EUBHKC7BNBATWBJSH","74","0","STRUCTURE","9","5","0","1816","structure","9","2017-03-24 17:45:11","4711"
"A1W4Q0E00VP6VD","cs_wg_v4_pilot1","3IJXV6UZ1XK64OASKDR29CREUF3RIP","15","0","UMBRELLA","0","5","1","3295","Umbrella","5","2017-03-24 17:45:13","4712"
"A3G6L97AX9KR7F","cs_wg_v4_pilot1","3D4CH1LGEAUM4X8B08RDXFE49G59GS","46","0","WEDDING","10","5","1","5403","Wedding","10","2017-03-24 17:45:17","4713"
"A3FTOELF4L0OWS","cs_wg_v4_pilot1","39ASUFLU6X8ELFUIXT73DFFA33HEXZ","73","0","FOOTBALL","2","5","1","1614","football","0","2017-03-24 17:45:18","4714"
"A17R9PYLUB516A","cs_wg_v4_pilot1","3ZGVPD4G6TI5FTCUO6KJ9MVMED2TZ1","103","0","UMBRELLA","8","5","0","1026","umbrella","8","2017-03-24 17:45:19","4715"
"A1W4Q0E00VP6VD","cs_wg_v4_pilot1","3IJXV6UZ1XK64OASKDR29CREUF3RIP","16","0","WEDDING","0","5","0","908","Wedding ","0","2017-03-24 17:45:25","4716"
"A2ZR3PL5I0KPQ6","cs_wg_v4_pilot1","3ITXP059PWKE0EUBHKC7BNBATWBJSH","75","0","TRAFFIC","2","5","1","6476","traffic","2","2017-03-24 17:45:27","4717"
"A3FTOELF4L0OWS","cs_wg_v4_pilot1","39ASUFLU6X8ELFUIXT73DFFA33HEXZ","74","0","TRAFFIC","0","5","1","1399","traffic","0","2017-03-24 17:45:27","4718"
"A3SHLGG66PJXEB","cs_wg_v4_pilot1","3TMSXRD2X610CEVGB0G24CI95S7W15","7","0","FOOTBALL","2","5","0","7525","football","2","2017-03-24 17:45:27","4719"
"A17R9PYLUB516A","cs_wg_v4_pilot1","3ZGVPD4G6TI5FTCUO6KJ9MVMED2TZ1","104","0","UMBRELLA","8","5","0","1030","umbrella","8","2017-03-24 17:45:33","4720"
"A3FTOELF4L0OWS","cs_wg_v4_pilot1","39ASUFLU6X8ELFUIXT73DFFA33HEXZ","75","0","WEDDING","0","5","1","1735","wedding","0","2017-03-24 17:45:36","4721"
"A1W4Q0E00VP6VD","cs_wg_v4_pilot1","3IJXV6UZ1XK64OASKDR29CREUF3RIP","17","0","STOMACH","0","5","1","3583","Stomach","0","2017-03-24 17:45:41","4722"
"A17R9PYLUB516A","cs_wg_v4_pilot1","3ZGVPD4G6TI5FTCUO6KJ9MVMED2TZ1","105","0","BASKET","10","5","0","1128","basket","10","2017-03-24 17:45:43","4723"
"A3SHLGG66PJXEB","cs_wg_v4_pilot1","3TMSXRD2X610CEVGB0G24CI95S7W15","8","0","HELICOPTER","2","5","0","5369","helicopter","2","2017-03-24 17:45:46","4724"
"A2ZR3PL5I0KPQ6","cs_wg_v4_pilot1","3ITXP059PWKE0EUBHKC7BNBATWBJSH","76","0","STOMACH","8","5","0","2417","stomach","8","2017-03-24 17:45:47","4725"
"A3G6L97AX9KR7F","cs_wg_v4_pilot1","3D4CH1LGEAUM4X8B08RDXFE49G59GS","47","0","LADDER","10","5","0","7226","Ladder","10","2017-03-24 17:45:48","4726"
"A3FTOELF4L0OWS","cs_wg_v4_pilot1","39ASUFLU6X8ELFUIXT73DFFA33HEXZ","76","0","COMMUNITY","8","5","0","1044","community","8","2017-03-24 17:45:49","4727"
"A1W4Q0E00VP6VD","cs_wg_v4_pilot1","3IJXV6UZ1XK64OASKDR29CREUF3RIP","18","0","STOMACH","0","5","1","4302","Stomach","0","2017-03-24 17:45:55","4728"
"A17R9PYLUB516A","cs_wg_v4_pilot1","3ZGVPD4G6TI5FTCUO6KJ9MVMED2TZ1","106","0","BASKET","10","5","0","1044","basket","10","2017-03-24 17:45:58","4729"
"A3SHLGG66PJXEB","cs_wg_v4_pilot1","3TMSXRD2X610CEVGB0G24CI95S7W15","9","0","TRAFFIC","0","5","0","2639","traffic","0","2017-03-24 17:45:58","4730"
"A3G6L97AX9KR7F","cs_wg_v4_pilot1","3D4CH1LGEAUM4X8B08RDXFE49G59GS","48","0","LADDER","10","5","0","1873","Ladder","10","2017-03-24 17:46:00","4731"
"A3FTOELF4L0OWS","cs_wg_v4_pilot1","39ASUFLU6X8ELFUIXT73DFFA33HEXZ","77","0","FOOTBALL","2","5","1","752","football","0","2017-03-24 17:46:01","4732"
"A17R9PYLUB516A","cs_wg_v4_pilot1","3ZGVPD4G6TI5FTCUO6KJ9MVMED2TZ1","107","0","WEDDING","9","5","0","1378","wedding","9","2017-03-24 17:46:08","4733"
"A1W4Q0E00VP6VD","cs_wg_v4_pilot1","3IJXV6UZ1XK64OASKDR29CREUF3RIP","19","0","COMMUNITY","8","5","0","2477","Community","8","2017-03-24 17:46:10","4734"
"A3FTOELF4L0OWS","cs_wg_v4_pilot1","39ASUFLU6X8ELFUIXT73DFFA33HEXZ","78","0","HELICOPTER","1","5","1","559","helicopter","1","2017-03-24 17:46:10","4735"
"A2ZR3PL5I0KPQ6","cs_wg_v4_pilot1","3ITXP059PWKE0EUBHKC7BNBATWBJSH","77","0","UMBRELLA","2","5","1","11071","umbrella","2","2017-03-24 17:46:11","4736"
"A3SHLGG66PJXEB","cs_wg_v4_pilot1","3TMSXRD2X610CEVGB0G24CI95S7W15","10","0","STOMACH","10","5","0","1872","stomach","10","2017-03-24 17:46:14","4737"
"A17R9PYLUB516A","cs_wg_v4_pilot1","3ZGVPD4G6TI5FTCUO6KJ9MVMED2TZ1","108","0","STOMACH","10","5","0","970","stomach","10","2017-03-24 17:46:20","4738"
"A3FTOELF4L0OWS","cs_wg_v4_pilot1","39ASUFLU6X8ELFUIXT73DFFA33HEXZ","79","0","STRUCTURE","9","5","1","1453","structure","9","2017-03-24 17:46:21","4739"
"A1W4Q0E00VP6VD","cs_wg_v4_pilot1","3IJXV6UZ1XK64OASKDR29CREUF3RIP","20","0","BASKET","9","5","0","2114","Basket","9","2017-03-24 17:46:21","4740"
"A3G6L97AX9KR7F","cs_wg_v4_pilot1","3D4CH1LGEAUM4X8B08RDXFE49G59GS","49","0","WEDDING","10","5","0","2308","Wedding","10","2017-03-24 17:46:25","4741"
"A2ZR3PL5I0KPQ6","cs_wg_v4_pilot1","3ITXP059PWKE0EUBHKC7BNBATWBJSH","78","0","FOOTBALL","0","5","1","6497","football","0","2017-03-24 17:46:27","4742"
"A3FTOELF4L0OWS","cs_wg_v4_pilot1","39ASUFLU6X8ELFUIXT73DFFA33HEXZ","80","0","TRAFFIC","0","5","1","1492","traffic","0","2017-03-24 17:46:29","4743"
"A3SHLGG66PJXEB","cs_wg_v4_pilot1","3TMSXRD2X610CEVGB0G24CI95S7W15","11","0","WEDDING","10","5","1","7023","wedding","10","2017-03-24 17:46:32","4744"
"A17R9PYLUB516A","cs_wg_v4_pilot1","3ZGVPD4G6TI5FTCUO6KJ9MVMED2TZ1","109","0","BOOKSHELF","1","5","1","2601","bookshelf","1","2017-03-24 17:46:33","4745"
"A1W4Q0E00VP6VD","cs_wg_v4_pilot1","3IJXV6UZ1XK64OASKDR29CREUF3RIP","21","0","DOORWAY","9","5","0","4701","Doorway","9","2017-03-24 17:46:34","4746"
"A3FTOELF4L0OWS","cs_wg_v4_pilot1","39ASUFLU6X8ELFUIXT73DFFA33HEXZ","81","0","STRUCTURE","9","5","1","1351","structure","9","2017-03-24 17:46:38","4747"
"A2ZR3PL5I0KPQ6","cs_wg_v4_pilot1","3ITXP059PWKE0EUBHKC7BNBATWBJSH","79","0","BOOKSHELF","10","5","0","1936","bookshelf","10","2017-03-24 17:46:40","4748"
"A3FTOELF4L0OWS","cs_wg_v4_pilot1","39ASUFLU6X8ELFUIXT73DFFA33HEXZ","82","0","DOORWAY","2","5","1","1555","doorway","2","2017-03-24 17:46:46","4749"
"A3SHLGG66PJXEB","cs_wg_v4_pilot1","3TMSXRD2X610CEVGB0G24CI95S7W15","12","0","KEYBOARD","1","5","0","4144","keyboard","1","2017-03-24 17:46:47","4750"
"A17R9PYLUB516A","cs_wg_v4_pilot1","3ZGVPD4G6TI5FTCUO6KJ9MVMED2TZ1","110","0","DOORWAY","8","5","0","2100","doorway","8","2017-03-24 17:46:47","4751"
"A1W4Q0E00VP6VD","cs_wg_v4_pilot1","3IJXV6UZ1XK64OASKDR29CREUF3RIP","22","0","KEYBOARD","10","5","0","2141","Keyboard","10","2017-03-24 17:46:50","4752"
"A2ZR3PL5I0KPQ6","cs_wg_v4_pilot1","3ITXP059PWKE0EUBHKC7BNBATWBJSH","80","0","MACHINE","0","5","1","2095","machine","0","2017-03-24 17:46:52","4753"
"A3G6L97AX9KR7F","cs_wg_v4_pilot1","3D4CH1LGEAUM4X8B08RDXFE49G59GS","50","0","DOORWAY","2","5","1","9115","Doorway","2","2017-03-24 17:46:52","4754"
"A3FTOELF4L0OWS","cs_wg_v4_pilot1","39ASUFLU6X8ELFUIXT73DFFA33HEXZ","83","0","STOMACH","0","5","1","1551","stomach","0","2017-03-24 17:46:55","4755"
"A3SHLGG66PJXEB","cs_wg_v4_pilot1","3TMSXRD2X610CEVGB0G24CI95S7W15","13","0","LADDER","9","5","0","2592","ladder","9","2017-03-24 17:46:59","4756"
"A17R9PYLUB516A","cs_wg_v4_pilot1","3ZGVPD4G6TI5FTCUO6KJ9MVMED2TZ1","111","0","BOOKSHELF","1","5","1","934","bookshelf","1","2017-03-24 17:47:00","4757"
"A2ZR3PL5I0KPQ6","cs_wg_v4_pilot1","3ITXP059PWKE0EUBHKC7BNBATWBJSH","81","0","HELICOPTER","10","5","0","2043","helicopter","10","2017-03-24 17:47:06","4758"
"A3G6L97AX9KR7F","cs_wg_v4_pilot1","3D4CH1LGEAUM4X8B08RDXFE49G59GS","51","0","COMMUNITY","9","5","0","6708","Community","9","2017-03-24 17:47:10","4759"
"A1W4Q0E00VP6VD","cs_wg_v4_pilot1","3IJXV6UZ1XK64OASKDR29CREUF3RIP","23","0","FOOTBALL","2","5","1","10601","Football","2","2017-03-24 17:47:13","4760"
"A3SHLGG66PJXEB","cs_wg_v4_pilot1","3TMSXRD2X610CEVGB0G24CI95S7W15","14","0","DOORWAY","0","5","0","4475","doorway","0","2017-03-24 17:47:13","4761"
"A2ZR3PL5I0KPQ6","cs_wg_v4_pilot1","3ITXP059PWKE0EUBHKC7BNBATWBJSH","82","0","WEDDING","1","5","1","4886","wedding","1","2017-03-24 17:47:21","4762"
"A3FTOELF4L0OWS","cs_wg_v4_pilot1","39ASUFLU6X8ELFUIXT73DFFA33HEXZ","84","0","KEYBOARD","1","5","1","18490","keyboard","1","2017-03-24 17:47:22","4763"
"A1W4Q0E00VP6VD","cs_wg_v4_pilot1","3IJXV6UZ1XK64OASKDR29CREUF3RIP","24","0","TRAFFIC","10","5","0","2902","Traffic","10","2017-03-24 17:47:23","4764"
"A2ZR3PL5I0KPQ6","cs_wg_v4_pilot1","3ITXP059PWKE0EUBHKC7BNBATWBJSH","83","0","KEYBOARD","9","5","0","1844","keyboard","9","2017-03-24 17:47:32","4765"
"A1W4Q0E00VP6VD","cs_wg_v4_pilot1","3IJXV6UZ1XK64OASKDR29CREUF3RIP","25","0","KEYBOARD","10","5","0","3439","Keyboard","10","2017-03-24 17:47:35","4766"
"A3SHLGG66PJXEB","cs_wg_v4_pilot1","3TMSXRD2X610CEVGB0G24CI95S7W15","15","0","BOOKSHELF","1","5","0","6408","bookshelf","1","2017-03-24 17:47:35","4767"
"A3G6L97AX9KR7F","cs_wg_v4_pilot1","3D4CH1LGEAUM4X8B08RDXFE49G59GS","52","0","BASKET","0","5","1","15858","Basket","0","2017-03-24 17:47:43","4768"
"A2ZR3PL5I0KPQ6","cs_wg_v4_pilot1","3ITXP059PWKE0EUBHKC7BNBATWBJSH","84","0","STRUCTURE","9","5","0","2275","structure","9","2017-03-24 17:47:45","4769"
"A1W4Q0E00VP6VD","cs_wg_v4_pilot1","3IJXV6UZ1XK64OASKDR29CREUF3RIP","26","0","STRUCTURE","1","5","0","2082","Structure","1","2017-03-24 17:47:47","4770"
"A3SHLGG66PJXEB","cs_wg_v4_pilot1","3TMSXRD2X610CEVGB0G24CI95S7W15","16","0","HELICOPTER","2","5","0","3120","helicopter","2","2017-03-24 17:47:50","4771"
"A3FTOELF4L0OWS","cs_wg_v4_pilot1","39ASUFLU6X8ELFUIXT73DFFA33HEXZ","85","0","MACHINE","10","5","1","21568","machine","10","2017-03-24 17:47:52","4772"
"A2ZR3PL5I0KPQ6","cs_wg_v4_pilot1","3ITXP059PWKE0EUBHKC7BNBATWBJSH","85","0","WEDDING","1","5","1","2142","wedding","1","2017-03-24 17:47:59","4773"
"A1W4Q0E00VP6VD","cs_wg_v4_pilot1","3IJXV6UZ1XK64OASKDR29CREUF3RIP","27","0","MACHINE","2","5","1","4352","Machine","2","2017-03-24 17:48:01","4774"
"A3FTOELF4L0OWS","cs_wg_v4_pilot1","39ASUFLU6X8ELFUIXT73DFFA33HEXZ","86","0","KEYBOARD","1","5","1","1201","keyboard","1","2017-03-24 17:48:01","4775"
"A3SHLGG66PJXEB","cs_wg_v4_pilot1","3TMSXRD2X610CEVGB0G24CI95S7W15","17","0","TRAFFIC","0","5","1","4442","traffic","0","2017-03-24 17:48:06","4776"
"A2ZR3PL5I0KPQ6","cs_wg_v4_pilot1","3ITXP059PWKE0EUBHKC7BNBATWBJSH","86","0","STRUCTURE","9","5","0","1636","structure","9","2017-03-24 17:48:11","4777"
"A3FTOELF4L0OWS","cs_wg_v4_pilot1","39ASUFLU6X8ELFUIXT73DFFA33HEXZ","87","0","LADDER","9","5","0","2690","ladder","9","2017-03-24 17:48:13","4778"
"A1W4Q0E00VP6VD","cs_wg_v4_pilot1","3IJXV6UZ1XK64OASKDR29CREUF3RIP","28","0","HELICOPTER","8","5","0","5577","Helicopter","8","2017-03-24 17:48:16","4779"
"A3FTOELF4L0OWS","cs_wg_v4_pilot1","39ASUFLU6X8ELFUIXT73DFFA33HEXZ","88","0","FOOTBALL","2","5","1","1414","football","2","2017-03-24 17:48:21","4780"
"A3SHLGG66PJXEB","cs_wg_v4_pilot1","3TMSXRD2X610CEVGB0G24CI95S7W15","18","0","LADDER","9","5","1","6211","ladder","9","2017-03-24 17:48:22","4781"
"A3G6L97AX9KR7F","cs_wg_v4_pilot1","3D4CH1LGEAUM4X8B08RDXFE49G59GS","53","0","TRAFFIC","10","5","0","11829","Traffic","10","2017-03-24 17:48:23","4782"
"A2ZR3PL5I0KPQ6","cs_wg_v4_pilot1","3ITXP059PWKE0EUBHKC7BNBATWBJSH","87","0","MACHINE","0","5","1","2056","machine","0","2017-03-24 17:48:23","4783"
"A1W4Q0E00VP6VD","cs_wg_v4_pilot1","3IJXV6UZ1XK64OASKDR29CREUF3RIP","29","0","STRUCTURE","1","5","1","6282","Structure","1","2017-03-24 17:48:29","4784"
"A3FTOELF4L0OWS","cs_wg_v4_pilot1","39ASUFLU6X8ELFUIXT73DFFA33HEXZ","89","0","FOOTBALL","2","5","1","1576","football","2","2017-03-24 17:48:30","4785"
"A2ZR3PL5I0KPQ6","cs_wg_v4_pilot1","3ITXP059PWKE0EUBHKC7BNBATWBJSH","88","0","BOOKSHELF","10","5","0","1727","bookshelf","10","2017-03-24 17:48:35","4786"
"A3G6L97AX9KR7F","cs_wg_v4_pilot1","3D4CH1LGEAUM4X8B08RDXFE49G59GS","54","0","LADDER","10","5","0","3312","Ladder","10","2017-03-24 17:48:36","4787"
"A3FTOELF4L0OWS","cs_wg_v4_pilot1","39ASUFLU6X8ELFUIXT73DFFA33HEXZ","90","0","WEDDING","0","5","1","716","wedding","0","2017-03-24 17:48:37","4788"
"A3SHLGG66PJXEB","cs_wg_v4_pilot1","3TMSXRD2X610CEVGB0G24CI95S7W15","19","0","LADDER","9","5","0","3276","ladder","9","2017-03-24 17:48:39","4789"
"A1W4Q0E00VP6VD","cs_wg_v4_pilot1","3IJXV6UZ1XK64OASKDR29CREUF3RIP","30","0","COMMUNITY","8","5","0","3004","Community","8","2017-03-24 17:48:40","4790"
"A2ZR3PL5I0KPQ6","cs_wg_v4_pilot1","3ITXP059PWKE0EUBHKC7BNBATWBJSH","89","0","COMMUNITY","0","5","1","2918","community","0","2017-03-24 17:48:48","4791"
"A3FTOELF4L0OWS","cs_wg_v4_pilot1","39ASUFLU6X8ELFUIXT73DFFA33HEXZ","91","0","STOMACH","0","5","1","1090","stomach","0","2017-03-24 17:48:55","4792"
"A2ZR3PL5I0KPQ6","cs_wg_v4_pilot1","3ITXP059PWKE0EUBHKC7BNBATWBJSH","90","0","UMBRELLA","2","5","1","3556","umbrella","2","2017-03-24 17:49:02","4793"
"A1W4Q0E00VP6VD","cs_wg_v4_pilot1","3IJXV6UZ1XK64OASKDR29CREUF3RIP","31","0","MACHINE","2","5","1","2807","Machine","2","2017-03-24 17:49:05","4794"
"A3SHLGG66PJXEB","cs_wg_v4_pilot1","3TMSXRD2X610CEVGB0G24CI95S7W15","20","0","STRUCTURE","10","5","0","2830","structure ","9","2017-03-24 17:49:05","4795"
"A3FTOELF4L0OWS","cs_wg_v4_pilot1","39ASUFLU6X8ELFUIXT73DFFA33HEXZ","92","0","BOOKSHELF","8","5","1","1722","bookshelf","8","2017-03-24 17:49:05","4796"
"A3FTOELF4L0OWS","cs_wg_v4_pilot1","39ASUFLU6X8ELFUIXT73DFFA33HEXZ","93","0","UMBRELLA","10","5","1","1517","umbrella","10","2017-03-24 17:49:14","4797"
"A3G6L97AX9KR7F","cs_wg_v4_pilot1","3D4CH1LGEAUM4X8B08RDXFE49G59GS","55","0","MACHINE","2","5","1","3666","Machine","2","2017-03-24 17:49:16","4798"
"A2ZR3PL5I0KPQ6","cs_wg_v4_pilot1","3ITXP059PWKE0EUBHKC7BNBATWBJSH","91","0","HELICOPTER","10","5","0","1858","helicopter","10","2017-03-24 17:49:17","4799"
"A1W4Q0E00VP6VD","cs_wg_v4_pilot1","3IJXV6UZ1XK64OASKDR29CREUF3RIP","32","0","STRUCTURE","1","5","1","5067","Structure","1","2017-03-24 17:49:17","4800"
"A3SHLGG66PJXEB","cs_wg_v4_pilot1","3TMSXRD2X610CEVGB0G24CI95S7W15","21","0","STOMACH","10","5","0","3173","stomach","10","2017-03-24 17:49:18","4801"
"A3FTOELF4L0OWS","cs_wg_v4_pilot1","39ASUFLU6X8ELFUIXT73DFFA33HEXZ","94","0","LADDER","9","5","1","7980","ladder","9","2017-03-24 17:49:29","4802"
"A2ZR3PL5I0KPQ6","cs_wg_v4_pilot1","3ITXP059PWKE0EUBHKC7BNBATWBJSH","92","0","UMBRELLA","2","5","1","2708","umbrella","2","2017-03-24 17:49:29","4803"
"A1W4Q0E00VP6VD","cs_wg_v4_pilot1","3IJXV6UZ1XK64OASKDR29CREUF3RIP","33","0","BASKET","9","5","0","4561","Basket","9","2017-03-24 17:49:31","4804"
"A3G6L97AX9KR7F","cs_wg_v4_pilot1","3D4CH1LGEAUM4X8B08RDXFE49G59GS","56","0","DOORWAY","2","5","0","4886","Doorway","2","2017-03-24 17:49:33","4805"
"A3SHLGG66PJXEB","cs_wg_v4_pilot1","3TMSXRD2X610CEVGB0G24CI95S7W15","22","0","BOOKSHELF","1","5","0","5840","bookshelf","1","2017-03-24 17:49:36","4806"
"A3FTOELF4L0OWS","cs_wg_v4_pilot1","39ASUFLU6X8ELFUIXT73DFFA33HEXZ","95","0","COMMUNITY","8","5","1","927","community","8","2017-03-24 17:49:37","4807"
"A2ZR3PL5I0KPQ6","cs_wg_v4_pilot1","3ITXP059PWKE0EUBHKC7BNBATWBJSH","93","0","LADDER","8","5","0","1871","ladder","8","2017-03-24 17:49:43","4808"
"A1W4Q0E00VP6VD","cs_wg_v4_pilot1","3IJXV6UZ1XK64OASKDR29CREUF3RIP","34","0","HELICOPTER","8","5","0","2966","Helicopter","8","2017-03-24 17:49:44","4809"
"A3FTOELF4L0OWS","cs_wg_v4_pilot1","39ASUFLU6X8ELFUIXT73DFFA33HEXZ","96","0","HELICOPTER","1","5","1","931","helicopter","1","2017-03-24 17:49:49","4810"
"A3G6L97AX9KR7F","cs_wg_v4_pilot1","3D4CH1LGEAUM4X8B08RDXFE49G59GS","57","0","KEYBOARD","0","5","1","4574","Keyboard","0","2017-03-24 17:49:52","4811"
"A3SHLGG66PJXEB","cs_wg_v4_pilot1","3TMSXRD2X610CEVGB0G24CI95S7W15","23","0","KEYBOARD","1","5","1","3798","keyboard","1","2017-03-24 17:49:53","4812"
"A2ZR3PL5I0KPQ6","cs_wg_v4_pilot1","3ITXP059PWKE0EUBHKC7BNBATWBJSH","94","0","BOOKSHELF","10","5","0","1671","bookshelf","10","2017-03-24 17:49:55","4813"
"A1W4Q0E00VP6VD","cs_wg_v4_pilot1","3IJXV6UZ1XK64OASKDR29CREUF3RIP","35","0","DOORWAY","9","5","0","3707","Doorway","9","2017-03-24 17:49:56","4814"
"A3FTOELF4L0OWS","cs_wg_v4_pilot1","39ASUFLU6X8ELFUIXT73DFFA33HEXZ","97","0","HELICOPTER","1","5","1","1094","helicopter","1","2017-03-24 17:49:59","4815"
"A3SHLGG66PJXEB","cs_wg_v4_pilot1","3TMSXRD2X610CEVGB0G24CI95S7W15","24","0","UMBRELLA","0","5","0","2150","umbrella","0","2017-03-24 17:50:04","4816"
"A2ZR3PL5I0KPQ6","cs_wg_v4_pilot1","3ITXP059PWKE0EUBHKC7BNBATWBJSH","95","0","BOOKSHELF","10","5","0","1787","bookshelf","10","2017-03-24 17:50:07","4817"
"A3G6L97AX9KR7F","cs_wg_v4_pilot1","3D4CH1LGEAUM4X8B08RDXFE49G59GS","58","0","HELICOPTER","9","5","0","5264","Helicopter","9","2017-03-24 17:50:08","4818"
"A3FTOELF4L0OWS","cs_wg_v4_pilot1","39ASUFLU6X8ELFUIXT73DFFA33HEXZ","98","0","HELICOPTER","1","5","1","1702","helicopter","1","2017-03-24 17:50:08","4819"
"A1W4Q0E00VP6VD","cs_wg_v4_pilot1","3IJXV6UZ1XK64OASKDR29CREUF3RIP","36","0","LADDER","10","5","0","6400","Ladder","10","2017-03-24 17:50:10","4820"
"A3FTOELF4L0OWS","cs_wg_v4_pilot1","39ASUFLU6X8ELFUIXT73DFFA33HEXZ","99","0","STRUCTURE","9","5","1","1059","structure","9","2017-03-24 17:50:16","4821"
"A3SHLGG66PJXEB","cs_wg_v4_pilot1","3TMSXRD2X610CEVGB0G24CI95S7W15","25","0","STRUCTURE","10","5","1","2974","structure","10","2017-03-24 17:50:17","4822"
"A2ZR3PL5I0KPQ6","cs_wg_v4_pilot1","3ITXP059PWKE0EUBHKC7BNBATWBJSH","96","0","DOORWAY","10","5","0","2273","doorway","10","2017-03-24 17:50:20","4823"
"A3G6L97AX9KR7F","cs_wg_v4_pilot1","3D4CH1LGEAUM4X8B08RDXFE49G59GS","59","0","HELICOPTER","9","5","0","1980","Helicopter","9","2017-03-24 17:50:21","4824"
"A3FTOELF4L0OWS","cs_wg_v4_pilot1","39ASUFLU6X8ELFUIXT73DFFA33HEXZ","100","0","UMBRELLA","10","5","1","1173","umbrella","10","2017-03-24 17:50:24","4825"
"A1W4Q0E00VP6VD","cs_wg_v4_pilot1","3IJXV6UZ1XK64OASKDR29CREUF3RIP","37","0","KEYBOARD","10","5","0","7224","Keyboard","10","2017-03-24 17:50:29","4826"
"A2ZR3PL5I0KPQ6","cs_wg_v4_pilot1","3ITXP059PWKE0EUBHKC7BNBATWBJSH","97","0","HELICOPTER","10","5","0","1875","helicopter","10","2017-03-24 17:50:33","4827"
"A3SHLGG66PJXEB","cs_wg_v4_pilot1","3TMSXRD2X610CEVGB0G24CI95S7W15","26","0","WEDDING","10","5","1","2338","wedding ","10","2017-03-24 17:50:33","4828"
"A3G6L97AX9KR7F","cs_wg_v4_pilot1","3D4CH1LGEAUM4X8B08RDXFE49G59GS","60","0","FOOTBALL","0","5","1","5826","Football","0","2017-03-24 17:50:40","4829"
"A3FTOELF4L0OWS","cs_wg_v4_pilot1","39ASUFLU6X8ELFUIXT73DFFA33HEXZ","101","0","COMMUNITY","8","5","1","1277","community","8","2017-03-24 17:50:41","4830"
"A1W4Q0E00VP6VD","cs_wg_v4_pilot1","3IJXV6UZ1XK64OASKDR29CREUF3RIP","38","0","FOOTBALL","2","5","1","4671","Football","2","2017-03-24 17:50:43","4831"
