"subject","version","assignmentId","trial","trial_type","word","value","alt","choice","rt","resp","resp2","stamp","id"
"A173E26N947Q7A","cs_wg_full_v3_pilot2","31EUONYN2V48TH2CRS9HU6C6A7KOVU","0","0","SPATULA","6","6","1","4163","spatula","6","2018-06-29 15:43:21","336574"
"A3HKQND0VGDM87","cs_wg_full_v3_pilot2","3U0SRXB7CD6YIPLJHT4UEKNYZR2RNP","0","0","ACROBAT","6","6","0","6199","acrobat","6","2018-06-29 15:43:33","336575"
"A173E26N947Q7A","cs_wg_full_v3_pilot2","31EUONYN2V48TH2CRS9HU6C6A7KOVU","1","0","RABBIT","7","6","0","4050","rabbit","7","2018-06-29 15:43:35","336576"
"ACWYF9Z50PCA9","cs_wg_full_v3_pilot2","3ZSY5X72NXCG0ALVI847T9N3P17OR1","0","0","PALACE","6","6","1","11107","PALACE","6","2018-06-29 15:43:39","336577"
"A1DJ3IDWF923Y7","cs_wg_full_v3_pilot2","3HQUKB7LNFFTJZL5IQXNVWOWQ6VHH9","0","0","BUCKET","1","6","1","7009","bucket","1","2018-06-29 15:43:49","336578"
"A3HKQND0VGDM87","cs_wg_full_v3_pilot2","3U0SRXB7CD6YIPLJHT4UEKNYZR2RNP","1","0","BASKET","1","6","1","5515","basket","1","2018-06-29 15:43:51","336579"
"A26XF8O4XRL8JA","cs_wg_full_v3_pilot2","3TXMY6UCAEPFFK9SFO6GTJJH41MCQR","0","0","TURKEY","15","6","0","4556","turkey","15","2018-06-29 15:43:51","336580"
"A173E26N947Q7A","cs_wg_full_v3_pilot2","31EUONYN2V48TH2CRS9HU6C6A7KOVU","2","0","SPATULA","6","6","1","3535","spatula","6","2018-06-29 15:43:51","336581"
"ACWYF9Z50PCA9","cs_wg_full_v3_pilot2","3ZSY5X72NXCG0ALVI847T9N3P17OR1","1","0","PUMPKIN","1","6","0","3986","PUMPKIN","1","2018-06-29 15:43:57","336582"
"A173E26N947Q7A","cs_wg_full_v3_pilot2","31EUONYN2V48TH2CRS9HU6C6A7KOVU","3","0","BANANA","7","6","0","3767","banana","7","2018-06-29 15:44:04","336583"
"A26XF8O4XRL8JA","cs_wg_full_v3_pilot2","3TXMY6UCAEPFFK9SFO6GTJJH41MCQR","1","0","COSTUME","6","6","0","2909","costume","6","2018-06-29 15:44:07","336584"
"A3HKQND0VGDM87","cs_wg_full_v3_pilot2","3U0SRXB7CD6YIPLJHT4UEKNYZR2RNP","2","0","ACROBAT","6","6","1","7940","acrobat","6","2018-06-29 15:44:09","336585"
"A24ZAX5O63WVNI","cs_wg_full_v3_pilot2","3EJJQNKU9R668TZ8EV9H90Q2DFTRHG","0","0","SUNBURN","6","6","0","4977","Sunburn","6","2018-06-29 15:44:12","336586"
"ACWYF9Z50PCA9","cs_wg_full_v3_pilot2","3ZSY5X72NXCG0ALVI847T9N3P17OR1","2","0","PICTURE","6","6","1","3451","PICTURE","6","2018-06-29 15:44:15","336587"
"A173E26N947Q7A","cs_wg_full_v3_pilot2","31EUONYN2V48TH2CRS9HU6C6A7KOVU","4","0","BAMBOO","5","6","0","2015","bamboo","5","2018-06-29 15:44:15","336588"
"A1DJ3IDWF923Y7","cs_wg_full_v3_pilot2","3HQUKB7LNFFTJZL5IQXNVWOWQ6VHH9","1","0","BANQUET","6","6","1","4898","banquet","6","2018-06-29 15:44:16","336589"
"A1W48HYA27W9PA","cs_wg_full_v3_pilot2","3UWN2HHPUY6AJ4LWWI4Z4USULTLSNE","0","0","AIRBAG","5","6","0","5281","Airbag","5","2018-06-29 15:44:21","336590"
"A3BMEBBDIHI6DU","cs_wg_full_v3_pilot2","3VHP9MDGRNLIOVJJ18VMHKF3XZDCFX","0","0","BAMBOO","6","6","1","6061","BAMBOO","6","2018-06-29 15:44:22","336591"
"A26XF8O4XRL8JA","cs_wg_full_v3_pilot2","3TXMY6UCAEPFFK9SFO6GTJJH41MCQR","2","0","TURKEY","15","6","0","3213","turkey","15","2018-06-29 15:44:23","336592"
"ACWYF9Z50PCA9","cs_wg_full_v3_pilot2","3ZSY5X72NXCG0ALVI847T9N3P17OR1","3","0","PUMPKIN","1","6","1","2319","PUMPKIN","1","2018-06-29 15:44:26","336593"
"A3HKQND0VGDM87","cs_wg_full_v3_pilot2","3U0SRXB7CD6YIPLJHT4UEKNYZR2RNP","3","0","PICKLE","15","6","1","5489","pickle","15","2018-06-29 15:44:26","336594"
"A173E26N947Q7A","cs_wg_full_v3_pilot2","31EUONYN2V48TH2CRS9HU6C6A7KOVU","5","0","BANANA","7","6","0","2143","banana","7","2018-06-29 15:44:27","336595"
"AASWAMYQ9PXMQ","cs_wg_full_v3_pilot2","378XPAWRUCEE57OBI25GEM27DOKIAS","0","0","PICKLE","15","6","0","4136","pickle","15","2018-06-29 15:44:27","336596"
"A24ZAX5O63WVNI","cs_wg_full_v3_pilot2","3EJJQNKU9R668TZ8EV9H90Q2DFTRHG","1","0","PELICAN","7","6","0","2936","pelican","7","2018-06-29 15:44:30","336597"
"A247EMWK0LVQGK","cs_wg_full_v3_pilot2","32XVDSJFPZYBWNJYQ2AT0XQQI9CM25","0","0","CRICKET","1","6","1","5507","cricket","1","2018-06-29 15:44:32","336598"
"A1W48HYA27W9PA","cs_wg_full_v3_pilot2","3UWN2HHPUY6AJ4LWWI4Z4USULTLSNE","1","0","COWBOY","7","6","0","3008","cowboy","7","2018-06-29 15:44:35","336599"
"A26XF8O4XRL8JA","cs_wg_full_v3_pilot2","3TXMY6UCAEPFFK9SFO6GTJJH41MCQR","3","0","COSTUME","6","6","1","3172","costume","6","2018-06-29 15:44:38","336600"
"A1DJ3IDWF923Y7","cs_wg_full_v3_pilot2","3HQUKB7LNFFTJZL5IQXNVWOWQ6VHH9","2","0","PUMPKIN","15","6","0","4571","pumpkin","15","2018-06-29 15:44:39","336601"
"ACWYF9Z50PCA9","cs_wg_full_v3_pilot2","3ZSY5X72NXCG0ALVI847T9N3P17OR1","4","0","PALACE","6","6","0","2726","PALACE","6","2018-06-29 15:44:39","336602"
"A173E26N947Q7A","cs_wg_full_v3_pilot2","31EUONYN2V48TH2CRS9HU6C6A7KOVU","6","0","BICYCLE","7","6","0","2242","bicycle","7","2018-06-29 15:44:39","336603"
"A212P51360T72C","cs_wg_full_v3_pilot2","3XCC1ODXDLCJLMYBXLWBIEI342PRQC","0","0","SUNBURN","6","6","1","6326","sunburn","6","2018-06-29 15:44:40","336604"
"A3HKQND0VGDM87","cs_wg_full_v3_pilot2","3U0SRXB7CD6YIPLJHT4UEKNYZR2RNP","4","0","PICKLE","15","6","0","2448","pickle","15","2018-06-29 15:44:40","336605"
"AAICZ4OJOL83Y","cs_wg_full_v3_pilot2","33JKGHPFYCV7L98RCL8DSLTOT43MNW","0","0","LIQUID","6","6","1","9098","LIQUID","6","2018-06-29 15:44:41","336606"
"AASWAMYQ9PXMQ","cs_wg_full_v3_pilot2","378XPAWRUCEE57OBI25GEM27DOKIAS","1","0","COMPANY","6","6","0","3956","company","6","2018-06-29 15:44:46","336607"
"A247EMWK0LVQGK","cs_wg_full_v3_pilot2","32XVDSJFPZYBWNJYQ2AT0XQQI9CM25","1","0","PEBBLE","6","6","1","3324","pebble","6","2018-06-29 15:44:47","336608"
"A24ZAX5O63WVNI","cs_wg_full_v3_pilot2","3EJJQNKU9R668TZ8EV9H90Q2DFTRHG","2","0","TOMATO","5","6","0","3007","TOMATO","5","2018-06-29 15:44:48","336609"
"A1W48HYA27W9PA","cs_wg_full_v3_pilot2","3UWN2HHPUY6AJ4LWWI4Z4USULTLSNE","2","0","AIRBAG","5","6","1","3998","airbag","5","2018-06-29 15:44:48","336610"
"ACWYF9Z50PCA9","cs_wg_full_v3_pilot2","3ZSY5X72NXCG0ALVI847T9N3P17OR1","5","0","PICTURE","6","6","0","3609","PICTURE","6","2018-06-29 15:44:51","336611"
"A3BMEBBDIHI6DU","cs_wg_full_v3_pilot2","3VHP9MDGRNLIOVJJ18VMHKF3XZDCFX","1","0","JACKET","15","6","1","5658","JACKET","15","2018-06-29 15:44:52","336612"
"A26XF8O4XRL8JA","cs_wg_full_v3_pilot2","3TXMY6UCAEPFFK9SFO6GTJJH41MCQR","4","0","COSTUME","6","6","1","3782","costume","6","2018-06-29 15:44:54","336613"
"A173E26N947Q7A","cs_wg_full_v3_pilot2","31EUONYN2V48TH2CRS9HU6C6A7KOVU","7","0","BICYCLE","7","6","0","1552","bicycle","7","2018-06-29 15:44:54","336614"
"A212P51360T72C","cs_wg_full_v3_pilot2","3XCC1ODXDLCJLMYBXLWBIEI342PRQC","1","0","MONKEY","15","6","1","2862","monkey","15","2018-06-29 15:44:56","336615"
"A1DJ3IDWF923Y7","cs_wg_full_v3_pilot2","3HQUKB7LNFFTJZL5IQXNVWOWQ6VHH9","3","0","BUCKET","1","6","1","3632","bucket","1","2018-06-29 15:44:57","336616"
"A3HKQND0VGDM87","cs_wg_full_v3_pilot2","3U0SRXB7CD6YIPLJHT4UEKNYZR2RNP","5","0","ACROBAT","6","6","1","4845","acrobat","6","2018-06-29 15:45:00","336617"
"A30KKDFHZL9L4C","cs_wg_full_v3_pilot2","3AZHRG4CU4L3ER8A5X10LAO5LKC03K","0","0","ARCADE","5","6","0","4893","arcade","5","2018-06-29 15:45:00","336618"
"A247EMWK0LVQGK","cs_wg_full_v3_pilot2","32XVDSJFPZYBWNJYQ2AT0XQQI9CM25","2","0","CRICKET","1","6","1","6139","cricket","1","2018-06-29 15:45:01","336619"
"AASWAMYQ9PXMQ","cs_wg_full_v3_pilot2","378XPAWRUCEE57OBI25GEM27DOKIAS","2","0","PICKLE","15","6","0","2524","pickle","15","2018-06-29 15:45:02","336620"
"A1W48HYA27W9PA","cs_wg_full_v3_pilot2","3UWN2HHPUY6AJ4LWWI4Z4USULTLSNE","3","0","CRICKET","15","6","1","4127","cricket","15","2018-06-29 15:45:02","336621"
"ACWYF9Z50PCA9","cs_wg_full_v3_pilot2","3ZSY5X72NXCG0ALVI847T9N3P17OR1","6","0","PALACE","6","6","1","3953","PALACE","6","2018-06-29 15:45:03","336622"
"A24ZAX5O63WVNI","cs_wg_full_v3_pilot2","3EJJQNKU9R668TZ8EV9H90Q2DFTRHG","3","0","CHICKEN","1","6","0","3726","chicken","1","2018-06-29 15:45:06","336623"
"A119I25CPLHE7X","cs_wg_full_v3_pilot2","3MAOD8E57QBIFL7VQSAM329M08NXNR","0","0","POTATO","7","6","0","4516","potato","6","2018-06-29 15:45:07","336624"
"A173E26N947Q7A","cs_wg_full_v3_pilot2","31EUONYN2V48TH2CRS9HU6C6A7KOVU","8","0","BAMBOO","5","6","1","4428","bamboo","5","2018-06-29 15:45:08","336625"
"A26XF8O4XRL8JA","cs_wg_full_v3_pilot2","3TXMY6UCAEPFFK9SFO6GTJJH41MCQR","5","0","CANCER","6","6","0","3690","cancer","6","2018-06-29 15:45:08","336626"
"A3KRI94KVF7TIC","cs_wg_full_v3_pilot2","3HRMW88U16R40DGKBF6FH9XBLBSM0L","0","0","PUMPKIN","15","6","0","7884","Pumpkin","15","2018-06-29 15:45:08","336627"
"AAICZ4OJOL83Y","cs_wg_full_v3_pilot2","33JKGHPFYCV7L98RCL8DSLTOT43MNW","1","0","COWBOY","6","6","1","8882","COWBOY","6","2018-06-29 15:45:09","336628"
"A1O4W7F05T6HY0","cs_wg_full_v3_pilot2","3N4BPTXIO8TPQBSXOA7JR3TECV1KUH","0","0","CANCER","7","6","1","13856","cancer","7","2018-06-29 15:45:12","336629"
"A212P51360T72C","cs_wg_full_v3_pilot2","3XCC1ODXDLCJLMYBXLWBIEI342PRQC","2","0","SMOKER","1","6","1","3272","smoker","1","2018-06-29 15:45:13","336630"
"ACWYF9Z50PCA9","cs_wg_full_v3_pilot2","3ZSY5X72NXCG0ALVI847T9N3P17OR1","7","0","PALACE","6","6","0","1971","PALACE","6","2018-06-29 15:45:13","336631"
"A3HKQND0VGDM87","cs_wg_full_v3_pilot2","3U0SRXB7CD6YIPLJHT4UEKNYZR2RNP","6","0","PICKLE","15","6","0","2307","pickle","15","2018-06-29 15:45:14","336632"
"A30KKDFHZL9L4C","cs_wg_full_v3_pilot2","3AZHRG4CU4L3ER8A5X10LAO5LKC03K","1","0","PALACE","7","6","0","2995","palace","7","2018-06-29 15:45:14","336633"
"A247EMWK0LVQGK","cs_wg_full_v3_pilot2","32XVDSJFPZYBWNJYQ2AT0XQQI9CM25","3","0","CRICKET","1","6","1","3251","cricket","1","2018-06-29 15:45:16","336634"
"A3BMEBBDIHI6DU","cs_wg_full_v3_pilot2","3VHP9MDGRNLIOVJJ18VMHKF3XZDCFX","2","0","SUNBURN","6","6","1","3464","SUNBURN","6","2018-06-29 15:45:16","336635"
"ADHUJSKTI0UQA","cs_wg_full_v3_pilot2","33M4IA01QG23UJZNJZR3CMEW15CRX9","0","0","PELICAN","6","6","0","5029","PELICAN","6","2018-06-29 15:45:19","336636"
"A173E26N947Q7A","cs_wg_full_v3_pilot2","31EUONYN2V48TH2CRS9HU6C6A7KOVU","9","0","GARBAGE","5","6","0","2009","garbage","5","2018-06-29 15:45:19","336637"
"A1DJ3IDWF923Y7","cs_wg_full_v3_pilot2","3HQUKB7LNFFTJZL5IQXNVWOWQ6VHH9","4","0","GARBAGE","6","6","1","4473","garbage","6","2018-06-29 15:45:19","336638"
"AASWAMYQ9PXMQ","cs_wg_full_v3_pilot2","378XPAWRUCEE57OBI25GEM27DOKIAS","3","0","SUNBURN","6","6","0","1834","sunburn","6 points","2018-06-29 15:45:20","336639"
"A26XF8O4XRL8JA","cs_wg_full_v3_pilot2","3TXMY6UCAEPFFK9SFO6GTJJH41MCQR","6","0","MONKEY","1","6","0","2225","monkey","1","2018-06-29 15:45:21","336640"
"A119I25CPLHE7X","cs_wg_full_v3_pilot2","3MAOD8E57QBIFL7VQSAM329M08NXNR","1","0","RABBIT","7","6","0","3411","Rabbitt","6","2018-06-29 15:45:22","336641"
"ACWYF9Z50PCA9","cs_wg_full_v3_pilot2","3ZSY5X72NXCG0ALVI847T9N3P17OR1","8","0","PALACE","6","6","0","1626","PALACE","6","2018-06-29 15:45:22","336642"
"A24ZAX5O63WVNI","cs_wg_full_v3_pilot2","3EJJQNKU9R668TZ8EV9H90Q2DFTRHG","4","0","COMPANY","5","6","0","2690","company","5","2018-06-29 15:45:23","336643"
"A3HKQND0VGDM87","cs_wg_full_v3_pilot2","3U0SRXB7CD6YIPLJHT4UEKNYZR2RNP","7","0","ACROBAT","6","6","0","2738","acrobat ","6","2018-06-29 15:45:27","336644"
"A247EMWK0LVQGK","cs_wg_full_v3_pilot2","32XVDSJFPZYBWNJYQ2AT0XQQI9CM25","4","0","COSTUME","6","6","1","2726","costume","6","2018-06-29 15:45:28","336645"
"A1W48HYA27W9PA","cs_wg_full_v3_pilot2","3UWN2HHPUY6AJ4LWWI4Z4USULTLSNE","4","0","BAMBOO","5","6","1","3675","bamboo","5","2018-06-29 15:45:28","336646"
"ADHUJSKTI0UQA","cs_wg_full_v3_pilot2","33M4IA01QG23UJZNJZR3CMEW15CRX9","1","0","ACROBAT","5","6","0","2595","ACROBAT","5","2018-06-29 15:45:28","336647"
"A173E26N947Q7A","cs_wg_full_v3_pilot2","31EUONYN2V48TH2CRS9HU6C6A7KOVU","10","0","PICKLE","15","6","0","1336","pickle","15","2018-06-29 15:45:29","336648"
"A3KRI94KVF7TIC","cs_wg_full_v3_pilot2","3HRMW88U16R40DGKBF6FH9XBLBSM0L","1","0","CHICKEN","1","6","1","3648","Chicken","1","2018-06-29 15:45:29","336649"
"A212P51360T72C","cs_wg_full_v3_pilot2","3XCC1ODXDLCJLMYBXLWBIEI342PRQC","3","0","SUNBURN","6","6","1","5645","sunburn","6","2018-06-29 15:45:29","336650"
"A30KKDFHZL9L4C","cs_wg_full_v3_pilot2","3AZHRG4CU4L3ER8A5X10LAO5LKC03K","2","0","ARCADE","5","6","1","3907","arcade","5","2018-06-29 15:45:30","336651"
"A1O4W7F05T6HY0","cs_wg_full_v3_pilot2","3N4BPTXIO8TPQBSXOA7JR3TECV1KUH","1","0","COMPANY","7","6","0","4515","company","7","2018-06-29 15:45:32","336652"
"ACWYF9Z50PCA9","cs_wg_full_v3_pilot2","3ZSY5X72NXCG0ALVI847T9N3P17OR1","9","0","PUMPKIN","1","6","1","2126","PUMPKIN","1","2018-06-29 15:45:33","336653"
"A119I25CPLHE7X","cs_wg_full_v3_pilot2","3MAOD8E57QBIFL7VQSAM329M08NXNR","2","0","BAMBOO","7","6","0","1662","Bamboo","6","2018-06-29 15:45:33","336654"
"AAICZ4OJOL83Y","cs_wg_full_v3_pilot2","33JKGHPFYCV7L98RCL8DSLTOT43MNW","2","0","MONKEY","1","6","0","6865","MONKEY","1","2018-06-29 15:45:33","336655"
"AASWAMYQ9PXMQ","cs_wg_full_v3_pilot2","378XPAWRUCEE57OBI25GEM27DOKIAS","4","0","COMPANY","6","6","0","2019","company","6","2018-06-29 15:45:33","336656"
"A26XF8O4XRL8JA","cs_wg_full_v3_pilot2","3TXMY6UCAEPFFK9SFO6GTJJH41MCQR","7","0","CANCER","6","6","1","2934","cancer","6","2018-06-29 15:45:34","336657"
"A3BMEBBDIHI6DU","cs_wg_full_v3_pilot2","3VHP9MDGRNLIOVJJ18VMHKF3XZDCFX","3","0","SUNBURN","6","6","1","5055","SUNBURN","6","2018-06-29 15:45:35","336658"
"A1DJ3IDWF923Y7","cs_wg_full_v3_pilot2","3HQUKB7LNFFTJZL5IQXNVWOWQ6VHH9","5","0","BANQUET","6","6","0","5345","banquet","6","2018-06-29 15:45:36","336659"
"A24ZAX5O63WVNI","cs_wg_full_v3_pilot2","3EJJQNKU9R668TZ8EV9H90Q2DFTRHG","5","0","WIZARD","5","6","0","2706","WIZARD","5","2018-06-29 15:45:39","336660"
"A1W48HYA27W9PA","cs_wg_full_v3_pilot2","3UWN2HHPUY6AJ4LWWI4Z4USULTLSNE","5","0","BAMBOO","5","6","1","2654","bamboo","5","2018-06-29 15:45:39","336661"
"A30KKDFHZL9L4C","cs_wg_full_v3_pilot2","3AZHRG4CU4L3ER8A5X10LAO5LKC03K","3","0","TOMATO","7","6","0","1793","tomato","7","2018-06-29 15:45:40","336662"
"A173E26N947Q7A","cs_wg_full_v3_pilot2","31EUONYN2V48TH2CRS9HU6C6A7KOVU","11","0","BICYCLE","7","6","1","2848","bicycle","7","2018-06-29 15:45:41","336663"
"A212P51360T72C","cs_wg_full_v3_pilot2","3XCC1ODXDLCJLMYBXLWBIEI342PRQC","4","0","WIZARD","6","6","0","2159","wizard","6","2018-06-29 15:45:41","336664"
"A247EMWK0LVQGK","cs_wg_full_v3_pilot2","32XVDSJFPZYBWNJYQ2AT0XQQI9CM25","5","0","PUMPKIN","15","6","1","3901","pumpkin","15","2018-06-29 15:45:42","336665"
"ACWYF9Z50PCA9","cs_wg_full_v3_pilot2","3ZSY5X72NXCG0ALVI847T9N3P17OR1","10","0","PUMPKIN","1","6","1","1977","PUMPKIN","1","2018-06-29 15:45:42","336666"
"ADHUJSKTI0UQA","cs_wg_full_v3_pilot2","33M4IA01QG23UJZNJZR3CMEW15CRX9","2","0","COWBOY","7","6","0","1861","COWBOY","2","2018-06-29 15:45:42","336667"
"A3HKQND0VGDM87","cs_wg_full_v3_pilot2","3U0SRXB7CD6YIPLJHT4UEKNYZR2RNP","8","0","PICKLE","15","6","0","2240","pickle","15","2018-06-29 15:45:44","336668"
"A119I25CPLHE7X","cs_wg_full_v3_pilot2","3MAOD8E57QBIFL7VQSAM329M08NXNR","3","0","AVOCADO","5","6","0","3534","Avocado","6","2018-06-29 15:45:46","336669"
"AASWAMYQ9PXMQ","cs_wg_full_v3_pilot2","378XPAWRUCEE57OBI25GEM27DOKIAS","5","0","PICKLE","15","6","0","1525","pickle","15","2018-06-29 15:45:47","336670"
"A1DJ3IDWF923Y7","cs_wg_full_v3_pilot2","3HQUKB7LNFFTJZL5IQXNVWOWQ6VHH9","6","0","GARBAGE","6","6","0","2461","garbage","6","2018-06-29 15:45:48","336671"
"A26XF8O4XRL8JA","cs_wg_full_v3_pilot2","3TXMY6UCAEPFFK9SFO6GTJJH41MCQR","8","0","COSTUME","6","6","1","2716","costune","6","2018-06-29 15:45:48","336672"
"A3KRI94KVF7TIC","cs_wg_full_v3_pilot2","3HRMW88U16R40DGKBF6FH9XBLBSM0L","2","0","PUMPKIN","15","6","0","3738","Pumpkin","15","2018-06-29 15:45:48","336673"
"A30KKDFHZL9L4C","cs_wg_full_v3_pilot2","3AZHRG4CU4L3ER8A5X10LAO5LKC03K","4","0","COWBOY","7","6","0","2026","cowboy","7","2018-06-29 15:45:50","336674"
"A3BMEBBDIHI6DU","cs_wg_full_v3_pilot2","3VHP9MDGRNLIOVJJ18VMHKF3XZDCFX","4","0","BAMBOO","6","6","1","2828","BAMBOO","6","2018-06-29 15:45:51","336675"
"ACWYF9Z50PCA9","cs_wg_full_v3_pilot2","3ZSY5X72NXCG0ALVI847T9N3P17OR1","11","0","PUMPKIN","1","6","1","1489","PUMPKIN","1","2018-06-29 15:45:52","336676"
"A212P51360T72C","cs_wg_full_v3_pilot2","3XCC1ODXDLCJLMYBXLWBIEI342PRQC","5","0","SMOKER","1","6","1","2023","smoker","1","2018-06-29 15:45:52","336677"
"ADHUJSKTI0UQA","cs_wg_full_v3_pilot2","33M4IA01QG23UJZNJZR3CMEW15CRX9","3","0","GARBAGE","7","6","0","3032","GARBAGE","7","2018-06-29 15:45:53","336678"
"A1O4W7F05T6HY0","cs_wg_full_v3_pilot2","3N4BPTXIO8TPQBSXOA7JR3TECV1KUH","2","0","GRENADE","5","6","0","5300","grenade","5","2018-06-29 15:45:53","336679"
"A247EMWK0LVQGK","cs_wg_full_v3_pilot2","32XVDSJFPZYBWNJYQ2AT0XQQI9CM25","6","0","COSTUME","6","6","1","3104","costume","6","2018-06-29 15:45:54","336680"
"A173E26N947Q7A","cs_wg_full_v3_pilot2","31EUONYN2V48TH2CRS9HU6C6A7KOVU","12","0","PICKLE","15","6","0","1774","pickle","15","2018-06-29 15:45:54","336681"
"A24ZAX5O63WVNI","cs_wg_full_v3_pilot2","3EJJQNKU9R668TZ8EV9H90Q2DFTRHG","6","0","TOMATO","5","6","0","6009","Tomato","5","2018-06-29 15:45:56","336682"
"A1W48HYA27W9PA","cs_wg_full_v3_pilot2","3UWN2HHPUY6AJ4LWWI4Z4USULTLSNE","6","0","PELICAN","7","6","1","3669","pelican","7","2018-06-29 15:45:56","336683"
"AAICZ4OJOL83Y","cs_wg_full_v3_pilot2","33JKGHPFYCV7L98RCL8DSLTOT43MNW","3","0","BASKET","15","6","1","6001","BASKET","15","2018-06-29 15:45:57","336684"
"A3HKQND0VGDM87","cs_wg_full_v3_pilot2","3U0SRXB7CD6YIPLJHT4UEKNYZR2RNP","9","0","BANQUET","6","6","0","2863","banquet","6","2018-06-29 15:45:59","336685"
"AASWAMYQ9PXMQ","cs_wg_full_v3_pilot2","378XPAWRUCEE57OBI25GEM27DOKIAS","6","0","TURKEY","1","6","0","1709","turkey","1","2018-06-29 15:45:59","336686"
"A30KKDFHZL9L4C","cs_wg_full_v3_pilot2","3AZHRG4CU4L3ER8A5X10LAO5LKC03K","5","0","ARCADE","5","6","1","2537","arcade","5","2018-06-29 15:46:00","336687"
"ACWYF9Z50PCA9","cs_wg_full_v3_pilot2","3ZSY5X72NXCG0ALVI847T9N3P17OR1","12","0","PUMPKIN","1","6","1","1419","PUMPKIN","1","2018-06-29 15:46:01","336688"
"A26XF8O4XRL8JA","cs_wg_full_v3_pilot2","3TXMY6UCAEPFFK9SFO6GTJJH41MCQR","9","0","MONKEY","1","6","1","2643","monkey","1","2018-06-29 15:46:02","336689"
"A212P51360T72C","cs_wg_full_v3_pilot2","3XCC1ODXDLCJLMYBXLWBIEI342PRQC","6","0","MONKEY","15","6","0","1662","monkey","15","2018-06-29 15:46:02","336690"
"A1DJ3IDWF923Y7","cs_wg_full_v3_pilot2","3HQUKB7LNFFTJZL5IQXNVWOWQ6VHH9","7","0","BUCKET","1","6","1","5212","bucket","1","2018-06-29 15:46:03","336691"
"ADHUJSKTI0UQA","cs_wg_full_v3_pilot2","33M4IA01QG23UJZNJZR3CMEW15CRX9","4","0","ACROBAT","5","6","0","2485","ACROBAT","5","2018-06-29 15:46:03","336692"
"A119I25CPLHE7X","cs_wg_full_v3_pilot2","3MAOD8E57QBIFL7VQSAM329M08NXNR","4","0","TOMATO","7","6","0","2153","Tomato","7","2018-06-29 15:46:05","336693"
"A247EMWK0LVQGK","cs_wg_full_v3_pilot2","32XVDSJFPZYBWNJYQ2AT0XQQI9CM25","7","0","PUMPKIN","15","6","0","3115","pumpkin","15","2018-06-29 15:46:06","336694"
"A173E26N947Q7A","cs_wg_full_v3_pilot2","31EUONYN2V48TH2CRS9HU6C6A7KOVU","13","0","GARBAGE","5","6","1","4192","garbage","5","2018-06-29 15:46:07","336695"
"A3KRI94KVF7TIC","cs_wg_full_v3_pilot2","3HRMW88U16R40DGKBF6FH9XBLBSM0L","3","0","PELICAN","6","6","0","5517","Pelican","6","2018-06-29 15:46:07","336696"
"A1O4W7F05T6HY0","cs_wg_full_v3_pilot2","3N4BPTXIO8TPQBSXOA7JR3TECV1KUH","3","0","CANCER","7","6","1","4343","cancer","7","2018-06-29 15:46:10","336697"
"ACWYF9Z50PCA9","cs_wg_full_v3_pilot2","3ZSY5X72NXCG0ALVI847T9N3P17OR1","13","0","TURKEY","15","6","0","1975","TURKEY","15","2018-06-29 15:46:10","336698"
"A24ZAX5O63WVNI","cs_wg_full_v3_pilot2","3EJJQNKU9R668TZ8EV9H90Q2DFTRHG","7","0","JACKET","15","6","0","2354","JACKET","15","2018-06-29 15:46:11","336699"
"A30KKDFHZL9L4C","cs_wg_full_v3_pilot2","3AZHRG4CU4L3ER8A5X10LAO5LKC03K","6","0","ARCADE","5","6","1","1734","arcade","5","2018-06-29 15:46:11","336700"
"A212P51360T72C","cs_wg_full_v3_pilot2","3XCC1ODXDLCJLMYBXLWBIEI342PRQC","7","0","MONKEY","15","6","0","1462","monkey","15","2018-06-29 15:46:12","336701"
"A3HKQND0VGDM87","cs_wg_full_v3_pilot2","3U0SRXB7CD6YIPLJHT4UEKNYZR2RNP","10","0","BASKET","1","6","1","3339","basket","1","2018-06-29 15:46:13","336702"
"ADHUJSKTI0UQA","cs_wg_full_v3_pilot2","33M4IA01QG23UJZNJZR3CMEW15CRX9","5","0","PICKLE","1","6","0","3392","PICKLE","1","2018-06-29 15:46:13","336703"
"AAICZ4OJOL83Y","cs_wg_full_v3_pilot2","33JKGHPFYCV7L98RCL8DSLTOT43MNW","4","0","COWBOY","6","6","1","3830","COWBOY","6","2018-06-29 15:46:14","336704"
"A3BMEBBDIHI6DU","cs_wg_full_v3_pilot2","3VHP9MDGRNLIOVJJ18VMHKF3XZDCFX","5","0","CRICKET","1","6","0","6560","CRICKET","1","2018-06-29 15:46:15","336705"
"A1DJ3IDWF923Y7","cs_wg_full_v3_pilot2","3HQUKB7LNFFTJZL5IQXNVWOWQ6VHH9","8","0","PUMPKIN","15","6","0","2066","pumpkin","15","2018-06-29 15:46:16","336706"
"A26XF8O4XRL8JA","cs_wg_full_v3_pilot2","3TXMY6UCAEPFFK9SFO6GTJJH41MCQR","10","0","TURKEY","15","6","0","2332","turkey","15","2018-06-29 15:46:16","336707"
"AASWAMYQ9PXMQ","cs_wg_full_v3_pilot2","378XPAWRUCEE57OBI25GEM27DOKIAS","7","0","COMPANY","6","6","0","2538","company","6","2018-06-29 15:46:17","336708"
"A173E26N947Q7A","cs_wg_full_v3_pilot2","31EUONYN2V48TH2CRS9HU6C6A7KOVU","14","0","BANANA","7","6","0","2492","banana","7","2018-06-29 15:46:18","336709"
"A247EMWK0LVQGK","cs_wg_full_v3_pilot2","32XVDSJFPZYBWNJYQ2AT0XQQI9CM25","8","0","PEBBLE","6","6","1","3999","pebble","6","2018-06-29 15:46:19","336710"
"A119I25CPLHE7X","cs_wg_full_v3_pilot2","3MAOD8E57QBIFL7VQSAM329M08NXNR","5","0","ISLAND","5","6","0","4060","Island","5","2018-06-29 15:46:20","336711"
"A30KKDFHZL9L4C","cs_wg_full_v3_pilot2","3AZHRG4CU4L3ER8A5X10LAO5LKC03K","7","0","PEBBLE","5","6","0","2735","pebble","5","2018-06-29 15:46:22","336712"
"ACWYF9Z50PCA9","cs_wg_full_v3_pilot2","3ZSY5X72NXCG0ALVI847T9N3P17OR1","14","0","TURKEY","15","6","0","2476","TURKEY","15","2018-06-29 15:46:22","336713"
"A212P51360T72C","cs_wg_full_v3_pilot2","3XCC1ODXDLCJLMYBXLWBIEI342PRQC","8","0","WIZARD","6","6","1","2156","wizard","6","2018-06-29 15:46:22","336714"
"ADHUJSKTI0UQA","cs_wg_full_v3_pilot2","33M4IA01QG23UJZNJZR3CMEW15CRX9","6","0","PELICAN","6","6","0","2564","PELICAN","6","2018-06-29 15:46:24","336715"
"A3HKQND0VGDM87","cs_wg_full_v3_pilot2","3U0SRXB7CD6YIPLJHT4UEKNYZR2RNP","11","0","BASKET","1","6","1","2135","basket","1","2018-06-29 15:46:24","336716"
"A24ZAX5O63WVNI","cs_wg_full_v3_pilot2","3EJJQNKU9R668TZ8EV9H90Q2DFTRHG","8","0","AIRBAG","7","6","0","2593","AIRBAG","7","2018-06-29 15:46:27","336717"
"A173E26N947Q7A","cs_wg_full_v3_pilot2","31EUONYN2V48TH2CRS9HU6C6A7KOVU","15","0","BAMBOO","5","6","1","1728","bamboo","5","2018-06-29 15:46:28","336718"
"A1DJ3IDWF923Y7","cs_wg_full_v3_pilot2","3HQUKB7LNFFTJZL5IQXNVWOWQ6VHH9","9","0","PUMPKIN","15","6","0","1515","pumpkin","15","2018-06-29 15:46:28","336719"
"A3KRI94KVF7TIC","cs_wg_full_v3_pilot2","3HRMW88U16R40DGKBF6FH9XBLBSM0L","4","0","PENGUIN","6","6","0","2653","Penguin","6","2018-06-29 15:46:28","336720"
"AAICZ4OJOL83Y","cs_wg_full_v3_pilot2","33JKGHPFYCV7L98RCL8DSLTOT43MNW","5","0","MONKEY","1","6","1","2537","MONKEY","1","2018-06-29 15:46:29","336721"
"A26XF8O4XRL8JA","cs_wg_full_v3_pilot2","3TXMY6UCAEPFFK9SFO6GTJJH41MCQR","11","0","MONKEY","1","6","1","2441","monkey","1","2018-06-29 15:46:29","336722"
"AASWAMYQ9PXMQ","cs_wg_full_v3_pilot2","378XPAWRUCEE57OBI25GEM27DOKIAS","8","0","COMPANY","6","6","0","2935","company","6","2018-06-29 15:46:30","336723"
"A247EMWK0LVQGK","cs_wg_full_v3_pilot2","32XVDSJFPZYBWNJYQ2AT0XQQI9CM25","9","0","PEBBLE","6","6","1","2235","pebble","6","2018-06-29 15:46:30","336724"
"A30KKDFHZL9L4C","cs_wg_full_v3_pilot2","3AZHRG4CU4L3ER8A5X10LAO5LKC03K","8","0","RABBIT","5","6","0","1568","rabbit","5","2018-06-29 15:46:30","336725"
"ACWYF9Z50PCA9","cs_wg_full_v3_pilot2","3ZSY5X72NXCG0ALVI847T9N3P17OR1","15","0","PICTURE","6","6","1","3435","PICTURE","6","2018-06-29 15:46:31","336726"
"A1O4W7F05T6HY0","cs_wg_full_v3_pilot2","3N4BPTXIO8TPQBSXOA7JR3TECV1KUH","4","0","SQUARE","5","6","1","6756","square","5","2018-06-29 15:46:31","336727"
"ADHUJSKTI0UQA","cs_wg_full_v3_pilot2","33M4IA01QG23UJZNJZR3CMEW15CRX9","7","0","ACROBAT","5","6","0","2558","ACROBAT","6","2018-06-29 15:46:32","336728"
"A212P51360T72C","cs_wg_full_v3_pilot2","3XCC1ODXDLCJLMYBXLWBIEI342PRQC","9","0","MONKEY","15","6","1","2197","monkey","15","2018-06-29 15:46:33","336729"
"A119I25CPLHE7X","cs_wg_full_v3_pilot2","3MAOD8E57QBIFL7VQSAM329M08NXNR","6","0","ISLAND","5","6","1","3593","Island","5","2018-06-29 15:46:35","336730"
"A173E26N947Q7A","cs_wg_full_v3_pilot2","31EUONYN2V48TH2CRS9HU6C6A7KOVU","16","0","RABBIT","7","6","0","1814","rabbit","7","2018-06-29 15:46:38","336731"
"A3BMEBBDIHI6DU","cs_wg_full_v3_pilot2","3VHP9MDGRNLIOVJJ18VMHKF3XZDCFX","6","0","JACKET","15","6","1","5567","JACKET","15","2018-06-29 15:46:38","336732"
"A3HKQND0VGDM87","cs_wg_full_v3_pilot2","3U0SRXB7CD6YIPLJHT4UEKNYZR2RNP","12","0","ACROBAT","6","6","0","4955","acrobat","6","2018-06-29 15:46:39","336733"
"A1DJ3IDWF923Y7","cs_wg_full_v3_pilot2","3HQUKB7LNFFTJZL5IQXNVWOWQ6VHH9","10","0","BUCKET","1","6","1","2024","bucket","1","2018-06-29 15:46:40","336734"
"A1W48HYA27W9PA","cs_wg_full_v3_pilot2","3UWN2HHPUY6AJ4LWWI4Z4USULTLSNE","7","0","SQUARE","5","6","1","2296","square ","5","2018-06-29 15:46:40","336735"
"A30KKDFHZL9L4C","cs_wg_full_v3_pilot2","3AZHRG4CU4L3ER8A5X10LAO5LKC03K","9","0","PICKLE","1","6","0","1286","pickle","1","2018-06-29 15:46:40","336736"
"A26XF8O4XRL8JA","cs_wg_full_v3_pilot2","3TXMY6UCAEPFFK9SFO6GTJJH41MCQR","12","0","MONKEY","1","6","1","1645","monkey","1","2018-06-29 15:46:40","336737"
"ACWYF9Z50PCA9","cs_wg_full_v3_pilot2","3ZSY5X72NXCG0ALVI847T9N3P17OR1","16","0","PALACE","6","6","0","2199","PALACE","6","2018-06-29 15:46:40","336738"
"A1ZGQC0J00M69W","cs_wg_full_v3_pilot2","3VBEN272MK049C4A9ER4EAJXKHZSG6","0","0","SPATULA","6","6","1","4376","Spatula","6","2018-06-29 15:46:41","336739"
"ADHUJSKTI0UQA","cs_wg_full_v3_pilot2","33M4IA01QG23UJZNJZR3CMEW15CRX9","8","0","COWBOY","7","6","0","1791","COWBOY","7","2018-06-29 15:46:42","336740"
"A3KRI94KVF7TIC","cs_wg_full_v3_pilot2","3HRMW88U16R40DGKBF6FH9XBLBSM0L","5","0","CHICKEN","1","6","1","4191","Chicken","1","2018-06-29 15:46:42","336741"
"A247EMWK0LVQGK","cs_wg_full_v3_pilot2","32XVDSJFPZYBWNJYQ2AT0XQQI9CM25","10","0","CRICKET","1","6","1","3744","cricket","1","2018-06-29 15:46:43","336742"
"A212P51360T72C","cs_wg_full_v3_pilot2","3XCC1ODXDLCJLMYBXLWBIEI342PRQC","10","0","MONKEY","15","6","0","1214","monkey","15","2018-06-29 15:46:44","336743"
"A24ZAX5O63WVNI","cs_wg_full_v3_pilot2","3EJJQNKU9R668TZ8EV9H90Q2DFTRHG","9","0","WIZARD","5","6","1","4714","WIZARD","5","2018-06-29 15:46:44","336744"
"AAICZ4OJOL83Y","cs_wg_full_v3_pilot2","33JKGHPFYCV7L98RCL8DSLTOT43MNW","6","0","BASKET","15","6","0","2919","BASKET","15","2018-06-29 15:46:46","336745"
"AASWAMYQ9PXMQ","cs_wg_full_v3_pilot2","378XPAWRUCEE57OBI25GEM27DOKIAS","9","0","SUNBURN","6","6","0","2538","sunburn","6","2018-06-29 15:46:46","336746"
"A30KKDFHZL9L4C","cs_wg_full_v3_pilot2","3AZHRG4CU4L3ER8A5X10LAO5LKC03K","10","0","VOLCANO","5","6","1","1593","volcano","5","2018-06-29 15:46:49","336747"
"A119I25CPLHE7X","cs_wg_full_v3_pilot2","3MAOD8E57QBIFL7VQSAM329M08NXNR","7","0","BAMBOO","7","6","0","3184","Bamboo","7","2018-06-29 15:46:49","336748"
"ADHUJSKTI0UQA","cs_wg_full_v3_pilot2","33M4IA01QG23UJZNJZR3CMEW15CRX9","9","0","PELICAN","6","6","0","1562","PELICAN","6","2018-06-29 15:46:50","336749"
"ACWYF9Z50PCA9","cs_wg_full_v3_pilot2","3ZSY5X72NXCG0ALVI847T9N3P17OR1","17","0","PICTURE","6","6","1","1976","PICTURE","6","2018-06-29 15:46:50","336750"
"A1DJ3IDWF923Y7","cs_wg_full_v3_pilot2","3HQUKB7LNFFTJZL5IQXNVWOWQ6VHH9","11","0","BUCKET","1","6","1","1656","bucket","1","2018-06-29 15:46:51","336751"
"A173E26N947Q7A","cs_wg_full_v3_pilot2","31EUONYN2V48TH2CRS9HU6C6A7KOVU","17","0","BICYCLE","7","6","0","4577","bicycle","7","2018-06-29 15:46:52","336752"
"A3HKQND0VGDM87","cs_wg_full_v3_pilot2","3U0SRXB7CD6YIPLJHT4UEKNYZR2RNP","13","0","BANQUET","6","6","1","2832","banquet","6","2018-06-29 15:46:53","336753"
"A247EMWK0LVQGK","cs_wg_full_v3_pilot2","32XVDSJFPZYBWNJYQ2AT0XQQI9CM25","11","0","PUMPKIN","15","6","0","1994","pumpkin","15","2018-06-29 15:46:53","336754"
"A212P51360T72C","cs_wg_full_v3_pilot2","3XCC1ODXDLCJLMYBXLWBIEI342PRQC","11","0","SUNBURN","6","6","1","3078","sunburn","6","2018-06-29 15:46:55","336755"
"A26XF8O4XRL8JA","cs_wg_full_v3_pilot2","3TXMY6UCAEPFFK9SFO6GTJJH41MCQR","13","0","COSTUME","6","6","1","2015","costume","6","2018-06-29 15:46:56","336756"
"A3BMEBBDIHI6DU","cs_wg_full_v3_pilot2","3VHP9MDGRNLIOVJJ18VMHKF3XZDCFX","7","0","BAMBOO","6","6","1","5873","BAMBOO","6","2018-06-29 15:46:57","336757"
"A30KKDFHZL9L4C","cs_wg_full_v3_pilot2","3AZHRG4CU4L3ER8A5X10LAO5LKC03K","11","0","PUMPKIN","15","6","1","1507","pumpkin","15","2018-06-29 15:46:58","336758"
"A24ZAX5O63WVNI","cs_wg_full_v3_pilot2","3EJJQNKU9R668TZ8EV9H90Q2DFTRHG","10","0","COMPANY","5","6","0","2093","Company","5","2018-06-29 15:47:00","336759"
"ACWYF9Z50PCA9","cs_wg_full_v3_pilot2","3ZSY5X72NXCG0ALVI847T9N3P17OR1","18","0","TURKEY","15","6","0","3090","TURKEY","15","2018-06-29 15:47:00","336760"
"ASCL5Y4G5C7XY","cs_wg_full_v3_pilot2","3SNLUL3WO4O0AHAF9AJK636T1V6ULU","0","0","BLANKET","1","6","0","5039","Blanket","1","2018-06-29 15:47:01","336761"
"ADHUJSKTI0UQA","cs_wg_full_v3_pilot2","33M4IA01QG23UJZNJZR3CMEW15CRX9","10","0","GARBAGE","7","6","0","1581","GARBAGE","6","2018-06-29 15:47:02","336762"
"AAICZ4OJOL83Y","cs_wg_full_v3_pilot2","33JKGHPFYCV7L98RCL8DSLTOT43MNW","7","0","BASKET","15","6","0","2659","BASKET","15","2018-06-29 15:47:02","336763"
"A3KRI94KVF7TIC","cs_wg_full_v3_pilot2","3HRMW88U16R40DGKBF6FH9XBLBSM0L","6","0","PENGUIN","6","6","0","5904","Penguin","6","2018-06-29 15:47:02","336764"
"A173E26N947Q7A","cs_wg_full_v3_pilot2","31EUONYN2V48TH2CRS9HU6C6A7KOVU","18","0","BAMBOO","5","6","1","1479","bamboo","5","2018-06-29 15:47:02","336765"
"A119I25CPLHE7X","cs_wg_full_v3_pilot2","3MAOD8E57QBIFL7VQSAM329M08NXNR","8","0","CRICKET","1","6","0","3849","Cricket","1","2018-06-29 15:47:03","336766"
"A1W48HYA27W9PA","cs_wg_full_v3_pilot2","3UWN2HHPUY6AJ4LWWI4Z4USULTLSNE","8","0","BUCKET","1","6","1","10000","bucket","1","2018-06-29 15:47:04","336767"
"AASWAMYQ9PXMQ","cs_wg_full_v3_pilot2","378XPAWRUCEE57OBI25GEM27DOKIAS","10","0","TURKEY","1","6","1","5348","turkey","1","2018-06-29 15:47:04","336768"
"A247EMWK0LVQGK","cs_wg_full_v3_pilot2","32XVDSJFPZYBWNJYQ2AT0XQQI9CM25","12","0","PUMPKIN","15","6","0","2245","pumpkin","15","2018-06-29 15:47:04","336769"
"A1DJ3IDWF923Y7","cs_wg_full_v3_pilot2","3HQUKB7LNFFTJZL5IQXNVWOWQ6VHH9","12","0","BANQUET","6","6","0","2393","banquet","6","2018-06-29 15:47:05","336770"
"A1ZGQC0J00M69W","cs_wg_full_v3_pilot2","3VBEN272MK049C4A9ER4EAJXKHZSG6","1","0","VOLCANO","5","6","1","4363","Volcano","5","2018-06-29 15:47:05","336771"
"A3HKQND0VGDM87","cs_wg_full_v3_pilot2","3U0SRXB7CD6YIPLJHT4UEKNYZR2RNP","14","0","PICKLE","15","6","0","1815","pickle","15","2018-06-29 15:47:06","336772"
"A212P51360T72C","cs_wg_full_v3_pilot2","3XCC1ODXDLCJLMYBXLWBIEI342PRQC","12","0","SUNBURN","6","6","1","1549","sunburn","6","2018-06-29 15:47:06","336773"
"A26XF8O4XRL8JA","cs_wg_full_v3_pilot2","3TXMY6UCAEPFFK9SFO6GTJJH41MCQR","14","0","CANCER","6","6","1","1584","cancer","6","2018-06-29 15:47:07","336774"
"A30KKDFHZL9L4C","cs_wg_full_v3_pilot2","3AZHRG4CU4L3ER8A5X10LAO5LKC03K","12","0","COWBOY","7","6","0","2073","cowboy","7","2018-06-29 15:47:09","336775"
"ACWYF9Z50PCA9","cs_wg_full_v3_pilot2","3ZSY5X72NXCG0ALVI847T9N3P17OR1","19","0","PICTURE","6","6","0","1369","PICTURE","6","2018-06-29 15:47:09","336776"
"A173E26N947Q7A","cs_wg_full_v3_pilot2","31EUONYN2V48TH2CRS9HU6C6A7KOVU","19","0","PALACE","7","6","0","1707","palace","7","2018-06-29 15:47:12","336777"
"A3KRI94KVF7TIC","cs_wg_full_v3_pilot2","3HRMW88U16R40DGKBF6FH9XBLBSM0L","7","0","PELICAN","6","6","0","2390","Pelican","6","2018-06-29 15:47:14","336778"
"A1W48HYA27W9PA","cs_wg_full_v3_pilot2","3UWN2HHPUY6AJ4LWWI4Z4USULTLSNE","9","0","SQUARE","5","6","1","2907","square","5","2018-06-29 15:47:15","336779"
"A1DJ3IDWF923Y7","cs_wg_full_v3_pilot2","3HQUKB7LNFFTJZL5IQXNVWOWQ6VHH9","13","0","BUCKET","1","6","1","2046","bucket","1","2018-06-29 15:47:15","336780"
"A247EMWK0LVQGK","cs_wg_full_v3_pilot2","32XVDSJFPZYBWNJYQ2AT0XQQI9CM25","13","0","CRICKET","1","6","1","2841","cricket","1","2018-06-29 15:47:16","336781"
"AAICZ4OJOL83Y","cs_wg_full_v3_pilot2","33JKGHPFYCV7L98RCL8DSLTOT43MNW","8","0","BASKET","15","6","1","2130","BASKET","15","2018-06-29 15:47:17","336782"
"AASWAMYQ9PXMQ","cs_wg_full_v3_pilot2","378XPAWRUCEE57OBI25GEM27DOKIAS","11","0","TURKEY","1","6","1","2035","turkey","1","2018-06-29 15:47:17","336783"
"A3BMEBBDIHI6DU","cs_wg_full_v3_pilot2","3VHP9MDGRNLIOVJJ18VMHKF3XZDCFX","8","0","JACKET","15","6","1","6541","JACKET","15","2018-06-29 15:47:18","336784"
"ACWYF9Z50PCA9","cs_wg_full_v3_pilot2","3ZSY5X72NXCG0ALVI847T9N3P17OR1","20","0","PICTURE","6","6","0","1289","PICTURE","6","2018-06-29 15:47:18","336785"
"A24ZAX5O63WVNI","cs_wg_full_v3_pilot2","3EJJQNKU9R668TZ8EV9H90Q2DFTRHG","11","0","BICYCLE","7","6","0","3313","BICYCLE","7","2018-06-29 15:47:19","336786"
"A26XF8O4XRL8JA","cs_wg_full_v3_pilot2","3TXMY6UCAEPFFK9SFO6GTJJH41MCQR","15","0","TURKEY","15","6","0","1872","turkey","15","2018-06-29 15:47:20","336787"
"A212P51360T72C","cs_wg_full_v3_pilot2","3XCC1ODXDLCJLMYBXLWBIEI342PRQC","13","0","SMOKER","1","6","1","2132","smoker","1
1","2018-06-29 15:47:20","336788"
"A3HKQND0VGDM87","cs_wg_full_v3_pilot2","3U0SRXB7CD6YIPLJHT4UEKNYZR2RNP","15","0","BASKET","1","6","1","4644","basket","1","2018-06-29 15:47:20","336789"
"A30KKDFHZL9L4C","cs_wg_full_v3_pilot2","3AZHRG4CU4L3ER8A5X10LAO5LKC03K","13","0","BICYCLE","7","6","1","1917","bicycle","7","2018-06-29 15:47:21","336790"
"A119I25CPLHE7X","cs_wg_full_v3_pilot2","3MAOD8E57QBIFL7VQSAM329M08NXNR","9","0","COMPANY","5","6","0","2883","Company","5","2018-06-29 15:47:21","336791"
"ASCL5Y4G5C7XY","cs_wg_full_v3_pilot2","3SNLUL3WO4O0AHAF9AJK636T1V6ULU","1","0","BUCKET","15","6","0","6069","Bucket ","15","2018-06-29 15:47:22","336792"
"ADHUJSKTI0UQA","cs_wg_full_v3_pilot2","33M4IA01QG23UJZNJZR3CMEW15CRX9","11","0","AVOCADO","5","6","0","17198","AVOCADO","6","2018-06-29 15:47:26","336793"
"A173E26N947Q7A","cs_wg_full_v3_pilot2","31EUONYN2V48TH2CRS9HU6C6A7KOVU","20","0","SPATULA","6","6","1","2040","spatula","6","2018-06-29 15:47:26","336794"
"A1ZGQC0J00M69W","cs_wg_full_v3_pilot2","3VBEN272MK049C4A9ER4EAJXKHZSG6","2","0","BANANA","7","6","1","2167","Banana","7","2018-06-29 15:47:26","336795"
"A247EMWK0LVQGK","cs_wg_full_v3_pilot2","32XVDSJFPZYBWNJYQ2AT0XQQI9CM25","14","0","COSTUME","6","6","1","2881","costume","6","2018-06-29 15:47:27","336796"
"ACWYF9Z50PCA9","cs_wg_full_v3_pilot2","3ZSY5X72NXCG0ALVI847T9N3P17OR1","21","0","PICTURE","6","6","0","1225","PICTURE","6","2018-06-29 15:47:27","336797"
"A1DJ3IDWF923Y7","cs_wg_full_v3_pilot2","3HQUKB7LNFFTJZL5IQXNVWOWQ6VHH9","14","0","BANQUET","6","6","0","1802","banquet","6","2018-06-29 15:47:28","336798"
"A3KRI94KVF7TIC","cs_wg_full_v3_pilot2","3HRMW88U16R40DGKBF6FH9XBLBSM0L","8","0","PENGUIN","6","6","0","3185","Penguin","6","2018-06-29 15:47:29","336799"
"AASWAMYQ9PXMQ","cs_wg_full_v3_pilot2","378XPAWRUCEE57OBI25GEM27DOKIAS","12","0","COMPANY","6","6","0","2422","company","6","2018-06-29 15:47:30","336800"
"A212P51360T72C","cs_wg_full_v3_pilot2","3XCC1ODXDLCJLMYBXLWBIEI342PRQC","14","0","WIZARD","6","6","1","2110","wizard","6","2018-06-29 15:47:30","336801"
"A30KKDFHZL9L4C","cs_wg_full_v3_pilot2","3AZHRG4CU4L3ER8A5X10LAO5LKC03K","14","0","PUMPKIN","15","6","0","2180","pumpkin","15","2018-06-29 15:47:31","336802"
"A26XF8O4XRL8JA","cs_wg_full_v3_pilot2","3TXMY6UCAEPFFK9SFO6GTJJH41MCQR","16","0","CANCER","6","6","1","1730","cancer","6","2018-06-29 15:47:31","336803"
"AAICZ4OJOL83Y","cs_wg_full_v3_pilot2","33JKGHPFYCV7L98RCL8DSLTOT43MNW","9","0","COWBOY","6","6","1","2198","COWBOY","6","2018-06-29 15:47:32","336804"
"A3HKQND0VGDM87","cs_wg_full_v3_pilot2","3U0SRXB7CD6YIPLJHT4UEKNYZR2RNP","16","0","BASKET","1","6","1","2077","basket","1","2018-06-29 15:47:32","336805"
"A1W48HYA27W9PA","cs_wg_full_v3_pilot2","3UWN2HHPUY6AJ4LWWI4Z4USULTLSNE","10","0","AIRBAG","5","6","1","5972","airbag","5","2018-06-29 15:47:33","336806"
"A24ZAX5O63WVNI","cs_wg_full_v3_pilot2","3EJJQNKU9R668TZ8EV9H90Q2DFTRHG","12","0","GRENADE","7","6","0","2406","GRENADE","7","2018-06-29 15:47:35","336807"
"A119I25CPLHE7X","cs_wg_full_v3_pilot2","3MAOD8E57QBIFL7VQSAM329M08NXNR","10","0","COMPANY","5","6","1","3477","Company","5","2018-06-29 15:47:35","336808"
"A173E26N947Q7A","cs_wg_full_v3_pilot2","31EUONYN2V48TH2CRS9HU6C6A7KOVU","21","0","SQUARE","5","6","0","1302","square","5","2018-06-29 15:47:35","336809"
"ACWYF9Z50PCA9","cs_wg_full_v3_pilot2","3ZSY5X72NXCG0ALVI847T9N3P17OR1","22","0","PICTURE","6","6","0","1175","PICTURE","6","2018-06-29 15:47:35","336810"
"ADHUJSKTI0UQA","cs_wg_full_v3_pilot2","33M4IA01QG23UJZNJZR3CMEW15CRX9","12","0","BANANA","7","6","0","2554","BANANA","6","2018-06-29 15:47:36","336811"
"A247EMWK0LVQGK","cs_wg_full_v3_pilot2","32XVDSJFPZYBWNJYQ2AT0XQQI9CM25","15","0","COSTUME","6","6","1","1857","costume","6","2018-06-29 15:47:38","336812"
"A1DJ3IDWF923Y7","cs_wg_full_v3_pilot2","3HQUKB7LNFFTJZL5IQXNVWOWQ6VHH9","15","0","GARBAGE","6","6","0","2100","garbage","6","2018-06-29 15:47:40","336813"
"A30KKDFHZL9L4C","cs_wg_full_v3_pilot2","3AZHRG4CU4L3ER8A5X10LAO5LKC03K","15","0","VOLCANO","5","6","1","2469","volcano","5","2018-06-29 15:47:41","336814"
"A212P51360T72C","cs_wg_full_v3_pilot2","3XCC1ODXDLCJLMYBXLWBIEI342PRQC","15","0","SMOKER","1","6","1","1773","smoker","1","2018-06-29 15:47:41","336815"
"A34N69O6CMW2S1","cs_wg_full_v3_pilot2","3L2IS5HSFAJQYHD0LNZZJVAI6Q6UNW","0","0","GRENADE","5","6","0","10412","grenade","5","2018-06-29 15:47:42","336816"
"A26XF8O4XRL8JA","cs_wg_full_v3_pilot2","3TXMY6UCAEPFFK9SFO6GTJJH41MCQR","17","0","MONKEY","1","6","1","1567","monkey","1","2018-06-29 15:47:42","336817"
"A3KRI94KVF7TIC","cs_wg_full_v3_pilot2","3HRMW88U16R40DGKBF6FH9XBLBSM0L","9","0","PUMPKIN","15","6","0","3001","Pumpkin","15","2018-06-29 15:47:43","336818"
"ACWYF9Z50PCA9","cs_wg_full_v3_pilot2","3ZSY5X72NXCG0ALVI847T9N3P17OR1","23","0","TURKEY","15","6","0","1049","TURKEY","15","2018-06-29 15:47:43","336819"
"ASCL5Y4G5C7XY","cs_wg_full_v3_pilot2","3SNLUL3WO4O0AHAF9AJK636T1V6ULU","2","0","COSTUME","6","6","1","4041","costume","6","2018-06-29 15:47:43","336820"
"A3BMEBBDIHI6DU","cs_wg_full_v3_pilot2","3VHP9MDGRNLIOVJJ18VMHKF3XZDCFX","9","0","CRICKET","1","6","0","5787","CRICKET","1","2018-06-29 15:47:44","336821"
"AASWAMYQ9PXMQ","cs_wg_full_v3_pilot2","378XPAWRUCEE57OBI25GEM27DOKIAS","13","0","SUNBURN","6","6","0","2697","sunburn","6","2018-06-29 15:47:45","336822"
"A3HKQND0VGDM87","cs_wg_full_v3_pilot2","3U0SRXB7CD6YIPLJHT4UEKNYZR2RNP","17","0","PICKLE","15","6","0","2154","pickle","15","2018-06-29 15:47:46","336823"
"AAICZ4OJOL83Y","cs_wg_full_v3_pilot2","33JKGHPFYCV7L98RCL8DSLTOT43MNW","10","0","BASKET","15","6","1","2193","BASKET","15","2018-06-29 15:47:48","336824"
"A119I25CPLHE7X","cs_wg_full_v3_pilot2","3MAOD8E57QBIFL7VQSAM329M08NXNR","11","0","BLANKET","15","6","0","1998","Blanket","15","2018-06-29 15:47:48","336825"
"A1ZGQC0J00M69W","cs_wg_full_v3_pilot2","3VBEN272MK049C4A9ER4EAJXKHZSG6","3","0","PEBBLE","6","6","1","5193","pebble","6","2018-06-29 15:47:49","336826"
"A173E26N947Q7A","cs_wg_full_v3_pilot2","31EUONYN2V48TH2CRS9HU6C6A7KOVU","22","0","BICYCLE","7","6","0","4447","bicycle","7","2018-06-29 15:47:49","336827"
"A247EMWK0LVQGK","cs_wg_full_v3_pilot2","32XVDSJFPZYBWNJYQ2AT0XQQI9CM25","16","0","PUMPKIN","15","6","0","2073","pumpkin","15","2018-06-29 15:47:49","336828"
"A30KKDFHZL9L4C","cs_wg_full_v3_pilot2","3AZHRG4CU4L3ER8A5X10LAO5LKC03K","16","0","ARCADE","5","6","1","1554","arcade","5","2018-06-29 15:47:50","336829"
"A1DJ3IDWF923Y7","cs_wg_full_v3_pilot2","3HQUKB7LNFFTJZL5IQXNVWOWQ6VHH9","16","0","GARBAGE","6","6","0","1480","garbage","6","2018-06-29 15:47:50","336830"
"A1W48HYA27W9PA","cs_wg_full_v3_pilot2","3UWN2HHPUY6AJ4LWWI4Z4USULTLSNE","11","0","BANQUET","6","6","0","3413","banquet","6","2018-06-29 15:47:50","336831"
"A212P51360T72C","cs_wg_full_v3_pilot2","3XCC1ODXDLCJLMYBXLWBIEI342PRQC","16","0","SUNBURN","6","6","1","1789","sunburn","6","2018-06-29 15:47:51","336832"
"A24ZAX5O63WVNI","cs_wg_full_v3_pilot2","3EJJQNKU9R668TZ8EV9H90Q2DFTRHG","13","0","GRENADE","7","6","0","3734","GRENADE","7","2018-06-29 15:47:52","336833"
"ACWYF9Z50PCA9","cs_wg_full_v3_pilot2","3ZSY5X72NXCG0ALVI847T9N3P17OR1","24","0","TURKEY","15","6","0","905","TURKEY","15","2018-06-29 15:47:53","336834"
"A26XF8O4XRL8JA","cs_wg_full_v3_pilot2","3TXMY6UCAEPFFK9SFO6GTJJH41MCQR","18","0","TURKEY","15","6","0","1923","turkey","15","2018-06-29 15:47:55","336835"
"ADHUJSKTI0UQA","cs_wg_full_v3_pilot2","33M4IA01QG23UJZNJZR3CMEW15CRX9","13","0","RABBIT","5","6","0","5882","RABBIT","5","2018-06-29 15:47:56","336836"
"A3KRI94KVF7TIC","cs_wg_full_v3_pilot2","3HRMW88U16R40DGKBF6FH9XBLBSM0L","10","0","PUMPKIN","15","6","0","2511","Pumpkin","15","2018-06-29 15:47:58","336837"
"A3HKQND0VGDM87","cs_wg_full_v3_pilot2","3U0SRXB7CD6YIPLJHT4UEKNYZR2RNP","18","0","ACROBAT","6","6","1","2771","acrobat","6","2018-06-29 15:47:59","336838"
"A247EMWK0LVQGK","cs_wg_full_v3_pilot2","32XVDSJFPZYBWNJYQ2AT0XQQI9CM25","17","0","PEBBLE","6","6","1","1893","pebble","6","2018-06-29 15:48:00","336839"
"A119I25CPLHE7X","cs_wg_full_v3_pilot2","3MAOD8E57QBIFL7VQSAM329M08NXNR","12","0","RABBIT","7","6","0","1653","Rabbit","7","2018-06-29 15:48:00","336840"
"A212P51360T72C","cs_wg_full_v3_pilot2","3XCC1ODXDLCJLMYBXLWBIEI342PRQC","17","0","WIZARD","6","6","1","1349","wizard","6","2018-06-29 15:48:00","336841"
"A1DJ3IDWF923Y7","cs_wg_full_v3_pilot2","3HQUKB7LNFFTJZL5IQXNVWOWQ6VHH9","17","0","GARBAGE","6","6","0","1350","garbage","6","2018-06-29 15:48:00","336842"
"A30KKDFHZL9L4C","cs_wg_full_v3_pilot2","3AZHRG4CU4L3ER8A5X10LAO5LKC03K","17","0","BICYCLE","7","6","0","4350","bicycle","7","2018-06-29 15:48:01","336843"
"A173E26N947Q7A","cs_wg_full_v3_pilot2","31EUONYN2V48TH2CRS9HU6C6A7KOVU","23","0","PICKLE","15","6","0","1627","pickle","15","2018-06-29 15:48:02","336844"
"AASWAMYQ9PXMQ","cs_wg_full_v3_pilot2","378XPAWRUCEE57OBI25GEM27DOKIAS","14","0","PICKLE","15","6","1","2600","pickle","15","2018-06-29 15:48:02","336845"
"A1W48HYA27W9PA","cs_wg_full_v3_pilot2","3UWN2HHPUY6AJ4LWWI4Z4USULTLSNE","12","0","SQUARE","5","6","1","3614","square","5","2018-06-29 15:48:02","336846"
"ACWYF9Z50PCA9","cs_wg_full_v3_pilot2","3ZSY5X72NXCG0ALVI847T9N3P17OR1","25","0","PALACE","6","6","0","1082","PALACE","6","2018-06-29 15:48:03","336847"
"A26XF8O4XRL8JA","cs_wg_full_v3_pilot2","3TXMY6UCAEPFFK9SFO6GTJJH41MCQR","19","0","CANCER","6","6","1","1363","cancer","6","2018-06-29 15:48:05","336848"
"AAICZ4OJOL83Y","cs_wg_full_v3_pilot2","33JKGHPFYCV7L98RCL8DSLTOT43MNW","11","0","COWBOY","6","6","1","5661","COWBOY","6","2018-06-29 15:48:07","336849"
"A3BMEBBDIHI6DU","cs_wg_full_v3_pilot2","3VHP9MDGRNLIOVJJ18VMHKF3XZDCFX","10","0","JACKET","15","6","0","9304","JACKET","15","2018-06-29 15:48:07","336850"
"A1ZGQC0J00M69W","cs_wg_full_v3_pilot2","3VBEN272MK049C4A9ER4EAJXKHZSG6","4","0","SPATULA","6","6","1","5392","spatula","6","2018-06-29 15:48:08","336851"
"A24ZAX5O63WVNI","cs_wg_full_v3_pilot2","3EJJQNKU9R668TZ8EV9H90Q2DFTRHG","14","0","SUNBURN","6","6","0","2925","SUNBURN","6","2018-06-29 15:48:08","336852"
"A212P51360T72C","cs_wg_full_v3_pilot2","3XCC1ODXDLCJLMYBXLWBIEI342PRQC","18","0","WIZARD","6","6","1","1277","wizard","6","2018-06-29 15:48:09","336853"
"A247EMWK0LVQGK","cs_wg_full_v3_pilot2","32XVDSJFPZYBWNJYQ2AT0XQQI9CM25","18","0","PEBBLE","6","6","1","1596","pebble","6","2018-06-29 15:48:10","336854"
"ADHUJSKTI0UQA","cs_wg_full_v3_pilot2","33M4IA01QG23UJZNJZR3CMEW15CRX9","14","0","BASKET","15","6","0","7919","BASKET","15","2018-06-29 15:48:11","336855"
"A1DJ3IDWF923Y7","cs_wg_full_v3_pilot2","3HQUKB7LNFFTJZL5IQXNVWOWQ6VHH9","18","0","BANQUET","6","6","0","1688","banquet","6","2018-06-29 15:48:11","336856"
"ASCL5Y4G5C7XY","cs_wg_full_v3_pilot2","3SNLUL3WO4O0AHAF9AJK636T1V6ULU","3","0","BUCKET","15","6","1","6504","Bucket","15","2018-06-29 15:48:12","336857"
"ACWYF9Z50PCA9","cs_wg_full_v3_pilot2","3ZSY5X72NXCG0ALVI847T9N3P17OR1","26","0","PUMPKIN","1","6","1","1966","PUMPKIN","1","2018-06-29 15:48:12","336858"
"A3KRI94KVF7TIC","cs_wg_full_v3_pilot2","3HRMW88U16R40DGKBF6FH9XBLBSM0L","11","0","CHICKEN","1","6","1","3329","Chicken","1","2018-06-29 15:48:13","336859"
"A173E26N947Q7A","cs_wg_full_v3_pilot2","31EUONYN2V48TH2CRS9HU6C6A7KOVU","24","0","PALACE","7","6","1","3523","palace","7","2018-06-29 15:48:13","336860"
"A3HKQND0VGDM87","cs_wg_full_v3_pilot2","3U0SRXB7CD6YIPLJHT4UEKNYZR2RNP","19","0","BANQUET","6","6","1","3080","banquet","6","2018-06-29 15:48:14","336861"
"A119I25CPLHE7X","cs_wg_full_v3_pilot2","3MAOD8E57QBIFL7VQSAM329M08NXNR","13","0","COMPANY","5","6","1","2458","Company","5","2018-06-29 15:48:14","336862"
"AASWAMYQ9PXMQ","cs_wg_full_v3_pilot2","378XPAWRUCEE57OBI25GEM27DOKIAS","15","0","TURKEY","1","6","1","3069","turkey","1","2018-06-29 15:48:15","336863"
"A34N69O6CMW2S1","cs_wg_full_v3_pilot2","3L2IS5HSFAJQYHD0LNZZJVAI6Q6UNW","1","0","BLANKET","15","6","0","11705","blanket","15","2018-06-29 15:48:15","336864"
"A26XF8O4XRL8JA","cs_wg_full_v3_pilot2","3TXMY6UCAEPFFK9SFO6GTJJH41MCQR","20","0","TURKEY","15","6","0","1401","turkey","15","2018-06-29 15:48:16","336865"
"A1W48HYA27W9PA","cs_wg_full_v3_pilot2","3UWN2HHPUY6AJ4LWWI4Z4USULTLSNE","13","0","ARCADE","6","6","0","3195","arcade","6","2018-06-29 15:48:17","336866"
"A212P51360T72C","cs_wg_full_v3_pilot2","3XCC1ODXDLCJLMYBXLWBIEI342PRQC","19","0","WIZARD","6","6","1","1341","wizard","6","2018-06-29 15:48:18","336867"
"ADHUJSKTI0UQA","cs_wg_full_v3_pilot2","33M4IA01QG23UJZNJZR3CMEW15CRX9","15","0","ISLAND","5","6","0","1391","ISLAND","5","2018-06-29 15:48:19","336868"
"A30KKDFHZL9L4C","cs_wg_full_v3_pilot2","3AZHRG4CU4L3ER8A5X10LAO5LKC03K","18","0","GRENADE","6","6","1","9829","grenade","6","2018-06-29 15:48:21","336869"
"A247EMWK0LVQGK","cs_wg_full_v3_pilot2","32XVDSJFPZYBWNJYQ2AT0XQQI9CM25","19","0","CRICKET","1","6","1","2523","cricket","1","2018-06-29 15:48:21","336870"
"AAICZ4OJOL83Y","cs_wg_full_v3_pilot2","33JKGHPFYCV7L98RCL8DSLTOT43MNW","12","0","LIQUID","6","6","1","2458","LIQUID","6","2018-06-29 15:48:22","336871"
"A1DJ3IDWF923Y7","cs_wg_full_v3_pilot2","3HQUKB7LNFFTJZL5IQXNVWOWQ6VHH9","19","0","BANQUET","6","6","0","1343","banquet","6","2018-06-29 15:48:22","336872"
"ACWYF9Z50PCA9","cs_wg_full_v3_pilot2","3ZSY5X72NXCG0ALVI847T9N3P17OR1","27","0","PUMPKIN","1","6","1","1449","PUMPKIN","1","2018-06-29 15:48:23","336873"
"A3BMEBBDIHI6DU","cs_wg_full_v3_pilot2","3VHP9MDGRNLIOVJJ18VMHKF3XZDCFX","11","0","BAMBOO","6","6","0","4713","BAMBOO","6","2018-06-29 15:48:24","336874"
"A173E26N947Q7A","cs_wg_full_v3_pilot2","31EUONYN2V48TH2CRS9HU6C6A7KOVU","25","0","PUMPKIN","1","6","0","1790","pumpkin","1","2018-06-29 15:48:24","336875"
"ADHUJSKTI0UQA","cs_wg_full_v3_pilot2","33M4IA01QG23UJZNJZR3CMEW15CRX9","16","0","GARBAGE","7","6","0","1520","GARBAGE","7","2018-06-29 15:48:26","336876"
"A3HKQND0VGDM87","cs_wg_full_v3_pilot2","3U0SRXB7CD6YIPLJHT4UEKNYZR2RNP","20","0","PICKLE","15","6","0","3528","pickle","15","2018-06-29 15:48:26","336877"
"A119I25CPLHE7X","cs_wg_full_v3_pilot2","3MAOD8E57QBIFL7VQSAM329M08NXNR","14","0","ISLAND","5","6","1","3082","Island","5","2018-06-29 15:48:26","336878"
"ASCL5Y4G5C7XY","cs_wg_full_v3_pilot2","3SNLUL3WO4O0AHAF9AJK636T1V6ULU","4","0","BUCKET","15","6","0","2596","Bucket","15","2018-06-29 15:48:27","336879"
"A24ZAX5O63WVNI","cs_wg_full_v3_pilot2","3EJJQNKU9R668TZ8EV9H90Q2DFTRHG","15","0","AIRBAG","7","6","1","5564","AIRBAG","7","2018-06-29 15:48:27","336880"
"A3KRI94KVF7TIC","cs_wg_full_v3_pilot2","3HRMW88U16R40DGKBF6FH9XBLBSM0L","12","0","PUMPKIN","15","6","0","3282","Pumpkin","15","2018-06-29 15:48:27","336881"
"A1W48HYA27W9PA","cs_wg_full_v3_pilot2","3UWN2HHPUY6AJ4LWWI4Z4USULTLSNE","14","0","SQUARE","5","6","1","3232","square","5","2018-06-29 15:48:27","336882"
"A1ZGQC0J00M69W","cs_wg_full_v3_pilot2","3VBEN272MK049C4A9ER4EAJXKHZSG6","5","0","BICYCLE","7","6","1","2898","bicycle","7","2018-06-29 15:48:28","336883"
"AASWAMYQ9PXMQ","cs_wg_full_v3_pilot2","378XPAWRUCEE57OBI25GEM27DOKIAS","16","0","PICKLE","15","6","0","2243","pickle","15","2018-06-29 15:48:28","336884"
"A212P51360T72C","cs_wg_full_v3_pilot2","3XCC1ODXDLCJLMYBXLWBIEI342PRQC","20","0","MONKEY","15","6","0","2303","monkey","15","2018-06-29 15:48:29","336885"
"A26XF8O4XRL8JA","cs_wg_full_v3_pilot2","3TXMY6UCAEPFFK9SFO6GTJJH41MCQR","21","0","COSTUME","6","6","1","1311","costume","6","2018-06-29 15:48:30","336886"
"A247EMWK0LVQGK","cs_wg_full_v3_pilot2","32XVDSJFPZYBWNJYQ2AT0XQQI9CM25","20","0","COSTUME","6","6","1","1665","costume","6","2018-06-29 15:48:31","336887"
"ACWYF9Z50PCA9","cs_wg_full_v3_pilot2","3ZSY5X72NXCG0ALVI847T9N3P17OR1","28","0","TURKEY","15","6","0","1166","TURKEY","15","2018-06-29 15:48:32","336888"
"A30KKDFHZL9L4C","cs_wg_full_v3_pilot2","3AZHRG4CU4L3ER8A5X10LAO5LKC03K","19","0","PEBBLE","5","6","1","4944","pebble","5","2018-06-29 15:48:33","336889"
"ADHUJSKTI0UQA","cs_wg_full_v3_pilot2","33M4IA01QG23UJZNJZR3CMEW15CRX9","17","0","ISLAND","5","6","0","1273","ISLAND","5","2018-06-29 15:48:33","336890"
"A1DJ3IDWF923Y7","cs_wg_full_v3_pilot2","3HQUKB7LNFFTJZL5IQXNVWOWQ6VHH9","20","0","PUMPKIN","15","6","0","1815","pumpkin","15","2018-06-29 15:48:36","336891"
"AAICZ4OJOL83Y","cs_wg_full_v3_pilot2","33JKGHPFYCV7L98RCL8DSLTOT43MNW","13","0","MONKEY","1","6","1","3048","MONKEY","1","2018-06-29 15:48:37","336892"
"A1W48HYA27W9PA","cs_wg_full_v3_pilot2","3UWN2HHPUY6AJ4LWWI4Z4USULTLSNE","15","0","BANQUET","6","6","1","3088","banquet","6","2018-06-29 15:48:38","336893"
"A3KRI94KVF7TIC","cs_wg_full_v3_pilot2","3HRMW88U16R40DGKBF6FH9XBLBSM0L","13","0","PENGUIN","6","6","0","1566","Penguin","6","2018-06-29 15:48:39","336894"
"A34N69O6CMW2S1","cs_wg_full_v3_pilot2","3L2IS5HSFAJQYHD0LNZZJVAI6Q6UNW","2","0","WIZARD","7","6","1","7085","wizard","7","2018-06-29 15:48:39","336895"
"A212P51360T72C","cs_wg_full_v3_pilot2","3XCC1ODXDLCJLMYBXLWBIEI342PRQC","21","0","WIZARD","6","6","1","2214","wizard","6","2018-06-29 15:48:39","336896"
"A119I25CPLHE7X","cs_wg_full_v3_pilot2","3MAOD8E57QBIFL7VQSAM329M08NXNR","15","0","PELICAN","6","6","0","2081","Pelican","6","2018-06-29 15:48:40","336897"
"A3HKQND0VGDM87","cs_wg_full_v3_pilot2","3U0SRXB7CD6YIPLJHT4UEKNYZR2RNP","21","0","BANQUET","6","6","0","4415","banquet","6","2018-06-29 15:48:40","336898"
"A3BMEBBDIHI6DU","cs_wg_full_v3_pilot2","3VHP9MDGRNLIOVJJ18VMHKF3XZDCFX","12","0","BAMBOO","6","6","0","4662","BAMBOO","6","2018-06-29 15:48:40","336899"
"ADHUJSKTI0UQA","cs_wg_full_v3_pilot2","33M4IA01QG23UJZNJZR3CMEW15CRX9","18","0","AVOCADO","5","6","0","1324","AVOCADO","5","2018-06-29 15:48:40","336900"
"A30KKDFHZL9L4C","cs_wg_full_v3_pilot2","3AZHRG4CU4L3ER8A5X10LAO5LKC03K","20","0","TOMATO","7","6","0","1864","tomato","7","2018-06-29 15:48:41","336901"
"AASWAMYQ9PXMQ","cs_wg_full_v3_pilot2","378XPAWRUCEE57OBI25GEM27DOKIAS","17","0","SUNBURN","6","6","0","2181","sunburn","6","2018-06-29 15:48:41","336902"
"A247EMWK0LVQGK","cs_wg_full_v3_pilot2","32XVDSJFPZYBWNJYQ2AT0XQQI9CM25","21","0","PEBBLE","6","6","1","1581","pebble","6","2018-06-29 15:48:41","336903"
"ACWYF9Z50PCA9","cs_wg_full_v3_pilot2","3ZSY5X72NXCG0ALVI847T9N3P17OR1","29","0","PUMPKIN","1","6","1","2099","PUMPKIN","1","2018-06-29 15:48:42","336904"
"A173E26N947Q7A","cs_wg_full_v3_pilot2","31EUONYN2V48TH2CRS9HU6C6A7KOVU","26","0","PUMPKIN","1","6","1","1594","pumpkin","1","2018-06-29 15:48:42","336905"
"A26XF8O4XRL8JA","cs_wg_full_v3_pilot2","3TXMY6UCAEPFFK9SFO6GTJJH41MCQR","22","0","COSTUME","6","6","1","2408","costume","6","2018-06-29 15:48:44","336906"
"A24ZAX5O63WVNI","cs_wg_full_v3_pilot2","3EJJQNKU9R668TZ8EV9H90Q2DFTRHG","16","0","PEBBLE","6","6","0","2839","PEBBLE","6","2018-06-29 15:48:45","336907"
"ASCL5Y4G5C7XY","cs_wg_full_v3_pilot2","3SNLUL3WO4O0AHAF9AJK636T1V6ULU","5","0","COSTUME","6","6","0","4199","costume","6","2018-06-29 15:48:46","336908"
"ADHUJSKTI0UQA","cs_wg_full_v3_pilot2","33M4IA01QG23UJZNJZR3CMEW15CRX9","19","0","BANANA","7","6","0","1401","BANANA","7","2018-06-29 15:48:48","336909"
"A1DJ3IDWF923Y7","cs_wg_full_v3_pilot2","3HQUKB7LNFFTJZL5IQXNVWOWQ6VHH9","21","0","BUCKET","1","6","1","3144","bucket","1","2018-06-29 15:48:49","336910"
"A1W48HYA27W9PA","cs_wg_full_v3_pilot2","3UWN2HHPUY6AJ4LWWI4Z4USULTLSNE","16","0","ARCADE","6","6","0","2613","Arcade","6","2018-06-29 15:48:49","336911"
"A212P51360T72C","cs_wg_full_v3_pilot2","3XCC1ODXDLCJLMYBXLWBIEI342PRQC","22","0","MONKEY","15","6","0","1397","monkey","15","2018-06-29 15:48:49","336912"
"A1ZGQC0J00M69W","cs_wg_full_v3_pilot2","3VBEN272MK049C4A9ER4EAJXKHZSG6","6","0","BICYCLE","7","6","0","5588","bicycle ","7","2018-06-29 15:48:50","336913"
"A30KKDFHZL9L4C","cs_wg_full_v3_pilot2","3AZHRG4CU4L3ER8A5X10LAO5LKC03K","21","0","PICKLE","1","6","1","2679","pickle","1","2018-06-29 15:48:51","336914"
"ACWYF9Z50PCA9","cs_wg_full_v3_pilot2","3ZSY5X72NXCG0ALVI847T9N3P17OR1","30","0","PICTURE","6","6","0","1708","PICTURE","6","2018-06-29 15:48:51","336915"
"A119I25CPLHE7X","cs_wg_full_v3_pilot2","3MAOD8E57QBIFL7VQSAM329M08NXNR","16","0","CRICKET","1","6","1","4186","Cricket","1","2018-06-29 15:48:52","336916"
"AAICZ4OJOL83Y","cs_wg_full_v3_pilot2","33JKGHPFYCV7L98RCL8DSLTOT43MNW","14","0","LIQUID","6","6","1","1960","LIQUID","6","2018-06-29 15:48:52","336917"
"AASWAMYQ9PXMQ","cs_wg_full_v3_pilot2","378XPAWRUCEE57OBI25GEM27DOKIAS","18","0","TURKEY","1","6","1","1835","turkey","1","2018-06-29 15:48:52","336918"
"A3HKQND0VGDM87","cs_wg_full_v3_pilot2","3U0SRXB7CD6YIPLJHT4UEKNYZR2RNP","22","0","BANQUET","6","6","0","2068","banquet","6","2018-06-29 15:48:53","336919"
"A247EMWK0LVQGK","cs_wg_full_v3_pilot2","32XVDSJFPZYBWNJYQ2AT0XQQI9CM25","22","0","COSTUME","6","6","1","1504","costume","6","2018-06-29 15:48:53","336920"
"A3KRI94KVF7TIC","cs_wg_full_v3_pilot2","3HRMW88U16R40DGKBF6FH9XBLBSM0L","14","0","PUMPKIN","15","6","0","2591","Pumpkin","15","2018-06-29 15:48:53","336921"
"A3BMEBBDIHI6DU","cs_wg_full_v3_pilot2","3VHP9MDGRNLIOVJJ18VMHKF3XZDCFX","13","0","SUNBURN","6","6","0","3552","SUNBURN","6","2018-06-29 15:48:54","336922"
"ADHUJSKTI0UQA","cs_wg_full_v3_pilot2","33M4IA01QG23UJZNJZR3CMEW15CRX9","20","0","PICKLE","1","6","0","1570","PICKLE","1","2018-06-29 15:48:55","336923"
"A173E26N947Q7A","cs_wg_full_v3_pilot2","31EUONYN2V48TH2CRS9HU6C6A7KOVU","27","0","BANANA","7","6","0","3313","banana","7","2018-06-29 15:48:56","336924"
"A26XF8O4XRL8JA","cs_wg_full_v3_pilot2","3TXMY6UCAEPFFK9SFO6GTJJH41MCQR","23","0","COSTUME","6","6","1","1807","costume","6","2018-06-29 15:48:56","336925"
"A1DJ3IDWF923Y7","cs_wg_full_v3_pilot2","3HQUKB7LNFFTJZL5IQXNVWOWQ6VHH9","22","0","GARBAGE","6","6","0","1403","garbage","6","2018-06-29 15:48:59","336926"
"A1W48HYA27W9PA","cs_wg_full_v3_pilot2","3UWN2HHPUY6AJ4LWWI4Z4USULTLSNE","17","0","BUCKET","1","6","1","3065","bucket","1","2018-06-29 15:49:00","336927"
"ACWYF9Z50PCA9","cs_wg_full_v3_pilot2","3ZSY5X72NXCG0ALVI847T9N3P17OR1","31","0","PALACE","6","6","0","1598","PALACE","6","2018-06-29 15:49:00","336928"
"A30KKDFHZL9L4C","cs_wg_full_v3_pilot2","3AZHRG4CU4L3ER8A5X10LAO5LKC03K","22","0","PEBBLE","5","6","1","2916","pebble","5","2018-06-29 15:49:00","336929"
"A212P51360T72C","cs_wg_full_v3_pilot2","3XCC1ODXDLCJLMYBXLWBIEI342PRQC","23","0","SMOKER","1","6","1","1461","smoker","1","2018-06-29 15:49:01","336930"
"A119I25CPLHE7X","cs_wg_full_v3_pilot2","3MAOD8E57QBIFL7VQSAM329M08NXNR","17","0","POTATO","7","6","0","1476","Potato","7","2018-06-29 15:49:01","336931"
"ADHUJSKTI0UQA","cs_wg_full_v3_pilot2","33M4IA01QG23UJZNJZR3CMEW15CRX9","21","0","RABBIT","5","6","0","1324","RABBIT","5","2018-06-29 15:49:03","336932"
"A24ZAX5O63WVNI","cs_wg_full_v3_pilot2","3EJJQNKU9R668TZ8EV9H90Q2DFTRHG","17","0","WIZARD","5","6","1","4578","Wizzard","5","2018-06-29 15:49:03","336933"
"A247EMWK0LVQGK","cs_wg_full_v3_pilot2","32XVDSJFPZYBWNJYQ2AT0XQQI9CM25","23","0","COSTUME","6","6","1","1586","costume","6","2018-06-29 15:49:03","336934"
"AASWAMYQ9PXMQ","cs_wg_full_v3_pilot2","378XPAWRUCEE57OBI25GEM27DOKIAS","19","0","COMPANY","6","6","0","1824","company","6","2018-06-29 15:49:04","336935"
"A3HKQND0VGDM87","cs_wg_full_v3_pilot2","3U0SRXB7CD6YIPLJHT4UEKNYZR2RNP","23","0","PICKLE","15","6","0","1613","pickle","15","2018-06-29 15:49:05","336936"
"A26XF8O4XRL8JA","cs_wg_full_v3_pilot2","3TXMY6UCAEPFFK9SFO6GTJJH41MCQR","24","0","MONKEY","1","6","1","1698","monkey","1","2018-06-29 15:49:06","336937"
"A3KRI94KVF7TIC","cs_wg_full_v3_pilot2","3HRMW88U16R40DGKBF6FH9XBLBSM0L","15","0","CHICKEN","1","6","0","1656","Chicken","1","2018-06-29 15:49:07","336938"
"AAICZ4OJOL83Y","cs_wg_full_v3_pilot2","33JKGHPFYCV7L98RCL8DSLTOT43MNW","15","0","BASKET","15","6","1","1698","BASKET","15","2018-06-29 15:49:07","336939"
"A173E26N947Q7A","cs_wg_full_v3_pilot2","31EUONYN2V48TH2CRS9HU6C6A7KOVU","28","0","PICKLE","15","6","0","1352","pickle","15","2018-06-29 15:49:07","336940"
"ACWYF9Z50PCA9","cs_wg_full_v3_pilot2","3ZSY5X72NXCG0ALVI847T9N3P17OR1","32","0","TURKEY","15","6","0","833","TURKEY","15","2018-06-29 15:49:08","336941"
"ASCL5Y4G5C7XY","cs_wg_full_v3_pilot2","3SNLUL3WO4O0AHAF9AJK636T1V6ULU","6","0","GRENADE","6","6","1","9296","Grenade","6","2018-06-29 15:49:08","336942"
"A212P51360T72C","cs_wg_full_v3_pilot2","3XCC1ODXDLCJLMYBXLWBIEI342PRQC","24","0","SMOKER","1","6","1","1328","smoker","1","2018-06-29 15:49:09","336943"
"A30KKDFHZL9L4C","cs_wg_full_v3_pilot2","3AZHRG4CU4L3ER8A5X10LAO5LKC03K","23","0","LIQUID","6","6","1","2322","liquid","6","2018-06-29 15:49:10","336944"
"A119I25CPLHE7X","cs_wg_full_v3_pilot2","3MAOD8E57QBIFL7VQSAM329M08NXNR","18","0","BLANKET","15","6","0","1534","Blanket","15","2018-06-29 15:49:10","336945"
"A34N69O6CMW2S1","cs_wg_full_v3_pilot2","3L2IS5HSFAJQYHD0LNZZJVAI6Q6UNW","3","0","VOLCANO","5","6","1","6180","volcano","5","2018-06-29 15:49:10","336946"
"A1DJ3IDWF923Y7","cs_wg_full_v3_pilot2","3HQUKB7LNFFTJZL5IQXNVWOWQ6VHH9","23","0","PUMPKIN","15","6","0","1715","pumpkin","15","2018-06-29 15:49:10","336947"
"ADHUJSKTI0UQA","cs_wg_full_v3_pilot2","33M4IA01QG23UJZNJZR3CMEW15CRX9","22","0","SPATULA","6","6","0","1323","SPATULA","6","2018-06-29 15:49:10","336948"
"A3BMEBBDIHI6DU","cs_wg_full_v3_pilot2","3VHP9MDGRNLIOVJJ18VMHKF3XZDCFX","14","0","JACKET","15","6","0","4947","JACKET","15","2018-06-29 15:49:11","336949"
"A1ZGQC0J00M69W","cs_wg_full_v3_pilot2","3VBEN272MK049C4A9ER4EAJXKHZSG6","7","0","ACROBAT","5","6","1","2667","acrobat","5","2018-06-29 15:49:11","336950"
"A247EMWK0LVQGK","cs_wg_full_v3_pilot2","32XVDSJFPZYBWNJYQ2AT0XQQI9CM25","24","0","PUMPKIN","15","6","0","2077","pumpkin","15","2018-06-29 15:49:15","336951"
"ACWYF9Z50PCA9","cs_wg_full_v3_pilot2","3ZSY5X72NXCG0ALVI847T9N3P17OR1","33","0","TURKEY","15","6","0","972","TURKEY","15","2018-06-29 15:49:16","336952"
"AASWAMYQ9PXMQ","cs_wg_full_v3_pilot2","378XPAWRUCEE57OBI25GEM27DOKIAS","20","0","SUNBURN","6","6","0","2023","sunburn","6","2018-06-29 15:49:17","336953"
"A30KKDFHZL9L4C","cs_wg_full_v3_pilot2","3AZHRG4CU4L3ER8A5X10LAO5LKC03K","24","0","GRENADE","6","6","1","1330","grenade","6","2018-06-29 15:49:18","336954"
"ADHUJSKTI0UQA","cs_wg_full_v3_pilot2","33M4IA01QG23UJZNJZR3CMEW15CRX9","23","0","COWBOY","7","6","0","1276","COWBOY","7","2018-06-29 15:49:18","336955"
"A173E26N947Q7A","cs_wg_full_v3_pilot2","31EUONYN2V48TH2CRS9HU6C6A7KOVU","29","0","GARBAGE","5","6","1","2587","garbage","5","2018-06-29 15:49:19","336956"
"A212P51360T72C","cs_wg_full_v3_pilot2","3XCC1ODXDLCJLMYBXLWBIEI342PRQC","25","0","SUNBURN","6","6","1","1382","sunburn","6","2018-06-29 15:49:19","336957"
"A1W48HYA27W9PA","cs_wg_full_v3_pilot2","3UWN2HHPUY6AJ4LWWI4Z4USULTLSNE","18","0","ISLAND","5","6","1","2340","island","5","2018-06-29 15:49:19","336958"
"A3HKQND0VGDM87","cs_wg_full_v3_pilot2","3U0SRXB7CD6YIPLJHT4UEKNYZR2RNP","24","0","ACROBAT","6","6","1","4169","acrobat","6","2018-06-29 15:49:19","336959"
"A119I25CPLHE7X","cs_wg_full_v3_pilot2","3MAOD8E57QBIFL7VQSAM329M08NXNR","19","0","POTATO","7","6","0","866","Potato","7","2018-06-29 15:49:19","336960"
"A24ZAX5O63WVNI","cs_wg_full_v3_pilot2","3EJJQNKU9R668TZ8EV9H90Q2DFTRHG","18","0","CHICKEN","1","6","1","4867","chicken","1","2018-06-29 15:49:20","336961"
"A26XF8O4XRL8JA","cs_wg_full_v3_pilot2","3TXMY6UCAEPFFK9SFO6GTJJH41MCQR","25","0","MONKEY","1","6","1","1427","monkey","1","2018-06-29 15:49:20","336962"
"A1DJ3IDWF923Y7","cs_wg_full_v3_pilot2","3HQUKB7LNFFTJZL5IQXNVWOWQ6VHH9","24","0","GARBAGE","6","6","0","1479","garbage","6","2018-06-29 15:49:21","336963"
"A3KRI94KVF7TIC","cs_wg_full_v3_pilot2","3HRMW88U16R40DGKBF6FH9XBLBSM0L","16","0","PELICAN","6","6","0","4545","Pelican","6","2018-06-29 15:49:21","336964"
"AAICZ4OJOL83Y","cs_wg_full_v3_pilot2","33JKGHPFYCV7L98RCL8DSLTOT43MNW","16","0","COWBOY","6","6","1","1845","COWBOY","6","2018-06-29 15:49:21","336965"
"A3BMEBBDIHI6DU","cs_wg_full_v3_pilot2","3VHP9MDGRNLIOVJJ18VMHKF3XZDCFX","15","0","JACKET","15","6","0","1555","JACKET","15","2018-06-29 15:49:23","336966"
"ACWYF9Z50PCA9","cs_wg_full_v3_pilot2","3ZSY5X72NXCG0ALVI847T9N3P17OR1","34","0","TURKEY","15","6","0","1153","TURKEY","15","2018-06-29 15:49:25","336967"
"ADHUJSKTI0UQA","cs_wg_full_v3_pilot2","33M4IA01QG23UJZNJZR3CMEW15CRX9","24","0","ISLAND","5","6","0","1612","ISLAND","5","2018-06-29 15:49:26","336968"
"A30KKDFHZL9L4C","cs_wg_full_v3_pilot2","3AZHRG4CU4L3ER8A5X10LAO5LKC03K","25","0","VOLCANO","5","6","1","1412","volcano","5","2018-06-29 15:49:26","336969"
"A247EMWK0LVQGK","cs_wg_full_v3_pilot2","32XVDSJFPZYBWNJYQ2AT0XQQI9CM25","25","0","CRICKET","1","6","1","1635","cricket","1","2018-06-29 15:49:27","336970"
"A212P51360T72C","cs_wg_full_v3_pilot2","3XCC1ODXDLCJLMYBXLWBIEI342PRQC","26","0","WIZARD","6","6","1","1248","wizard","6","2018-06-29 15:49:27","336971"
"A1ZGQC0J00M69W","cs_wg_full_v3_pilot2","3VBEN272MK049C4A9ER4EAJXKHZSG6","8","0","BANANA","7","6","0","5237","banana","7","2018-06-29 15:49:27","336972"
"ASCL5Y4G5C7XY","cs_wg_full_v3_pilot2","3SNLUL3WO4O0AHAF9AJK636T1V6ULU","7","0","BUCKET","15","6","0","6303","Bucket","15","2018-06-29 15:49:30","336973"
"A119I25CPLHE7X","cs_wg_full_v3_pilot2","3MAOD8E57QBIFL7VQSAM329M08NXNR","20","0","PELICAN","6","6","0","3012","Pelican","6","2018-06-29 15:49:31","336974"
"AASWAMYQ9PXMQ","cs_wg_full_v3_pilot2","378XPAWRUCEE57OBI25GEM27DOKIAS","21","0","SUNBURN","6","6","0","2961","sunburn","6","2018-06-29 15:49:31","336975"
"A1DJ3IDWF923Y7","cs_wg_full_v3_pilot2","3HQUKB7LNFFTJZL5IQXNVWOWQ6VHH9","25","0","BANQUET","6","6","0","1650","banquet","6","2018-06-29 15:49:31","336976"
"A26XF8O4XRL8JA","cs_wg_full_v3_pilot2","3TXMY6UCAEPFFK9SFO6GTJJH41MCQR","26","0","TURKEY","15","6","0","1206","turkey","15","2018-06-29 15:49:32","336977"
"A173E26N947Q7A","cs_wg_full_v3_pilot2","31EUONYN2V48TH2CRS9HU6C6A7KOVU","30","0","PUMPKIN","1","6","1","2033","pumpkin","1","2018-06-29 15:49:32","336978"
"A3HKQND0VGDM87","cs_wg_full_v3_pilot2","3U0SRXB7CD6YIPLJHT4UEKNYZR2RNP","25","0","BANQUET","6","6","1","3766","banquet","6","2018-06-29 15:49:33","336979"
"ADHUJSKTI0UQA","cs_wg_full_v3_pilot2","33M4IA01QG23UJZNJZR3CMEW15CRX9","25","0","PICKLE","1","6","0","1465","PICKLE","1","2018-06-29 15:49:33","336980"
"A34N69O6CMW2S1","cs_wg_full_v3_pilot2","3L2IS5HSFAJQYHD0LNZZJVAI6Q6UNW","4","0","LIQUID","6","6","0","6272","liquid","6","2018-06-29 15:49:34","336981"
"A3KRI94KVF7TIC","cs_wg_full_v3_pilot2","3HRMW88U16R40DGKBF6FH9XBLBSM0L","17","0","PENGUIN","6","6","0","1442","Penguin","6","2018-06-29 15:49:35","336982"
"ACWYF9Z50PCA9","cs_wg_full_v3_pilot2","3ZSY5X72NXCG0ALVI847T9N3P17OR1","35","0","PALACE","6","6","1","2034","PALACE","6","2018-06-29 15:49:35","336983"
"AAICZ4OJOL83Y","cs_wg_full_v3_pilot2","33JKGHPFYCV7L98RCL8DSLTOT43MNW","17","0","LIQUID","6","6","1","2031","LIQUID","6","2018-06-29 15:49:36","336984"
"A212P51360T72C","cs_wg_full_v3_pilot2","3XCC1ODXDLCJLMYBXLWBIEI342PRQC","27","0","SMOKER","1","6","1","1069","smoker","1","2018-06-29 15:49:36","336985"
"A30KKDFHZL9L4C","cs_wg_full_v3_pilot2","3AZHRG4CU4L3ER8A5X10LAO5LKC03K","26","0","COWBOY","7","6","0","1915","cowboy","7","2018-06-29 15:49:36","336986"
"A1W48HYA27W9PA","cs_wg_full_v3_pilot2","3UWN2HHPUY6AJ4LWWI4Z4USULTLSNE","19","0","COWBOY","7","6","1","4383","cowboy","7","2018-06-29 15:49:37","336987"
"A24ZAX5O63WVNI","cs_wg_full_v3_pilot2","3EJJQNKU9R668TZ8EV9H90Q2DFTRHG","19","0","JACKET","15","6","1","3211","JACKET","15","2018-06-29 15:49:38","336988"
"A247EMWK0LVQGK","cs_wg_full_v3_pilot2","32XVDSJFPZYBWNJYQ2AT0XQQI9CM25","26","0","PUMPKIN","15","6","0","1607","pumpkin","15","2018-06-29 15:49:38","336989"
"ADHUJSKTI0UQA","cs_wg_full_v3_pilot2","33M4IA01QG23UJZNJZR3CMEW15CRX9","26","0","AVOCADO","5","6","0","1164","AVOCADO","5","2018-06-29 15:49:40","336990"
"A119I25CPLHE7X","cs_wg_full_v3_pilot2","3MAOD8E57QBIFL7VQSAM329M08NXNR","21","0","BAMBOO","7","6","0","3439","Bamboo","7","2018-06-29 15:49:42","336991"
"A173E26N947Q7A","cs_wg_full_v3_pilot2","31EUONYN2V48TH2CRS9HU6C6A7KOVU","31","0","PICKLE","15","6","0","1092","pickle","15","2018-06-29 15:49:43","336992"
"AASWAMYQ9PXMQ","cs_wg_full_v3_pilot2","378XPAWRUCEE57OBI25GEM27DOKIAS","22","0","COMPANY","6","6","0","1486","company","6","2018-06-29 15:49:43","336993"
"A3BMEBBDIHI6DU","cs_wg_full_v3_pilot2","3VHP9MDGRNLIOVJJ18VMHKF3XZDCFX","16","0","CRICKET","1","6","1","2993","CRICKET","1","2018-06-29 15:49:44","336994"
"A1DJ3IDWF923Y7","cs_wg_full_v3_pilot2","3HQUKB7LNFFTJZL5IQXNVWOWQ6VHH9","26","0","PUMPKIN","15","6","0","2793","pumpkin","15","2018-06-29 15:49:44","336995"
"A26XF8O4XRL8JA","cs_wg_full_v3_pilot2","3TXMY6UCAEPFFK9SFO6GTJJH41MCQR","27","0","CANCER","6","6","1","1641","cancer","6","2018-06-29 15:49:45","336996"
"A3HKQND0VGDM87","cs_wg_full_v3_pilot2","3U0SRXB7CD6YIPLJHT4UEKNYZR2RNP","26","0","BASKET","1","6","1","2505","basket","1","2018-06-29 15:49:45","336997"
"A30KKDFHZL9L4C","cs_wg_full_v3_pilot2","3AZHRG4CU4L3ER8A5X10LAO5LKC03K","27","0","PICKLE","1","6","1","2534","pickle","1","2018-06-29 15:49:45","336998"
"A3KRI94KVF7TIC","cs_wg_full_v3_pilot2","3HRMW88U16R40DGKBF6FH9XBLBSM0L","18","0","PELICAN","6","6","0","1446","Pelican","6","2018-06-29 15:49:46","336999"
"ADHUJSKTI0UQA","cs_wg_full_v3_pilot2","33M4IA01QG23UJZNJZR3CMEW15CRX9","27","0","AVOCADO","5","6","0","1031","AVOCADO","5","2018-06-29 15:49:48","337000"
"A247EMWK0LVQGK","cs_wg_full_v3_pilot2","32XVDSJFPZYBWNJYQ2AT0XQQI9CM25","27","0","PEBBLE","6","6","1","1446","pebble","6","2018-06-29 15:49:48","337001"
"A1ZGQC0J00M69W","cs_wg_full_v3_pilot2","3VBEN272MK049C4A9ER4EAJXKHZSG6","9","0","SMOKER","15","6","1","3087","smoker","15","2018-06-29 15:49:49","337002"
"AAICZ4OJOL83Y","cs_wg_full_v3_pilot2","33JKGHPFYCV7L98RCL8DSLTOT43MNW","18","0","LIQUID","6","6","1","1985","LIQUID","6","2018-06-29 15:49:50","337003"
"A119I25CPLHE7X","cs_wg_full_v3_pilot2","3MAOD8E57QBIFL7VQSAM329M08NXNR","22","0","TOMATO","7","6","0","1436","Tomato","7","2018-06-29 15:49:51","337004"
"A1W48HYA27W9PA","cs_wg_full_v3_pilot2","3UWN2HHPUY6AJ4LWWI4Z4USULTLSNE","20","0","VOLCANO","7","6","0","3784","volcano","7","2018-06-29 15:49:52","337005"
"A24ZAX5O63WVNI","cs_wg_full_v3_pilot2","3EJJQNKU9R668TZ8EV9H90Q2DFTRHG","20","0","PELICAN","7","6","0","2912","PELICAN","7","2018-06-29 15:49:52","337006"
"A30KKDFHZL9L4C","cs_wg_full_v3_pilot2","3AZHRG4CU4L3ER8A5X10LAO5LKC03K","28","0","VOLCANO","5","6","1","1463","volcano","5","2018-06-29 15:49:54","337007"
"A34N69O6CMW2S1","cs_wg_full_v3_pilot2","3L2IS5HSFAJQYHD0LNZZJVAI6Q6UNW","5","0","RABBIT","7","6","0","3642","rabbit","7","2018-06-29 15:49:54","337008"
"A173E26N947Q7A","cs_wg_full_v3_pilot2","31EUONYN2V48TH2CRS9HU6C6A7KOVU","32","0","BANANA","7","6","0","1925","banana","7","2018-06-29 15:49:55","337009"
"A1DJ3IDWF923Y7","cs_wg_full_v3_pilot2","3HQUKB7LNFFTJZL5IQXNVWOWQ6VHH9","27","0","BUCKET","1","6","1","1732","bucket","1","2018-06-29 15:49:56","337010"
"ADHUJSKTI0UQA","cs_wg_full_v3_pilot2","33M4IA01QG23UJZNJZR3CMEW15CRX9","28","0","ACROBAT","5","6","0","1804","ACROBAT","5","2018-06-29 15:49:56","337011"
"A212P51360T72C","cs_wg_full_v3_pilot2","3XCC1ODXDLCJLMYBXLWBIEI342PRQC","28","0","SUNBURN","6","6","1","966","sunburn","6","2018-06-29 15:49:56","337012"
"A3BMEBBDIHI6DU","cs_wg_full_v3_pilot2","3VHP9MDGRNLIOVJJ18VMHKF3XZDCFX","17","0","CRICKET","1","6","1","2377","CRICKET","1","2018-06-29 15:49:56","337013"
"AASWAMYQ9PXMQ","cs_wg_full_v3_pilot2","378XPAWRUCEE57OBI25GEM27DOKIAS","23","0","SUNBURN","6","6","0","1853","sunburn","6","2018-06-29 15:49:57","337014"
"A26XF8O4XRL8JA","cs_wg_full_v3_pilot2","3TXMY6UCAEPFFK9SFO6GTJJH41MCQR","28","0","CANCER","6","6","1","1289","cancer","6","2018-06-29 15:49:58","337015"
"A3HKQND0VGDM87","cs_wg_full_v3_pilot2","3U0SRXB7CD6YIPLJHT4UEKNYZR2RNP","27","0","BANQUET","6","6","1","2206","banquet","6","2018-06-29 15:49:59","337016"
"A3KRI94KVF7TIC","cs_wg_full_v3_pilot2","3HRMW88U16R40DGKBF6FH9XBLBSM0L","19","0","PENGUIN","6","6","0","1454","Penguin","6","2018-06-29 15:50:00","337017"
"A247EMWK0LVQGK","cs_wg_full_v3_pilot2","32XVDSJFPZYBWNJYQ2AT0XQQI9CM25","28","0","CRICKET","1","6","1","1510","cricket","1","2018-06-29 15:50:00","337018"
"ASCL5Y4G5C7XY","cs_wg_full_v3_pilot2","3SNLUL3WO4O0AHAF9AJK636T1V6ULU","8","0","BUCKET","15","6","0","14392","Bucket","15","2018-06-29 15:50:00","337019"
"A119I25CPLHE7X","cs_wg_full_v3_pilot2","3MAOD8E57QBIFL7VQSAM329M08NXNR","23","0","ISLAND","5","6","1","2492","Island","5","2018-06-29 15:50:01","337020"
"A30KKDFHZL9L4C","cs_wg_full_v3_pilot2","3AZHRG4CU4L3ER8A5X10LAO5LKC03K","29","0","LIQUID","6","6","1","2029","liquid","6","2018-06-29 15:50:03","337021"
"A1W48HYA27W9PA","cs_wg_full_v3_pilot2","3UWN2HHPUY6AJ4LWWI4Z4USULTLSNE","21","0","SQUARE","5","6","1","2968","square","5","2018-06-29 15:50:03","337022"
"ADHUJSKTI0UQA","cs_wg_full_v3_pilot2","33M4IA01QG23UJZNJZR3CMEW15CRX9","29","0","PICKLE","1","6","0","2017","PICKLE","1","2018-06-29 15:50:04","337023"
"A173E26N947Q7A","cs_wg_full_v3_pilot2","31EUONYN2V48TH2CRS9HU6C6A7KOVU","33","0","ARCADE","6","6","0","1511","arcade","6","2018-06-29 15:50:05","337024"
"AAICZ4OJOL83Y","cs_wg_full_v3_pilot2","33JKGHPFYCV7L98RCL8DSLTOT43MNW","19","0","COWBOY","6","6","1","2367","COWBOY","6
6","2018-06-29 15:50:07","337025"
"A24ZAX5O63WVNI","cs_wg_full_v3_pilot2","3EJJQNKU9R668TZ8EV9H90Q2DFTRHG","21","0","GRENADE","7","6","0","4231","GRENADE","7","2018-06-29 15:50:08","337026"
"A212P51360T72C","cs_wg_full_v3_pilot2","3XCC1ODXDLCJLMYBXLWBIEI342PRQC","29","0","SUNBURN","6","6","1","2446","sunburn","6","2018-06-29 15:50:09","337027"
"A247EMWK0LVQGK","cs_wg_full_v3_pilot2","32XVDSJFPZYBWNJYQ2AT0XQQI9CM25","29","0","PEBBLE","6","6","1","1363","pebble","6","2018-06-29 15:50:10","337028"
"AASWAMYQ9PXMQ","cs_wg_full_v3_pilot2","378XPAWRUCEE57OBI25GEM27DOKIAS","24","0","PICKLE","15","6","0","1785","pickle","15","2018-06-29 15:50:10","337029"
"A119I25CPLHE7X","cs_wg_full_v3_pilot2","3MAOD8E57QBIFL7VQSAM329M08NXNR","24","0","RABBIT","7","6","0","1580","Rabbit","7","2018-06-29 15:50:10","337030"
"A1ZGQC0J00M69W","cs_wg_full_v3_pilot2","3VBEN272MK049C4A9ER4EAJXKHZSG6","10","0","ACROBAT","5","6","1","4935","acrobat","5","2018-06-29 15:50:11","337031"
"A3KRI94KVF7TIC","cs_wg_full_v3_pilot2","3HRMW88U16R40DGKBF6FH9XBLBSM0L","20","0","PELICAN","6","6","0","1681","Pelican","6","2018-06-29 15:50:11","337032"
"A3BMEBBDIHI6DU","cs_wg_full_v3_pilot2","3VHP9MDGRNLIOVJJ18VMHKF3XZDCFX","18","0","BAMBOO","6","6","0","3773","BAMBOO","6","2018-06-29 15:50:11","337033"
"ADHUJSKTI0UQA","cs_wg_full_v3_pilot2","33M4IA01QG23UJZNJZR3CMEW15CRX9","30","0","SPATULA","6","6","0","1333","SPATULA","6","2018-06-29 15:50:12","337034"
"A26XF8O4XRL8JA","cs_wg_full_v3_pilot2","3TXMY6UCAEPFFK9SFO6GTJJH41MCQR","29","0","CANCER","6","6","1","3232","cancer","6","2018-06-29 15:50:12","337035"
"A3HKQND0VGDM87","cs_wg_full_v3_pilot2","3U0SRXB7CD6YIPLJHT4UEKNYZR2RNP","28","0","BASKET","1","6","1","2204","basket","1","2018-06-29 15:50:12","337036"
"A30KKDFHZL9L4C","cs_wg_full_v3_pilot2","3AZHRG4CU4L3ER8A5X10LAO5LKC03K","30","0","COWBOY","7","6","0","1184","cowboy","7","2018-06-29 15:50:12","337037"
"A34N69O6CMW2S1","cs_wg_full_v3_pilot2","3L2IS5HSFAJQYHD0LNZZJVAI6Q6UNW","6","0","RABBIT","7","6","0","6289","rabbit","7","2018-06-29 15:50:14","337038"
"A1W48HYA27W9PA","cs_wg_full_v3_pilot2","3UWN2HHPUY6AJ4LWWI4Z4USULTLSNE","22","0","COWBOY","7","6","0","2296","cowboy","7","2018-06-29 15:50:14","337039"
"A173E26N947Q7A","cs_wg_full_v3_pilot2","31EUONYN2V48TH2CRS9HU6C6A7KOVU","34","0","BANANA","7","6","0","959","banana","7","2018-06-29 15:50:15","337040"
"A212P51360T72C","cs_wg_full_v3_pilot2","3XCC1ODXDLCJLMYBXLWBIEI342PRQC","30","0","MONKEY","15","6","0","1199","monkey","15","2018-06-29 15:50:18","337041"
"ASCL5Y4G5C7XY","cs_wg_full_v3_pilot2","3SNLUL3WO4O0AHAF9AJK636T1V6ULU","9","0","BLANKET","1","6","1","3803","Blanket","1","2018-06-29 15:50:19","337042"
"A119I25CPLHE7X","cs_wg_full_v3_pilot2","3MAOD8E57QBIFL7VQSAM329M08NXNR","25","0","TOMATO","7","6","0","2048","Tomato","7","2018-06-29 15:50:19","337043"
"A1DJ3IDWF923Y7","cs_wg_full_v3_pilot2","3HQUKB7LNFFTJZL5IQXNVWOWQ6VHH9","28","0","BANQUET","6","6","0","13537","banquet","6","2018-06-29 15:50:20","337044"
"ADHUJSKTI0UQA","cs_wg_full_v3_pilot2","33M4IA01QG23UJZNJZR3CMEW15CRX9","31","0","PELICAN","6","6","0","1393","PELICAN","6","2018-06-29 15:50:20","337045"
"A247EMWK0LVQGK","cs_wg_full_v3_pilot2","32XVDSJFPZYBWNJYQ2AT0XQQI9CM25","30","0","COSTUME","6","6","1","1634","costume","6","2018-06-29 15:50:20","337046"
"AASWAMYQ9PXMQ","cs_wg_full_v3_pilot2","378XPAWRUCEE57OBI25GEM27DOKIAS","25","0","COMPANY","6","6","0","1165","company","6","2018-06-29 15:50:21","337047"
"A30KKDFHZL9L4C","cs_wg_full_v3_pilot2","3AZHRG4CU4L3ER8A5X10LAO5LKC03K","31","0","VOLCANO","5","6","1","1400","volcano","5","2018-06-29 15:50:21","337048"
"AAICZ4OJOL83Y","cs_wg_full_v3_pilot2","33JKGHPFYCV7L98RCL8DSLTOT43MNW","20","0","LIQUID","6","6","1","1860","LIQUID","6","2018-06-29 15:50:22","337049"
"A3KRI94KVF7TIC","cs_wg_full_v3_pilot2","3HRMW88U16R40DGKBF6FH9XBLBSM0L","21","0","PELICAN","6","6","0","1606","Pelican","6","2018-06-29 15:50:22","337050"
"A24ZAX5O63WVNI","cs_wg_full_v3_pilot2","3EJJQNKU9R668TZ8EV9H90Q2DFTRHG","22","0","COMPANY","5","6","0","3214","COMPANY","5","2018-06-29 15:50:23","337051"
"A26XF8O4XRL8JA","cs_wg_full_v3_pilot2","3TXMY6UCAEPFFK9SFO6GTJJH41MCQR","30","0","COSTUME","6","6","1","1352","costume","6","2018-06-29 15:50:24","337052"
"A3BMEBBDIHI6DU","cs_wg_full_v3_pilot2","3VHP9MDGRNLIOVJJ18VMHKF3XZDCFX","19","0","JACKET","15","6","0","1724","JACKET","15","2018-06-29 15:50:24","337053"
"A1W48HYA27W9PA","cs_wg_full_v3_pilot2","3UWN2HHPUY6AJ4LWWI4Z4USULTLSNE","23","0","ARCADE","6","6","0","3547","arcade","6","2018-06-29 15:50:24","337054"
"A173E26N947Q7A","cs_wg_full_v3_pilot2","31EUONYN2V48TH2CRS9HU6C6A7KOVU","35","0","PUMPKIN","1","6","1","1616","pumpkin","1","2018-06-29 15:50:25","337055"
"A1ZGQC0J00M69W","cs_wg_full_v3_pilot2","3VBEN272MK049C4A9ER4EAJXKHZSG6","11","0","SPATULA","6","6","1","4830","spatula","6","2018-06-29 15:50:27","337056"
"A3HKQND0VGDM87","cs_wg_full_v3_pilot2","3U0SRXB7CD6YIPLJHT4UEKNYZR2RNP","29","0","BANQUET","6","6","1","3581","banquet","6","2018-06-29 15:50:27","337057"
"A212P51360T72C","cs_wg_full_v3_pilot2","3XCC1ODXDLCJLMYBXLWBIEI342PRQC","31","0","SUNBURN","6","6","1","1896","sunburn","6","2018-06-29 15:50:28","337058"
"ADHUJSKTI0UQA","cs_wg_full_v3_pilot2","33M4IA01QG23UJZNJZR3CMEW15CRX9","32","0","ACROBAT","5","6","0","1911","ACROBAT","5","2018-06-29 15:50:28","337059"
"A119I25CPLHE7X","cs_wg_full_v3_pilot2","3MAOD8E57QBIFL7VQSAM329M08NXNR","26","0","PICTURE","6","6","0","2626","Picture","6","2018-06-29 15:50:30","337060"
"A34N69O6CMW2S1","cs_wg_full_v3_pilot2","3L2IS5HSFAJQYHD0LNZZJVAI6Q6UNW","7","0","ACROBAT","6","6","0","1683","acrobat","6","2018-06-29 15:50:31","337061"
"A30KKDFHZL9L4C","cs_wg_full_v3_pilot2","3AZHRG4CU4L3ER8A5X10LAO5LKC03K","32","0","PEBBLE","5","6","1","2649","pebble","5","2018-06-29 15:50:31","337062"
"A247EMWK0LVQGK","cs_wg_full_v3_pilot2","32XVDSJFPZYBWNJYQ2AT0XQQI9CM25","31","0","PUMPKIN","15","6","0","1861","pumpkin","15","2018-06-29 15:50:31","337063"
"AASWAMYQ9PXMQ","cs_wg_full_v3_pilot2","378XPAWRUCEE57OBI25GEM27DOKIAS","26","0","TURKEY","1","6","1","2478","turkey","1","2018-06-29 15:50:33","337064"
"A1W48HYA27W9PA","cs_wg_full_v3_pilot2","3UWN2HHPUY6AJ4LWWI4Z4USULTLSNE","24","0","VOLCANO","7","6","0","2109","volcano","7","2018-06-29 15:50:34","337065"
"A173E26N947Q7A","cs_wg_full_v3_pilot2","31EUONYN2V48TH2CRS9HU6C6A7KOVU","36","0","PICKLE","15","6","0","962","pickle","15","2018-06-29 15:50:36","337066"
"A26XF8O4XRL8JA","cs_wg_full_v3_pilot2","3TXMY6UCAEPFFK9SFO6GTJJH41MCQR","31","0","MONKEY","1","6","1","1588","monkey","1","2018-06-29 15:50:36","337067"
"ADHUJSKTI0UQA","cs_wg_full_v3_pilot2","33M4IA01QG23UJZNJZR3CMEW15CRX9","33","0","PICKLE","1","6","0","2095","PICKLE","1","2018-06-29 15:50:36","337068"
"A3KRI94KVF7TIC","cs_wg_full_v3_pilot2","3HRMW88U16R40DGKBF6FH9XBLBSM0L","22","0","CHICKEN","1","6","1","2198","Chicken","1","2018-06-29 15:50:36","337069"
"AAICZ4OJOL83Y","cs_wg_full_v3_pilot2","33JKGHPFYCV7L98RCL8DSLTOT43MNW","21","0","BASKET","15","6","1","1945","BASKET","15","2018-06-29 15:50:37","337070"
"A212P51360T72C","cs_wg_full_v3_pilot2","3XCC1ODXDLCJLMYBXLWBIEI342PRQC","32","0","WIZARD","6","6","1","1261","wizard","6","2018-06-29 15:50:37","337071"
"A3BMEBBDIHI6DU","cs_wg_full_v3_pilot2","3VHP9MDGRNLIOVJJ18VMHKF3XZDCFX","20","0","CRICKET","1","6","1","3177","CRICKET","1","2018-06-29 15:50:38","337072"
"A3HKQND0VGDM87","cs_wg_full_v3_pilot2","3U0SRXB7CD6YIPLJHT4UEKNYZR2RNP","30","0","PICKLE","15","6","0","1736","pickle","15","2018-06-29 15:50:38","337073"
"A22QD6M0A2C77C","cs_wg_full_v3_pilot2","3ZDAD0O1T1EGAYCFNOWYC1FEPQ9XTS","0","0","BASKET","15","6","0","3647","basket","15","2018-06-29 15:50:39","337074"
"A30KKDFHZL9L4C","cs_wg_full_v3_pilot2","3AZHRG4CU4L3ER8A5X10LAO5LKC03K","33","0","PEBBLE","5","6","1","1180","pebble","5","2018-06-29 15:50:39","337075"
"A119I25CPLHE7X","cs_wg_full_v3_pilot2","3MAOD8E57QBIFL7VQSAM329M08NXNR","27","0","PELICAN","6","6","0","3417","Pelican","6","2018-06-29 15:50:41","337076"
"A247EMWK0LVQGK","cs_wg_full_v3_pilot2","32XVDSJFPZYBWNJYQ2AT0XQQI9CM25","32","0","PUMPKIN","15","6","0","1777","pumpkin","15","2018-06-29 15:50:43","337077"
"A24ZAX5O63WVNI","cs_wg_full_v3_pilot2","3EJJQNKU9R668TZ8EV9H90Q2DFTRHG","23","0","WIZARD","5","6","0","6797","WIZZARD","5","2018-06-29 15:50:43","337078"
"AASWAMYQ9PXMQ","cs_wg_full_v3_pilot2","378XPAWRUCEE57OBI25GEM27DOKIAS","27","0","PICKLE","15","6","0","1387","pickle","15","2018-06-29 15:50:44","337079"
"A1ZGQC0J00M69W","cs_wg_full_v3_pilot2","3VBEN272MK049C4A9ER4EAJXKHZSG6","12","0","SMOKER","15","6","0","3230","smoker","15","2018-06-29 15:50:44","337080"
"ADHUJSKTI0UQA","cs_wg_full_v3_pilot2","33M4IA01QG23UJZNJZR3CMEW15CRX9","34","0","COWBOY","7","6","0","1359","COWBOY","7","2018-06-29 15:50:44","337081"
"A212P51360T72C","cs_wg_full_v3_pilot2","3XCC1ODXDLCJLMYBXLWBIEI342PRQC","33","0","SMOKER","1","6","1","1133","smoker","1","2018-06-29 15:50:46","337082"
"A173E26N947Q7A","cs_wg_full_v3_pilot2","31EUONYN2V48TH2CRS9HU6C6A7KOVU","37","0","SPATULA","6","6","1","1609","spatula","6","2018-06-29 15:50:47","337083"
"A30KKDFHZL9L4C","cs_wg_full_v3_pilot2","3AZHRG4CU4L3ER8A5X10LAO5LKC03K","34","0","PUMPKIN","15","6","0","1649","pumpkin","15","2018-06-29 15:50:48","337084"
"A26XF8O4XRL8JA","cs_wg_full_v3_pilot2","3TXMY6UCAEPFFK9SFO6GTJJH41MCQR","32","0","TURKEY","15","6","0","1076","turkey","15","2018-06-29 15:50:49","337085"
"A1W48HYA27W9PA","cs_wg_full_v3_pilot2","3UWN2HHPUY6AJ4LWWI4Z4USULTLSNE","25","0","PELICAN","7","6","1","3988","pelican","7","2018-06-29 15:50:49","337086"
"A3HKQND0VGDM87","cs_wg_full_v3_pilot2","3U0SRXB7CD6YIPLJHT4UEKNYZR2RNP","31","0","ACROBAT","6","6","1","2416","acrobat","6","2018-06-29 15:50:49","337087"
"ASCL5Y4G5C7XY","cs_wg_full_v3_pilot2","3SNLUL3WO4O0AHAF9AJK636T1V6ULU","10","0","COSTUME","6","6","0","4126","Costume","6","2018-06-29 15:50:50","337088"
"A119I25CPLHE7X","cs_wg_full_v3_pilot2","3MAOD8E57QBIFL7VQSAM329M08NXNR","28","0","GARBAGE","5","6","0","1076","Garbage","5","2018-06-29 15:50:51","337089"
"A1DJ3IDWF923Y7","cs_wg_full_v3_pilot2","3HQUKB7LNFFTJZL5IQXNVWOWQ6VHH9","29","0","GARBAGE","6","6","0","1655","banquet","6","2018-06-29 15:50:51","337090"
"AAICZ4OJOL83Y","cs_wg_full_v3_pilot2","33JKGHPFYCV7L98RCL8DSLTOT43MNW","22","0","BASKET","15","6","1","1833","BASKET","15","2018-06-29 15:50:51","337091"
"A3KRI94KVF7TIC","cs_wg_full_v3_pilot2","3HRMW88U16R40DGKBF6FH9XBLBSM0L","23","0","PUMPKIN","15","6","0","2425","Pumpkin","15","2018-06-29 15:50:52","337092"
"A34N69O6CMW2S1","cs_wg_full_v3_pilot2","3L2IS5HSFAJQYHD0LNZZJVAI6Q6UNW","8","0","GARBAGE","7","6","0","5970","garbage","7","2018-06-29 15:50:52","337093"
"A3BMEBBDIHI6DU","cs_wg_full_v3_pilot2","3VHP9MDGRNLIOVJJ18VMHKF3XZDCFX","21","0","SUNBURN","6","6","0","3866","SUNBURN","6","2018-06-29 15:50:52","337094"
"A247EMWK0LVQGK","cs_wg_full_v3_pilot2","32XVDSJFPZYBWNJYQ2AT0XQQI9CM25","33","0","CRICKET","1","6","1","1413","cricket","1","2018-06-29 15:50:53","337095"
"ADHUJSKTI0UQA","cs_wg_full_v3_pilot2","33M4IA01QG23UJZNJZR3CMEW15CRX9","35","0","BANANA","7","6","0","1498","BANANA","7","2018-06-29 15:50:54","337096"
"AASWAMYQ9PXMQ","cs_wg_full_v3_pilot2","378XPAWRUCEE57OBI25GEM27DOKIAS","28","0","TURKEY","1","6","1","1848","turkey","1","2018-06-29 15:50:54","337097"
"A212P51360T72C","cs_wg_full_v3_pilot2","3XCC1ODXDLCJLMYBXLWBIEI342PRQC","34","0","MONKEY","15","6","0","1189","monkey","15","2018-06-29 15:50:55","337098"
"A30KKDFHZL9L4C","cs_wg_full_v3_pilot2","3AZHRG4CU4L3ER8A5X10LAO5LKC03K","35","0","RABBIT","5","6","0","2003","rabbit","5","2018-06-29 15:50:56","337099"
"A22QD6M0A2C77C","cs_wg_full_v3_pilot2","3ZDAD0O1T1EGAYCFNOWYC1FEPQ9XTS","1","0","BANQUET","6","6","0","2841","banquet","6","2018-06-29 15:50:58","337100"
"A119I25CPLHE7X","cs_wg_full_v3_pilot2","3MAOD8E57QBIFL7VQSAM329M08NXNR","29","0","TOMATO","7","6","0","1042","Tomato","7","2018-06-29 15:50:59","337101"
"A173E26N947Q7A","cs_wg_full_v3_pilot2","31EUONYN2V48TH2CRS9HU6C6A7KOVU","38","0","PALACE","7","6","0","3507","palace","7","2018-06-29 15:51:00","337102"
"A26XF8O4XRL8JA","cs_wg_full_v3_pilot2","3TXMY6UCAEPFFK9SFO6GTJJH41MCQR","33","0","MONKEY","1","6","1","1861","monkey","1","2018-06-29 15:51:01","337103"
"A247EMWK0LVQGK","cs_wg_full_v3_pilot2","32XVDSJFPZYBWNJYQ2AT0XQQI9CM25","34","0","PEBBLE","6","6","1","1345","pebble","6","2018-06-29 15:51:02","337104"
"A1DJ3IDWF923Y7","cs_wg_full_v3_pilot2","3HQUKB7LNFFTJZL5IQXNVWOWQ6VHH9","30","0","BANQUET","6","6","0","1829","banquet","6","2018-06-29 15:51:02","337105"
"ADHUJSKTI0UQA","cs_wg_full_v3_pilot2","33M4IA01QG23UJZNJZR3CMEW15CRX9","36","0","COWBOY","7","6","0","2314","COWBOY","7","2018-06-29 15:51:03","337106"
"A24ZAX5O63WVNI","cs_wg_full_v3_pilot2","3EJJQNKU9R668TZ8EV9H90Q2DFTRHG","24","0","AVOCADO","5","6","0","3031","AVOCADO","5","2018-06-29 15:51:04","337107"
"A1W48HYA27W9PA","cs_wg_full_v3_pilot2","3UWN2HHPUY6AJ4LWWI4Z4USULTLSNE","26","0","CRICKET","15","6","0","3578","cricket","15","2018-06-29 15:51:04","337108"
"A3HKQND0VGDM87","cs_wg_full_v3_pilot2","3U0SRXB7CD6YIPLJHT4UEKNYZR2RNP","32","0","BASKET","1","6","1","2237","basket","1","2018-06-29 15:51:04","337109"
"A212P51360T72C","cs_wg_full_v3_pilot2","3XCC1ODXDLCJLMYBXLWBIEI342PRQC","35","0","SMOKER","1","6","1","1496","smoker","1","2018-06-29 15:51:04","337110"
"A1ZGQC0J00M69W","cs_wg_full_v3_pilot2","3VBEN272MK049C4A9ER4EAJXKHZSG6","13","0","CANCER","7","6","1","4728","canver","7","2018-06-29 15:51:04","337111"
"AAICZ4OJOL83Y","cs_wg_full_v3_pilot2","33JKGHPFYCV7L98RCL8DSLTOT43MNW","23","0","LIQUID","6","6","1","1699","LIQUID","6","2018-06-29 15:51:05","337112"
"A30KKDFHZL9L4C","cs_wg_full_v3_pilot2","3AZHRG4CU4L3ER8A5X10LAO5LKC03K","36","0","COWBOY","7","6","0","1803","cowboy","7","2018-06-29 15:51:05","337113"
"A3BMEBBDIHI6DU","cs_wg_full_v3_pilot2","3VHP9MDGRNLIOVJJ18VMHKF3XZDCFX","22","0","CRICKET","1","6","1","2195","CRICKET","1","2018-06-29 15:51:05","337114"
"A3KRI94KVF7TIC","cs_wg_full_v3_pilot2","3HRMW88U16R40DGKBF6FH9XBLBSM0L","24","0","PELICAN","6","6","0","3248","Pelican","6","2018-06-29 15:51:06","337115"
"AASWAMYQ9PXMQ","cs_wg_full_v3_pilot2","378XPAWRUCEE57OBI25GEM27DOKIAS","29","0","SUNBURN","6","6","0","2079","sunburn","6","2018-06-29 15:51:06","337116"
"A22QD6M0A2C77C","cs_wg_full_v3_pilot2","3ZDAD0O1T1EGAYCFNOWYC1FEPQ9XTS","2","0","COWBOY","6","6","0","1827","cowboy","6","2018-06-29 15:51:09","337117"
"A119I25CPLHE7X","cs_wg_full_v3_pilot2","3MAOD8E57QBIFL7VQSAM329M08NXNR","30","0","AVOCADO","5","6","0","2672","Avocado","5","2018-06-29 15:51:09","337118"
"A173E26N947Q7A","cs_wg_full_v3_pilot2","31EUONYN2V48TH2CRS9HU6C6A7KOVU","39","0","PALACE","7","6","0","1358","palace","7","2018-06-29 15:51:10","337119"
"ASCL5Y4G5C7XY","cs_wg_full_v3_pilot2","3SNLUL3WO4O0AHAF9AJK636T1V6ULU","11","0","BLANKET","1","6","0","3506","Blanket","1","2018-06-29 15:51:11","337120"
"ADHUJSKTI0UQA","cs_wg_full_v3_pilot2","33M4IA01QG23UJZNJZR3CMEW15CRX9","37","0","BASKET","15","6","0","1618","BASKET","15","2018-06-29 15:51:12","337121"
"A247EMWK0LVQGK","cs_wg_full_v3_pilot2","32XVDSJFPZYBWNJYQ2AT0XQQI9CM25","35","0","COSTUME","6","6","1","1467","costume","6","2018-06-29 15:51:12","337122"
"A26XF8O4XRL8JA","cs_wg_full_v3_pilot2","3TXMY6UCAEPFFK9SFO6GTJJH41MCQR","34","0","TURKEY","15","6","0","1068","turkey","15","2018-06-29 15:51:13","337123"
"A1W48HYA27W9PA","cs_wg_full_v3_pilot2","3UWN2HHPUY6AJ4LWWI4Z4USULTLSNE","27","0","BAMBOO","5","6","1","2694","bamboo","5","2018-06-29 15:51:14","337124"
"A30KKDFHZL9L4C","cs_wg_full_v3_pilot2","3AZHRG4CU4L3ER8A5X10LAO5LKC03K","37","0","GRENADE","6","6","1","1961","grenade","6","2018-06-29 15:51:14","337125"
"A3HKQND0VGDM87","cs_wg_full_v3_pilot2","3U0SRXB7CD6YIPLJHT4UEKNYZR2RNP","33","0","ACROBAT","6","6","1","1780","acrobat","6","2018-06-29 15:51:16","337126"
"A3BMEBBDIHI6DU","cs_wg_full_v3_pilot2","3VHP9MDGRNLIOVJJ18VMHKF3XZDCFX","23","0","CRICKET","1","6","1","1753","CRICKET","1","2018-06-29 15:51:17","337127"
"A119I25CPLHE7X","cs_wg_full_v3_pilot2","3MAOD8E57QBIFL7VQSAM329M08NXNR","31","0","POTATO","7","6","0","930","Potato","7","2018-06-29 15:51:18","337128"
"A3KRI94KVF7TIC","cs_wg_full_v3_pilot2","3HRMW88U16R40DGKBF6FH9XBLBSM0L","25","0","CHICKEN","1","6","1","1955","Chicken","1","2018-06-29 15:51:18","337129"
"AAICZ4OJOL83Y","cs_wg_full_v3_pilot2","33JKGHPFYCV7L98RCL8DSLTOT43MNW","24","0","MONKEY","1","6","1","2015","MONKEY","1","2018-06-29 15:51:18","337130"
"AASWAMYQ9PXMQ","cs_wg_full_v3_pilot2","378XPAWRUCEE57OBI25GEM27DOKIAS","30","0","PICKLE","15","6","0","1601","pickle","15","2018-06-29 15:51:19","337131"
"ADHUJSKTI0UQA","cs_wg_full_v3_pilot2","33M4IA01QG23UJZNJZR3CMEW15CRX9","38","0","BANANA","7","6","0","1378","BANANA","7","2018-06-29 15:51:20","337132"
"A34N69O6CMW2S1","cs_wg_full_v3_pilot2","3L2IS5HSFAJQYHD0LNZZJVAI6Q6UNW","9","0","BLANKET","15","6","0","9182","blanket","15","2018-06-29 15:51:20","337133"
"A22QD6M0A2C77C","cs_wg_full_v3_pilot2","3ZDAD0O1T1EGAYCFNOWYC1FEPQ9XTS","3","0","BASKET","15","6","0","2688","basket","15","2018-06-29 15:51:21","337134"
"A24ZAX5O63WVNI","cs_wg_full_v3_pilot2","3EJJQNKU9R668TZ8EV9H90Q2DFTRHG","25","0","AVOCADO","5","6","1","3180","AVOCADO","5","2018-06-29 15:51:21","337135"
"A173E26N947Q7A","cs_wg_full_v3_pilot2","31EUONYN2V48TH2CRS9HU6C6A7KOVU","40","0","GARBAGE","5","6","1","1719","garbage","5","2018-06-29 15:51:21","337136"
"A1ZGQC0J00M69W","cs_wg_full_v3_pilot2","3VBEN272MK049C4A9ER4EAJXKHZSG6","14","0","CRICKET","1","6","1","1854","cricket","1","2018-06-29 15:51:23","337137"
"A30KKDFHZL9L4C","cs_wg_full_v3_pilot2","3AZHRG4CU4L3ER8A5X10LAO5LKC03K","38","0","PICKLE","1","6","1","3687","pickle","1","2018-06-29 15:51:24","337138"
"A1W48HYA27W9PA","cs_wg_full_v3_pilot2","3UWN2HHPUY6AJ4LWWI4Z4USULTLSNE","28","0","ISLAND","5","6","1","3171","island","5","2018-06-29 15:51:25","337139"
"A119I25CPLHE7X","cs_wg_full_v3_pilot2","3MAOD8E57QBIFL7VQSAM329M08NXNR","32","0","ISLAND","5","6","1","1466","Island","5","2018-06-29 15:51:26","337140"
"A26XF8O4XRL8JA","cs_wg_full_v3_pilot2","3TXMY6UCAEPFFK9SFO6GTJJH41MCQR","35","0","CANCER","6","6","1","1910","cancer","6","2018-06-29 15:51:27","337141"
"ADHUJSKTI0UQA","cs_wg_full_v3_pilot2","33M4IA01QG23UJZNJZR3CMEW15CRX9","39","0","ISLAND","5","6","0","2392","ISLAND","5","2018-06-29 15:51:28","337142"
"A3KRI94KVF7TIC","cs_wg_full_v3_pilot2","3HRMW88U16R40DGKBF6FH9XBLBSM0L","26","0","PELICAN","6","6","0","1823","Pelican","6","2018-06-29 15:51:29","337143"
"A3HKQND0VGDM87","cs_wg_full_v3_pilot2","3U0SRXB7CD6YIPLJHT4UEKNYZR2RNP","34","0","BANQUET","6","6","1","2713","banquet","6","2018-06-29 15:51:30","337144"
"A3BMEBBDIHI6DU","cs_wg_full_v3_pilot2","3VHP9MDGRNLIOVJJ18VMHKF3XZDCFX","24","0","SUNBURN","6","6","0","2847","SUNBURN","6","2018-06-29 15:51:30","337145"
"ASCL5Y4G5C7XY","cs_wg_full_v3_pilot2","3SNLUL3WO4O0AHAF9AJK636T1V6ULU","12","0","COSTUME","6","6","0","4389","Costume","6","2018-06-29 15:51:31","337146"
"AASWAMYQ9PXMQ","cs_wg_full_v3_pilot2","378XPAWRUCEE57OBI25GEM27DOKIAS","31","0","PICKLE","15","6","0","1791","pickle","15","2018-06-29 15:51:32","337147"
"AAICZ4OJOL83Y","cs_wg_full_v3_pilot2","33JKGHPFYCV7L98RCL8DSLTOT43MNW","25","0","MONKEY","1","6","1","2030","MONKEY","1","2018-06-29 15:51:33","337148"
"A22QD6M0A2C77C","cs_wg_full_v3_pilot2","3ZDAD0O1T1EGAYCFNOWYC1FEPQ9XTS","4","0","COWBOY","6","6","0","2188","cowboy","6","2018-06-29 15:51:33","337149"
"A30KKDFHZL9L4C","cs_wg_full_v3_pilot2","3AZHRG4CU4L3ER8A5X10LAO5LKC03K","39","0","LIQUID","6","6","0","2034","liquid","6","2018-06-29 15:51:34","337150"
"A173E26N947Q7A","cs_wg_full_v3_pilot2","31EUONYN2V48TH2CRS9HU6C6A7KOVU","41","0","ARCADE","6","6","0","4313","arcade","6","2018-06-29 15:51:34","337151"
"A1W48HYA27W9PA","cs_wg_full_v3_pilot2","3UWN2HHPUY6AJ4LWWI4Z4USULTLSNE","29","0","AIRBAG","5","6","1","2277","airbag","5","2018-06-29 15:51:34","337152"
"ADHUJSKTI0UQA","cs_wg_full_v3_pilot2","33M4IA01QG23UJZNJZR3CMEW15CRX9","40","0","RABBIT","5","6","0","1252","RABBIT","5","2018-06-29 15:51:35","337153"
"A119I25CPLHE7X","cs_wg_full_v3_pilot2","3MAOD8E57QBIFL7VQSAM329M08NXNR","33","0","AVOCADO","5","6","1","1237","Avocado","5","2018-06-29 15:51:35","337154"
"A24ZAX5O63WVNI","cs_wg_full_v3_pilot2","3EJJQNKU9R668TZ8EV9H90Q2DFTRHG","26","0","TOMATO","5","6","1","3744","TOMATO","5","2018-06-29 15:51:39","337155"
"A3KRI94KVF7TIC","cs_wg_full_v3_pilot2","3HRMW88U16R40DGKBF6FH9XBLBSM0L","27","0","CHICKEN","1","6","1","2027","Chicken","1","2018-06-29 15:51:41","337156"
"A3HKQND0VGDM87","cs_wg_full_v3_pilot2","3U0SRXB7CD6YIPLJHT4UEKNYZR2RNP","35","0","BASKET","1","6","1","2054","basket","1","2018-06-29 15:51:42","337157"
"A1ZGQC0J00M69W","cs_wg_full_v3_pilot2","3VBEN272MK049C4A9ER4EAJXKHZSG6","15","0","ARCADE","5","6","1","1717","arcade","5","2018-06-29 15:51:42","337158"
"A30KKDFHZL9L4C","cs_wg_full_v3_pilot2","3AZHRG4CU4L3ER8A5X10LAO5LKC03K","40","0","PEBBLE","5","6","1","1507","pebble","5","2018-06-29 15:51:42","337159"
"ADHUJSKTI0UQA","cs_wg_full_v3_pilot2","33M4IA01QG23UJZNJZR3CMEW15CRX9","41","0","AIRBAG","7","6","0","1260","AIRBAG","7","2018-06-29 15:51:42","337160"
"A3BMEBBDIHI6DU","cs_wg_full_v3_pilot2","3VHP9MDGRNLIOVJJ18VMHKF3XZDCFX","25","0","BAMBOO","6","6","0","2672","BAMBOO","6","2018-06-29 15:51:44","337161"
"AASWAMYQ9PXMQ","cs_wg_full_v3_pilot2","378XPAWRUCEE57OBI25GEM27DOKIAS","32","0","TURKEY","1","6","1","2689","turkey","1","2018-06-29 15:51:44","337162"
"A173E26N947Q7A","cs_wg_full_v3_pilot2","31EUONYN2V48TH2CRS9HU6C6A7KOVU","42","0","BAMBOO","5","6","1","1386","bamboo","5","2018-06-29 15:51:45","337163"
"A119I25CPLHE7X","cs_wg_full_v3_pilot2","3MAOD8E57QBIFL7VQSAM329M08NXNR","34","0","BAMBOO","7","6","0","1771","Bamboo","7","2018-06-29 15:51:45","337164"
"A1W48HYA27W9PA","cs_wg_full_v3_pilot2","3UWN2HHPUY6AJ4LWWI4Z4USULTLSNE","30","0","BAMBOO","5","6","1","3379","bamboo","5","2018-06-29 15:51:45","337165"
"ASCL5Y4G5C7XY","cs_wg_full_v3_pilot2","3SNLUL3WO4O0AHAF9AJK636T1V6ULU","13","0","GRENADE","6","6","0","3366","Grenade","6","2018-06-29 15:51:46","337166"
"AAICZ4OJOL83Y","cs_wg_full_v3_pilot2","33JKGHPFYCV7L98RCL8DSLTOT43MNW","26","0","LIQUID","6","6","1","2018","LIQUID","6","2018-06-29 15:51:47","337167"
"A34N69O6CMW2S1","cs_wg_full_v3_pilot2","3L2IS5HSFAJQYHD0LNZZJVAI6Q6UNW","10","0","LIZARD","5","6","1","12268","lizard","5","2018-06-29 15:51:48","337168"
"ADHUJSKTI0UQA","cs_wg_full_v3_pilot2","33M4IA01QG23UJZNJZR3CMEW15CRX9","42","0","COWBOY","7","6","0","2545","COWBOY","7","2018-06-29 15:51:50","337169"
"A30KKDFHZL9L4C","cs_wg_full_v3_pilot2","3AZHRG4CU4L3ER8A5X10LAO5LKC03K","41","0","BICYCLE","7","6","0","1475","bicycle","7","2018-06-29 15:51:51","337170"
"A22QD6M0A2C77C","cs_wg_full_v3_pilot2","3ZDAD0O1T1EGAYCFNOWYC1FEPQ9XTS","5","0","TURKEY","1","6","0","4238","turkey","1","2018-06-29 15:51:52","337171"
"A119I25CPLHE7X","cs_wg_full_v3_pilot2","3MAOD8E57QBIFL7VQSAM329M08NXNR","35","0","BLANKET","15","6","0","976","Blanket","15","2018-06-29 15:51:53","337172"
"A1DJ3IDWF923Y7","cs_wg_full_v3_pilot2","3HQUKB7LNFFTJZL5IQXNVWOWQ6VHH9","31","0","PUMPKIN","15","6","0","1832","pumpkin","15","2018-06-29 15:51:55","337173"
"A3KRI94KVF7TIC","cs_wg_full_v3_pilot2","3HRMW88U16R40DGKBF6FH9XBLBSM0L","28","0","PUMPKIN","15","6","0","1904","Pumpkin","15","2018-06-29 15:51:55","337174"
"AASWAMYQ9PXMQ","cs_wg_full_v3_pilot2","378XPAWRUCEE57OBI25GEM27DOKIAS","33","0","SUNBURN","6","6","0","1390","sunburn","6","2018-06-29 15:51:55","337175"
"A1W48HYA27W9PA","cs_wg_full_v3_pilot2","3UWN2HHPUY6AJ4LWWI4Z4USULTLSNE","31","0","AIRBAG","5","6","1","2352","airbag","5","2018-06-29 15:51:56","337176"
"A173E26N947Q7A","cs_wg_full_v3_pilot2","31EUONYN2V48TH2CRS9HU6C6A7KOVU","43","0","SQUARE","5","6","1","2697","square","5","2018-06-29 15:51:56","337177"
"A24ZAX5O63WVNI","cs_wg_full_v3_pilot2","3EJJQNKU9R668TZ8EV9H90Q2DFTRHG","27","0","PELICAN","7","6","0","4108","PELICAN","7","2018-06-29 15:51:57","337178"
"A3BMEBBDIHI6DU","cs_wg_full_v3_pilot2","3VHP9MDGRNLIOVJJ18VMHKF3XZDCFX","26","0","SUNBURN","6","6","0","3267","SUNBURN","6","2018-06-29 15:51:58","337179"
"A1ZGQC0J00M69W","cs_wg_full_v3_pilot2","3VBEN272MK049C4A9ER4EAJXKHZSG6","16","0","CANCER","7","6","0","3174","cancer ","7","2018-06-29 15:51:58","337180"
"ADHUJSKTI0UQA","cs_wg_full_v3_pilot2","33M4IA01QG23UJZNJZR3CMEW15CRX9","43","0","COWBOY","7","6","0","1205","COWBOY","7","2018-06-29 15:51:59","337181"
"A30KKDFHZL9L4C","cs_wg_full_v3_pilot2","3AZHRG4CU4L3ER8A5X10LAO5LKC03K","42","0","ARCADE","5","6","0","2370","arcade","5","2018-06-29 15:52:00","337182"
"A119I25CPLHE7X","cs_wg_full_v3_pilot2","3MAOD8E57QBIFL7VQSAM329M08NXNR","36","0","TOMATO","7","6","0","759","Tomato","7","2018-06-29 15:52:01","337183"
"AAICZ4OJOL83Y","cs_wg_full_v3_pilot2","33JKGHPFYCV7L98RCL8DSLTOT43MNW","27","0","BASKET","15","6","1","2284","BASKET","15","2018-06-29 15:52:02","337184"
"ASCL5Y4G5C7XY","cs_wg_full_v3_pilot2","3SNLUL3WO4O0AHAF9AJK636T1V6ULU","14","0","BUCKET","15","6","0","3145","Bucket","15","2018-06-29 15:52:03","337185"
"A22QD6M0A2C77C","cs_wg_full_v3_pilot2","3ZDAD0O1T1EGAYCFNOWYC1FEPQ9XTS","6","0","TURKEY","1","6","1","3004","turkey","1","2018-06-29 15:52:04","337186"
"ADHUJSKTI0UQA","cs_wg_full_v3_pilot2","33M4IA01QG23UJZNJZR3CMEW15CRX9","44","0","BASKET","15","6","0","1392","BASKET","15","2018-06-29 15:52:06","337187"
"A1DJ3IDWF923Y7","cs_wg_full_v3_pilot2","3HQUKB7LNFFTJZL5IQXNVWOWQ6VHH9","32","0","GARBAGE","6","6","0","1775","garbage","6","2018-06-29 15:52:06","337188"
"AASWAMYQ9PXMQ","cs_wg_full_v3_pilot2","378XPAWRUCEE57OBI25GEM27DOKIAS","34","0","TURKEY","1","6","1","2075","turkey","1","2018-06-29 15:52:06","337189"
"A30KKDFHZL9L4C","cs_wg_full_v3_pilot2","3AZHRG4CU4L3ER8A5X10LAO5LKC03K","43","0","GRENADE","6","6","1","1331","grenade","6","2018-06-29 15:52:07","337190"
"A3KRI94KVF7TIC","cs_wg_full_v3_pilot2","3HRMW88U16R40DGKBF6FH9XBLBSM0L","29","0","PENGUIN","6","6","0","3828","Penguin","6","2018-06-29 15:52:09","337191"
"A3BMEBBDIHI6DU","cs_wg_full_v3_pilot2","3VHP9MDGRNLIOVJJ18VMHKF3XZDCFX","27","0","CRICKET","1","6","1","1576","CRICKET","1","2018-06-29 15:52:09","337192"
"A1W48HYA27W9PA","cs_wg_full_v3_pilot2","3UWN2HHPUY6AJ4LWWI4Z4USULTLSNE","32","0","BAMBOO","5","6","1","5718","bamboo","5","2018-06-29 15:52:10","337193"
"A119I25CPLHE7X","cs_wg_full_v3_pilot2","3MAOD8E57QBIFL7VQSAM329M08NXNR","37","0","POTATO","7","6","0","1170","Potato","7","2018-06-29 15:52:10","337194"
"A173E26N947Q7A","cs_wg_full_v3_pilot2","31EUONYN2V48TH2CRS9HU6C6A7KOVU","44","0","BICYCLE","7","6","0","2049","bicycle","7","2018-06-29 15:52:11","337195"
"A1ZGQC0J00M69W","cs_wg_full_v3_pilot2","3VBEN272MK049C4A9ER4EAJXKHZSG6","17","0","PEBBLE","6","6","1","3560","pebble","6","2018-06-29 15:52:12","337196"
"A24ZAX5O63WVNI","cs_wg_full_v3_pilot2","3EJJQNKU9R668TZ8EV9H90Q2DFTRHG","28","0","JACKET","15","6","0","2331","JACKET","15","2018-06-29 15:52:12","337197"
"ADHUJSKTI0UQA","cs_wg_full_v3_pilot2","33M4IA01QG23UJZNJZR3CMEW15CRX9","45","0","RABBIT","5","6","0","1594","RABBIT","5","2018-06-29 15:52:13","337198"
"A22QD6M0A2C77C","cs_wg_full_v3_pilot2","3ZDAD0O1T1EGAYCFNOWYC1FEPQ9XTS","7","0","TURKEY","1","6","1","2163","turkey","1","2018-06-29 15:52:15","337199"
"AAICZ4OJOL83Y","cs_wg_full_v3_pilot2","33JKGHPFYCV7L98RCL8DSLTOT43MNW","28","0","COWBOY","6","6","1","1914","COWBOY","6","2018-06-29 15:52:16","337200"
"A30KKDFHZL9L4C","cs_wg_full_v3_pilot2","3AZHRG4CU4L3ER8A5X10LAO5LKC03K","44","0","BICYCLE","7","6","0","1346","bicycle","7","2018-06-29 15:52:17","337201"
"AASWAMYQ9PXMQ","cs_wg_full_v3_pilot2","378XPAWRUCEE57OBI25GEM27DOKIAS","35","0","COMPANY","6","6","0","1542","company","6","2018-06-29 15:52:17","337202"
"A1DJ3IDWF923Y7","cs_wg_full_v3_pilot2","3HQUKB7LNFFTJZL5IQXNVWOWQ6VHH9","33","0","PUMPKIN","15","6","0","2334","pumpkin","15","2018-06-29 15:52:18","337203"
"ASCL5Y4G5C7XY","cs_wg_full_v3_pilot2","3SNLUL3WO4O0AHAF9AJK636T1V6ULU","15","0","BLANKET","1","6","1","3094","Blanket","1","2018-06-29 15:52:19","337204"
"A1W48HYA27W9PA","cs_wg_full_v3_pilot2","3UWN2HHPUY6AJ4LWWI4Z4USULTLSNE","33","0","VOLCANO","7","6","0","2559","volcano","7","2018-06-29 15:52:20","337205"
"A119I25CPLHE7X","cs_wg_full_v3_pilot2","3MAOD8E57QBIFL7VQSAM329M08NXNR","38","0","BAMBOO","7","6","0","996","Bamboo","7","2018-06-29 15:52:20","337206"
"ADHUJSKTI0UQA","cs_wg_full_v3_pilot2","33M4IA01QG23UJZNJZR3CMEW15CRX9","46","0","GARBAGE","7","6","0","1160","GARBAGE","7","2018-06-29 15:52:21","337207"
"A34N69O6CMW2S1","cs_wg_full_v3_pilot2","3L2IS5HSFAJQYHD0LNZZJVAI6Q6UNW","11","0","VOLCANO","5","6","1","12967","volcano","5","2018-06-29 15:52:22","337208"
"A3BMEBBDIHI6DU","cs_wg_full_v3_pilot2","3VHP9MDGRNLIOVJJ18VMHKF3XZDCFX","28","0","SUNBURN","6","6","0","2078","SUNBURN","6","2018-06-29 15:52:22","337209"
"A173E26N947Q7A","cs_wg_full_v3_pilot2","31EUONYN2V48TH2CRS9HU6C6A7KOVU","45","0","COWBOY","5","6","0","1496","cowboy","5","2018-06-29 15:52:23","337210"
"A3KRI94KVF7TIC","cs_wg_full_v3_pilot2","3HRMW88U16R40DGKBF6FH9XBLBSM0L","30","0","PUMPKIN","15","6","0","2028","Pumpkin","15","2018-06-29 15:52:23","337211"
"A30KKDFHZL9L4C","cs_wg_full_v3_pilot2","3AZHRG4CU4L3ER8A5X10LAO5LKC03K","45","0","PALACE","7","6","0","2838","palace","7","2018-06-29 15:52:26","337212"
"A1ZGQC0J00M69W","cs_wg_full_v3_pilot2","3VBEN272MK049C4A9ER4EAJXKHZSG6","18","0","ARCADE","5","6","1","4628","arcade","5","2018-06-29 15:52:26","337213"
"A22QD6M0A2C77C","cs_wg_full_v3_pilot2","3ZDAD0O1T1EGAYCFNOWYC1FEPQ9XTS","8","0","COWBOY","6","6","0","2904","cowboy","6","2018-06-29 15:52:27","337214"
"A24ZAX5O63WVNI","cs_wg_full_v3_pilot2","3EJJQNKU9R668TZ8EV9H90Q2DFTRHG","29","0","CHICKEN","1","6","1","3080","CHICKEN","1","2018-06-29 15:52:28","337215"
"A119I25CPLHE7X","cs_wg_full_v3_pilot2","3MAOD8E57QBIFL7VQSAM329M08NXNR","39","0","BLANKET","15","6","0","993","Blanket","15","2018-06-29 15:52:29","337216"
"ADHUJSKTI0UQA","cs_wg_full_v3_pilot2","33M4IA01QG23UJZNJZR3CMEW15CRX9","47","0","BASKET","15","6","0","1111","BASKET","15","2018-06-29 15:52:30","337217"
"AAICZ4OJOL83Y","cs_wg_full_v3_pilot2","33JKGHPFYCV7L98RCL8DSLTOT43MNW","29","0","MONKEY","1","6","1","1900","MONKEY","1","2018-06-29 15:52:30","337218"
