"subject","version","assignmentId","trial","trial_type","word","value","alt","choice","rt","resp","resp2","stamp","id"
"A2RK260P2QPKV4","cs_wg_full_v3_pilot1","3TESA3PJ31B13RNR0KTDF64OO8KMMB","0","0","VOLCANO","6","6","0","3879","volcano","6","2018-06-28 20:05:06","335343"
"A2RK260P2QPKV4","cs_wg_full_v3_pilot1","3TESA3PJ31B13RNR0KTDF64OO8KMMB","1","0","VOLCANO","6","6","0","3562","volcano","6","2018-06-28 20:05:19","335346"
"A2RK260P2QPKV4","cs_wg_full_v3_pilot1","3TESA3PJ31B13RNR0KTDF64OO8KMMB","2","0","JACKET","15","6","0","4822","jacket","15","2018-06-28 20:05:32","335348"
"A2RK260P2QPKV4","cs_wg_full_v3_pilot1","3TESA3PJ31B13RNR0KTDF64OO8KMMB","3","0","BLANKET","1","6","0","2698","blanket","1","2018-06-28 20:05:43","335350"
"A2RK260P2QPKV4","cs_wg_full_v3_pilot1","3TESA3PJ31B13RNR0KTDF64OO8KMMB","4","0","PICTURE","6","6","0","4619","picture","6","2018-06-28 20:05:58","335351"
"A2RK260P2QPKV4","cs_wg_full_v3_pilot1","3TESA3PJ31B13RNR0KTDF64OO8KMMB","5","0","BLANKET","1","6","1","2762","blanket","1","2018-06-28 20:06:10","335352"
"A5J0OW727ZCWY","cs_wg_full_v3_pilot1","32EYX73OY0ABDF5SEUGGSFFS7HMRUW","0","0","AVOCADO","7","6","0","5097","avacado","7","2018-06-28 20:06:18","335353"
"A2RK260P2QPKV4","cs_wg_full_v3_pilot1","3TESA3PJ31B13RNR0KTDF64OO8KMMB","6","0","PICTURE","6","6","1","3673","picture","6","2018-06-28 20:06:23","335354"
"A2RK260P2QPKV4","cs_wg_full_v3_pilot1","3TESA3PJ31B13RNR0KTDF64OO8KMMB","7","0","BLANKET","1","6","1","2346","blanket","1","2018-06-28 20:06:34","335355"
"A5J0OW727ZCWY","cs_wg_full_v3_pilot1","32EYX73OY0ABDF5SEUGGSFFS7HMRUW","1","0","TOMATO","5","6","0","2667","tomato","5","2018-06-28 20:06:38","335356"
"A2RK260P2QPKV4","cs_wg_full_v3_pilot1","3TESA3PJ31B13RNR0KTDF64OO8KMMB","8","0","VOLCANO","6","6","0","3632","volcano","6","2018-06-28 20:06:46","335357"
"A5J0OW727ZCWY","cs_wg_full_v3_pilot1","32EYX73OY0ABDF5SEUGGSFFS7HMRUW","2","0","COSTUME","6","6","0","3528","costume","6","2018-06-28 20:06:56","335358"
"A5J0OW727ZCWY","cs_wg_full_v3_pilot1","32EYX73OY0ABDF5SEUGGSFFS7HMRUW","3","0","LIZARD","5","6","0","3603","lizard","5
","2018-06-28 20:07:15","335359"
"A5J0OW727ZCWY","cs_wg_full_v3_pilot1","32EYX73OY0ABDF5SEUGGSFFS7HMRUW","4","0","TOMATO","5","6","1","4233","tomato","5","2018-06-28 20:07:36","335360"
"A2RK260P2QPKV4","cs_wg_full_v3_pilot1","3TESA3PJ31B13RNR0KTDF64OO8KMMB","9","0","VOLCANO","6","6","0","52388","volcano","6","2018-06-28 20:07:49","335361"
"AY0758IITCGOZ","cs_wg_full_v3_pilot1","36W0OB37HWFFAKLZOC3UV3S1MQ5HZG","0","0","BANANA","7","6","0","5593","banana ","7","2018-06-28 20:07:49","335362"
"A376VDKE75VP04","cs_wg_full_v3_pilot1","3ATTHHXXWAPQ1KW4TCXUYUD5E3KXIQ","0","0","CRICKET","15","6","1","10650","CRICKET","15","2018-06-28 20:07:52","335363"
"A5J0OW727ZCWY","cs_wg_full_v3_pilot1","32EYX73OY0ABDF5SEUGGSFFS7HMRUW","5","0","AVOCADO","7","6","0","3576","avacado","7","2018-06-28 20:07:52","335364"
"A32P9ZPLKA3K7Z","cs_wg_full_v3_pilot1","374TNBHA8BWSINAXBGO5QAB07JWYQ1","0","0","BANQUET","6","6","0","3950","BANQUET","6","2018-06-28 20:07:52","335365"
"A2RK260P2QPKV4","cs_wg_full_v3_pilot1","3TESA3PJ31B13RNR0KTDF64OO8KMMB","10","0","BLANKET","1","6","1","2168","blanket","1","2018-06-28 20:07:59","335366"
"A32P9ZPLKA3K7Z","cs_wg_full_v3_pilot1","374TNBHA8BWSINAXBGO5QAB07JWYQ1","1","0","TURKEY","1","6","0","1990","TURKEY","1","2018-06-28 20:08:05","335367"
"A2RK260P2QPKV4","cs_wg_full_v3_pilot1","3TESA3PJ31B13RNR0KTDF64OO8KMMB","11","0","BLANKET","1","6","1","2934","blanket","1","2018-06-28 20:08:10","335368"
"A5J0OW727ZCWY","cs_wg_full_v3_pilot1","32EYX73OY0ABDF5SEUGGSFFS7HMRUW","6","0","BICYCLE","7","6","0","3220","bicycle ","7","2018-06-28 20:08:11","335369"
"AGC3T6724JUAF","cs_wg_full_v3_pilot1","36U2A8VAG1067KC2YB48UOZR8D3KYU","0","0","PEBBLE","6","6","0","7132","PEPPLE","6","2018-06-28 20:08:15","335370"
"A32P9ZPLKA3K7Z","cs_wg_full_v3_pilot1","374TNBHA8BWSINAXBGO5QAB07JWYQ1","2","0","GARBAGE","6","6","0","1832","GARBAGE","6","2018-06-28 20:08:16","335371"
"A376VDKE75VP04","cs_wg_full_v3_pilot1","3ATTHHXXWAPQ1KW4TCXUYUD5E3KXIQ","1","0","GRENADE","7","6","1","8059","GRENADE","7","2018-06-28 20:08:17","335372"
"AY0758IITCGOZ","cs_wg_full_v3_pilot1","36W0OB37HWFFAKLZOC3UV3S1MQ5HZG","1","0","BANANA","7","6","0","10782","banana","7","2018-06-28 20:08:20","335373"
"A2RK260P2QPKV4","cs_wg_full_v3_pilot1","3TESA3PJ31B13RNR0KTDF64OO8KMMB","12","0","VOLCANO","6","6","1","2618","volcano","6","2018-06-28 20:08:22","335374"
"A5J0OW727ZCWY","cs_wg_full_v3_pilot1","32EYX73OY0ABDF5SEUGGSFFS7HMRUW","7","0","PICKLE","1","6","0","2044","pickle","1","2018-06-28 20:08:26","335375"
"AGC3T6724JUAF","cs_wg_full_v3_pilot1","36U2A8VAG1067KC2YB48UOZR8D3KYU","1","0","SPATULA","6","6","0","4021","SPATULA","6","2018-06-28 20:08:30","335376"
"A32P9ZPLKA3K7Z","cs_wg_full_v3_pilot1","374TNBHA8BWSINAXBGO5QAB07JWYQ1","3","0","TURKEY","1","6","1","2626","TURKEY","1","2018-06-28 20:08:33","335377"
"A2RK260P2QPKV4","cs_wg_full_v3_pilot1","3TESA3PJ31B13RNR0KTDF64OO8KMMB","13","0","JACKET","15","6","0","3124","jacket","15","2018-06-28 20:08:36","335378"
"A376VDKE75VP04","cs_wg_full_v3_pilot1","3ATTHHXXWAPQ1KW4TCXUYUD5E3KXIQ","2","0","WIZARD","5","6","0","7835","WIZARD","5","2018-06-28 20:08:41","335379"
"AGC3T6724JUAF","cs_wg_full_v3_pilot1","36U2A8VAG1067KC2YB48UOZR8D3KYU","2","0","BLANKET","15","6","0","2324","BLANKET","15","2018-06-28 20:08:43","335380"
"A32P9ZPLKA3K7Z","cs_wg_full_v3_pilot1","374TNBHA8BWSINAXBGO5QAB07JWYQ1","4","0","GARBAGE","6","6","0","3159","GARBAGE","6","2018-06-28 20:08:43","335381"
"AY0758IITCGOZ","cs_wg_full_v3_pilot1","36W0OB37HWFFAKLZOC3UV3S1MQ5HZG","2","0","BANANA","7","6","0","2994","banana","7","2018-06-28 20:08:44","335382"
"A2RK260P2QPKV4","cs_wg_full_v3_pilot1","3TESA3PJ31B13RNR0KTDF64OO8KMMB","14","0","VOLCANO","6","6","1","3182","volcano","6","2018-06-28 20:08:49","335383"
"A32P9ZPLKA3K7Z","cs_wg_full_v3_pilot1","374TNBHA8BWSINAXBGO5QAB07JWYQ1","5","0","PUMPKIN","15","6","0","1874","PUMPKIN","15","2018-06-28 20:08:56","335384"
"A376VDKE75VP04","cs_wg_full_v3_pilot1","3ATTHHXXWAPQ1KW4TCXUYUD5E3KXIQ","3","0","BANQUET","6","6","0","4103","BANQUET","6","2018-06-28 20:08:57","335385"
"A5J0OW727ZCWY","cs_wg_full_v3_pilot1","32EYX73OY0ABDF5SEUGGSFFS7HMRUW","8","0","BICYCLE","7","6","1","4603","bicycle","7","2018-06-28 20:08:58","335386"
"AGC3T6724JUAF","cs_wg_full_v3_pilot1","36U2A8VAG1067KC2YB48UOZR8D3KYU","3","0","SPATULA","6","6","0","2431","SPATULA","6","2018-06-28 20:08:59","335387"
"A2RK260P2QPKV4","cs_wg_full_v3_pilot1","3TESA3PJ31B13RNR0KTDF64OO8KMMB","15","0","JACKET","15","6","0","2699","jacket","15","2018-06-28 20:09:02","335388"
"A32P9ZPLKA3K7Z","cs_wg_full_v3_pilot1","374TNBHA8BWSINAXBGO5QAB07JWYQ1","6","0","GARBAGE","6","6","0","1287","GARBAGE","6","2018-06-28 20:09:06","335389"
"A376VDKE75VP04","cs_wg_full_v3_pilot1","3ATTHHXXWAPQ1KW4TCXUYUD5E3KXIQ","4","0","BANANA","7","6","0","3231","BANANA","7","2018-06-28 20:09:10","335390"
"AGC3T6724JUAF","cs_wg_full_v3_pilot1","36U2A8VAG1067KC2YB48UOZR8D3KYU","4","0","PEBBLE","6","6","0","2365","PEPPLE","6","2018-06-28 20:09:11","335391"
"AY0758IITCGOZ","cs_wg_full_v3_pilot1","36W0OB37HWFFAKLZOC3UV3S1MQ5HZG","3","0","PELICAN","5","6","1","13220","PELICAN","5","2018-06-28 20:09:14","335392"
"A32P9ZPLKA3K7Z","cs_wg_full_v3_pilot1","374TNBHA8BWSINAXBGO5QAB07JWYQ1","7","0","TURKEY","1","6","1","2507","TURKEY","1","2018-06-28 20:09:17","335393"
"A5J0OW727ZCWY","cs_wg_full_v3_pilot1","32EYX73OY0ABDF5SEUGGSFFS7HMRUW","9","0","TOMATO","5","6","1","4412","tomato","5","2018-06-28 20:09:19","335394"
"A2RK260P2QPKV4","cs_wg_full_v3_pilot1","3TESA3PJ31B13RNR0KTDF64OO8KMMB","16","0","BLANKET","1","6","1","2717","blanket","1","2018-06-28 20:09:19","335395"
"AGC3T6724JUAF","cs_wg_full_v3_pilot1","36U2A8VAG1067KC2YB48UOZR8D3KYU","5","0","BASKET","1","6","0","2000","BASKET","1","2018-06-28 20:09:24","335396"
"A32P9ZPLKA3K7Z","cs_wg_full_v3_pilot1","374TNBHA8BWSINAXBGO5QAB07JWYQ1","8","0","BANQUET","6","6","0","1662","BANQUET","6","2018-06-28 20:09:26","335397"
"A376VDKE75VP04","cs_wg_full_v3_pilot1","3ATTHHXXWAPQ1KW4TCXUYUD5E3KXIQ","5","0","ACROBAT","5","6","0","8332","ACROBAT","5","2018-06-28 20:09:29","335398"
"A2RK260P2QPKV4","cs_wg_full_v3_pilot1","3TESA3PJ31B13RNR0KTDF64OO8KMMB","17","0","VOLCANO","6","6","0","4825","volcano","6","2018-06-28 20:09:34","335399"
"A32P9ZPLKA3K7Z","cs_wg_full_v3_pilot1","374TNBHA8BWSINAXBGO5QAB07JWYQ1","9","0","TURKEY","1","6","1","1640","TURKEY","1","2018-06-28 20:09:36","335400"
"AY0758IITCGOZ","cs_wg_full_v3_pilot1","36W0OB37HWFFAKLZOC3UV3S1MQ5HZG","4","0","SUNBURN","6","6","0","9732","SUNBURN","6","2018-06-28 20:09:39","335401"
"AGC3T6724JUAF","cs_wg_full_v3_pilot1","36U2A8VAG1067KC2YB48UOZR8D3KYU","6","0","BASKET","1","6","1","3175","BASKET","1","2018-06-28 20:09:40","335402"
"A5J0OW727ZCWY","cs_wg_full_v3_pilot1","32EYX73OY0ABDF5SEUGGSFFS7HMRUW","10","0","CHICKEN","15","6","0","2114","chicken ","15","2018-06-28 20:09:43","335403"
"A376VDKE75VP04","cs_wg_full_v3_pilot1","3ATTHHXXWAPQ1KW4TCXUYUD5E3KXIQ","6","0","CRICKET","15","6","0","3800","CRICKET","15","2018-06-28 20:09:43","335404"
"A2RK260P2QPKV4","cs_wg_full_v3_pilot1","3TESA3PJ31B13RNR0KTDF64OO8KMMB","18","0","JACKET","15","6","0","2000","jacket","15","2018-06-28 20:09:45","335406"
"A32P9ZPLKA3K7Z","cs_wg_full_v3_pilot1","374TNBHA8BWSINAXBGO5QAB07JWYQ1","10","0","PUMPKIN","15","6","0","2233","PUMPKIN","15","2018-06-28 20:09:48","335407"
"AGC3T6724JUAF","cs_wg_full_v3_pilot1","36U2A8VAG1067KC2YB48UOZR8D3KYU","7","0","BASKET","1","6","1","4042","BASKET","1","2018-06-28 20:09:53","335409"
"A2RK260P2QPKV4","cs_wg_full_v3_pilot1","3TESA3PJ31B13RNR0KTDF64OO8KMMB","19","0","JACKET","15","6","0","3347","jacket","15","2018-06-28 20:09:56","335410"
"A5J0OW727ZCWY","cs_wg_full_v3_pilot1","32EYX73OY0ABDF5SEUGGSFFS7HMRUW","11","0","RABBIT","5","6","0","1880","rabbit","5","2018-06-28 20:09:56","335411"
"AY0758IITCGOZ","cs_wg_full_v3_pilot1","36W0OB37HWFFAKLZOC3UV3S1MQ5HZG","5","0","VOLCANO","7","6","0","7255","VOLCANO","7","2018-06-28 20:09:57","335412"
"A32P9ZPLKA3K7Z","cs_wg_full_v3_pilot1","374TNBHA8BWSINAXBGO5QAB07JWYQ1","11","0","PUMPKIN","15","6","0","1689","PUMPKIN","15","2018-06-28 20:09:57","335413"
"A376VDKE75VP04","cs_wg_full_v3_pilot1","3ATTHHXXWAPQ1KW4TCXUYUD5E3KXIQ","7","0","BANQUET","6","6","0","6740","BANQUET","6","2018-06-28 20:10:00","335414"
"A2RK260P2QPKV4","cs_wg_full_v3_pilot1","3TESA3PJ31B13RNR0KTDF64OO8KMMB","20","0","BLANKET","1","6","1","1884","blanket","1","2018-06-28 20:10:07","335416"
"A32P9ZPLKA3K7Z","cs_wg_full_v3_pilot1","374TNBHA8BWSINAXBGO5QAB07JWYQ1","12","0","TURKEY","1","6","1","2439","TURKEY","1","2018-06-28 20:10:08","335417"
"AGC3T6724JUAF","cs_wg_full_v3_pilot1","36U2A8VAG1067KC2YB48UOZR8D3KYU","8","0","BLANKET","15","6","0","2145","BLANKET","15","2018-06-28 20:10:14","335418"
"A376VDKE75VP04","cs_wg_full_v3_pilot1","3ATTHHXXWAPQ1KW4TCXUYUD5E3KXIQ","8","0","WIZARD","7","6","1","4840","WIZARD","7","2018-06-28 20:10:16","335419"
"A32P9ZPLKA3K7Z","cs_wg_full_v3_pilot1","374TNBHA8BWSINAXBGO5QAB07JWYQ1","13","0","TURKEY","1","6","1","1353","TURKEY","1","2018-06-28 20:10:16","335420"
"A2RK260P2QPKV4","cs_wg_full_v3_pilot1","3TESA3PJ31B13RNR0KTDF64OO8KMMB","21","0","BLANKET","1","6","1","2516","blanket","1","2018-06-28 20:10:17","335421"
"A5J0OW727ZCWY","cs_wg_full_v3_pilot1","32EYX73OY0ABDF5SEUGGSFFS7HMRUW","12","0","GARBAGE","5","6","1","8487","garbage","5","2018-06-28 20:10:19","335422"
"A32P9ZPLKA3K7Z","cs_wg_full_v3_pilot1","374TNBHA8BWSINAXBGO5QAB07JWYQ1","14","0","TURKEY","1","6","1","1384","TURKEY","1","2018-06-28 20:10:27","335424"
"A2RK260P2QPKV4","cs_wg_full_v3_pilot1","3TESA3PJ31B13RNR0KTDF64OO8KMMB","22","0","BLANKET","1","6","1","3944","blanket","1","2018-06-28 20:10:28","335426"
"A32P9ZPLKA3K7Z","cs_wg_full_v3_pilot1","374TNBHA8BWSINAXBGO5QAB07JWYQ1","15","0","GARBAGE","6","6","0","1183","GARBAGE","6","2018-06-28 20:10:36","335428"
"A376VDKE75VP04","cs_wg_full_v3_pilot1","3ATTHHXXWAPQ1KW4TCXUYUD5E3KXIQ","9","0","CRICKET","15","6","0","3211","CRICKET","15","2018-06-28 20:10:36","335429"
"AY0758IITCGOZ","cs_wg_full_v3_pilot1","36W0OB37HWFFAKLZOC3UV3S1MQ5HZG","6","0","SMOKER","1","6","0","10905","SMOKER

SMOKER

smoker","1","2018-06-28 20:10:36","335430"
"A2RK260P2QPKV4","cs_wg_full_v3_pilot1","3TESA3PJ31B13RNR0KTDF64OO8KMMB","23","0","BLANKET","1","6","1","1787","blanket","1","2018-06-28 20:10:38","335431"
"ANUG05IDFTWF","cs_wg_full_v3_pilot1","3KAKFY4PGU3ELMPQ9NQ6REO178M3IZ","0","0","MONKEY","1","6","0","4652","MONKEY","1","2018-06-28 20:10:42","335433"
"A5J0OW727ZCWY","cs_wg_full_v3_pilot1","32EYX73OY0ABDF5SEUGGSFFS7HMRUW","13","0","LIZARD","5","6","0","11333","lizard","5","2018-06-28 20:10:44","335434"
"A32P9ZPLKA3K7Z","cs_wg_full_v3_pilot1","374TNBHA8BWSINAXBGO5QAB07JWYQ1","16","0","PUMPKIN","15","6","0","1317","PUMPKIN","15","2018-06-28 20:10:46","335435"
"A2RK260P2QPKV4","cs_wg_full_v3_pilot1","3TESA3PJ31B13RNR0KTDF64OO8KMMB","24","0","VOLCANO","6","6","1","2134","volcano","6","2018-06-28 20:10:48","335436"
"A376VDKE75VP04","cs_wg_full_v3_pilot1","3ATTHHXXWAPQ1KW4TCXUYUD5E3KXIQ","10","0","SMOKER","1","6","0","2922","SMOKER","1","2018-06-28 20:10:52","335438"
"A32P9ZPLKA3K7Z","cs_wg_full_v3_pilot1","374TNBHA8BWSINAXBGO5QAB07JWYQ1","17","0","GARBAGE","6","6","0","1128","GARBAGE","6","2018-06-28 20:10:57","335439"
"AY0758IITCGOZ","cs_wg_full_v3_pilot1","36W0OB37HWFFAKLZOC3UV3S1MQ5HZG","7","0","PELICAN","5","6","1","8723","PELICAN","5","2018-06-28 20:10:57","335440"
"A5J0OW727ZCWY","cs_wg_full_v3_pilot1","32EYX73OY0ABDF5SEUGGSFFS7HMRUW","14","0","CHICKEN","15","6","0","5601","chicken","15","2018-06-28 20:11:01","335442"
"A2RK260P2QPKV4","cs_wg_full_v3_pilot1","3TESA3PJ31B13RNR0KTDF64OO8KMMB","25","0","PICTURE","6","6","1","5591","picture","6","2018-06-28 20:11:02","335443"
"ANUG05IDFTWF","cs_wg_full_v3_pilot1","3KAKFY4PGU3ELMPQ9NQ6REO178M3IZ","1","0","MONKEY","1","6","1","3360","MONKEY","1","2018-06-28 20:11:02","335444"
"A32P9ZPLKA3K7Z","cs_wg_full_v3_pilot1","374TNBHA8BWSINAXBGO5QAB07JWYQ1","18","0","BANQUET","6","6","1","1919","BANQUET","6","2018-06-28 20:11:05","335445"
"A376VDKE75VP04","cs_wg_full_v3_pilot1","3ATTHHXXWAPQ1KW4TCXUYUD5E3KXIQ","11","0","ARCADE","6","6","0","3747","ARCADE","6","2018-06-28 20:11:06","335446"
"A2RK260P2QPKV4","cs_wg_full_v3_pilot1","3TESA3PJ31B13RNR0KTDF64OO8KMMB","26","0","PICTURE","6","6","1","1459","picture","6","2018-06-28 20:11:11","335448"
"A32P9ZPLKA3K7Z","cs_wg_full_v3_pilot1","374TNBHA8BWSINAXBGO5QAB07JWYQ1","19","0","BANQUET","6","6","0","1838","BANQUET","6","2018-06-28 20:11:14","335449"
"AGC3T6724JUAF","cs_wg_full_v3_pilot1","36U2A8VAG1067KC2YB48UOZR8D3KYU","9","0","BLANKET","15","6","0","1854","BLANKET","15","2018-06-28 20:11:15","335450"
"AY0758IITCGOZ","cs_wg_full_v3_pilot1","36W0OB37HWFFAKLZOC3UV3S1MQ5HZG","8","0","GARBAGE","5","6","1","7312","GARBAGE","5","2018-06-28 20:11:16","335451"
"ANUG05IDFTWF","cs_wg_full_v3_pilot1","3KAKFY4PGU3ELMPQ9NQ6REO178M3IZ","2","0","SUNBURN","6","6","0","8504","SUNBURN","6","2018-06-28 20:11:21","335453"
"A376VDKE75VP04","cs_wg_full_v3_pilot1","3ATTHHXXWAPQ1KW4TCXUYUD5E3KXIQ","12","0","BAMBOO","5","6","0","3196","BAMBOO","5","2018-06-28 20:11:21","335454"
"A2RK260P2QPKV4","cs_wg_full_v3_pilot1","3TESA3PJ31B13RNR0KTDF64OO8KMMB","27","0","VOLCANO","6","6","0","2057","volcano","6","2018-06-28 20:11:21","335455"
"A32P9ZPLKA3K7Z","cs_wg_full_v3_pilot1","374TNBHA8BWSINAXBGO5QAB07JWYQ1","20","0","PUMPKIN","15","6","0","1096","PUMPKIN","15","2018-06-28 20:11:22","335456"
"A5J0OW727ZCWY","cs_wg_full_v3_pilot1","32EYX73OY0ABDF5SEUGGSFFS7HMRUW","15","0","PICKLE","1","6","1","8354","pickle","1","2018-06-28 20:11:24","335457"
"AGC3T6724JUAF","cs_wg_full_v3_pilot1","36U2A8VAG1067KC2YB48UOZR8D3KYU","10","0","SPATULA","6","6","1","3859","SPATULA","6","2018-06-28 20:11:28","335458"
"A32P9ZPLKA3K7Z","cs_wg_full_v3_pilot1","374TNBHA8BWSINAXBGO5QAB07JWYQ1","21","0","PUMPKIN","15","6","0","1037","PUMPKIN","15","2018-06-28 20:11:31","335460"
"A376VDKE75VP04","cs_wg_full_v3_pilot1","3ATTHHXXWAPQ1KW4TCXUYUD5E3KXIQ","13","0","WIZARD","7","6","0","2639","WIZARD","7","2018-06-28 20:11:33","335461"
"A2RK260P2QPKV4","cs_wg_full_v3_pilot1","3TESA3PJ31B13RNR0KTDF64OO8KMMB","28","0","JACKET","15","6","0","2145","jacket","15","2018-06-28 20:11:33","335462"
"AY0758IITCGOZ","cs_wg_full_v3_pilot1","36W0OB37HWFFAKLZOC3UV3S1MQ5HZG","9","0","BANANA","7","6","0","8353","BANANA","7","2018-06-28 20:11:35","335463"
"ANUG05IDFTWF","cs_wg_full_v3_pilot1","3KAKFY4PGU3ELMPQ9NQ6REO178M3IZ","3","0","CANCER","6","6","0","5233","CANCER","6","2018-06-28 20:11:40","335465"
"AGC3T6724JUAF","cs_wg_full_v3_pilot1","36U2A8VAG1067KC2YB48UOZR8D3KYU","11","0","SPATULA","6","6","0","2035","SPATULA","6","2018-06-28 20:11:41","335466"
"A32P9ZPLKA3K7Z","cs_wg_full_v3_pilot1","374TNBHA8BWSINAXBGO5QAB07JWYQ1","22","0","GARBAGE","6","6","0","1033","GARBAGE","6","2018-06-28 20:11:41","335467"
"A5J0OW727ZCWY","cs_wg_full_v3_pilot1","32EYX73OY0ABDF5SEUGGSFFS7HMRUW","16","0","LIZARD","5","6","1","5113","lizard","5","2018-06-28 20:11:43","335469"
"A2RK260P2QPKV4","cs_wg_full_v3_pilot1","3TESA3PJ31B13RNR0KTDF64OO8KMMB","29","0","JACKET","15","6","0","1607","jacket","15","2018-06-28 20:11:43","335470"
"A32P9ZPLKA3K7Z","cs_wg_full_v3_pilot1","374TNBHA8BWSINAXBGO5QAB07JWYQ1","23","0","PUMPKIN","15","6","0","862","PUMPKIN","15","2018-06-28 20:11:49","335471"
"AGC3T6724JUAF","cs_wg_full_v3_pilot1","36U2A8VAG1067KC2YB48UOZR8D3KYU","12","0","SPATULA","6","6","0","1941","SPATULA","6","2018-06-28 20:11:51","335472"
"A2RK260P2QPKV4","cs_wg_full_v3_pilot1","3TESA3PJ31B13RNR0KTDF64OO8KMMB","30","0","PICTURE","6","6","1","1874","picture","6","2018-06-28 20:11:52","335473"
"A376VDKE75VP04","cs_wg_full_v3_pilot1","3ATTHHXXWAPQ1KW4TCXUYUD5E3KXIQ","14","0","BAMBOO","5","6","1","4154","BAMBOO","5","2018-06-28 20:11:54","335475"
"ANUG05IDFTWF","cs_wg_full_v3_pilot1","3KAKFY4PGU3ELMPQ9NQ6REO178M3IZ","4","0","MONKEY","1","6","1","3204","MONKEY","1","2018-06-28 20:11:55","335476"
"AY0758IITCGOZ","cs_wg_full_v3_pilot1","36W0OB37HWFFAKLZOC3UV3S1MQ5HZG","10","0","LIZARD","5","6","1","12379","LIZARD","5","2018-06-28 20:11:58","335477"
"A32P9ZPLKA3K7Z","cs_wg_full_v3_pilot1","374TNBHA8BWSINAXBGO5QAB07JWYQ1","24","0","BANQUET","6","6","0","2531","BANQUET","6","2018-06-28 20:11:59","335478"
"A2RK260P2QPKV4","cs_wg_full_v3_pilot1","3TESA3PJ31B13RNR0KTDF64OO8KMMB","31","0","PICTURE","6","6","1","1078","picture","6","2018-06-28 20:12:01","335479"
"AGC3T6724JUAF","cs_wg_full_v3_pilot1","36U2A8VAG1067KC2YB48UOZR8D3KYU","13","0","BLANKET","15","6","0","1664","BLANKET","15","2018-06-28 20:12:02","335480"
"A5J0OW727ZCWY","cs_wg_full_v3_pilot1","32EYX73OY0ABDF5SEUGGSFFS7HMRUW","17","0","LIZARD","5","6","0","3929","lizard","5","2018-06-28 20:12:04","335482"
"A32P9ZPLKA3K7Z","cs_wg_full_v3_pilot1","374TNBHA8BWSINAXBGO5QAB07JWYQ1","25","0","TURKEY","1","6","1","1321","TURKEY","1","2018-06-28 20:12:07","335483"
"A2RK260P2QPKV4","cs_wg_full_v3_pilot1","3TESA3PJ31B13RNR0KTDF64OO8KMMB","32","0","PICTURE","6","6","0","1844","picture","6","2018-06-28 20:12:10","335484"
"ANUG05IDFTWF","cs_wg_full_v3_pilot1","3KAKFY4PGU3ELMPQ9NQ6REO178M3IZ","5","0","BLANKET","15","6","0","6357","BLANKET","15","2018-06-28 20:12:11","335485"
"AY0758IITCGOZ","cs_wg_full_v3_pilot1","36W0OB37HWFFAKLZOC3UV3S1MQ5HZG","11","0","LIZARD","5","6","1","5007","LIZARD","5","2018-06-28 20:12:12","335487"
"AGC3T6724JUAF","cs_wg_full_v3_pilot1","36U2A8VAG1067KC2YB48UOZR8D3KYU","14","0","BLANKET","15","6","0","1573","BLANKET","15","2018-06-28 20:12:13","335488"
"A376VDKE75VP04","cs_wg_full_v3_pilot1","3ATTHHXXWAPQ1KW4TCXUYUD5E3KXIQ","15","0","PELICAN","5","6","0","3251","PELICAN","5","2018-06-28 20:12:17","335489"
"A2RK260P2QPKV4","cs_wg_full_v3_pilot1","3TESA3PJ31B13RNR0KTDF64OO8KMMB","33","0","JACKET","15","6","0","1647","jacket","15","2018-06-28 20:12:19","335490"
"A32P9ZPLKA3K7Z","cs_wg_full_v3_pilot1","374TNBHA8BWSINAXBGO5QAB07JWYQ1","26","0","BANQUET","6","6","0","5849","BANQUET","6","2018-06-28 20:12:20","335492"
"A5J0OW727ZCWY","cs_wg_full_v3_pilot1","32EYX73OY0ABDF5SEUGGSFFS7HMRUW","18","0","RABBIT","5","6","1","4962","rabbit","5","2018-06-28 20:12:22","335493"
"ANUG05IDFTWF","cs_wg_full_v3_pilot1","3KAKFY4PGU3ELMPQ9NQ6REO178M3IZ","6","0","MONKEY","1","6","1","2069","MONKEY","1","2018-06-28 20:12:22","335494"
"AGC3T6724JUAF","cs_wg_full_v3_pilot1","36U2A8VAG1067KC2YB48UOZR8D3KYU","15","0","BLANKET","15","6","0","4008","BLANKET","15","2018-06-28 20:12:25","335495"
"A32P9ZPLKA3K7Z","cs_wg_full_v3_pilot1","374TNBHA8BWSINAXBGO5QAB07JWYQ1","27","0","GARBAGE","6","6","0","699","GARBAGE","6","2018-06-28 20:12:27","335496"
"AY0758IITCGOZ","cs_wg_full_v3_pilot1","36W0OB37HWFFAKLZOC3UV3S1MQ5HZG","12","0","LIZARD","5","6","1","3273","LIZARD","5","2018-06-28 20:12:27","335497"
"A2RK260P2QPKV4","cs_wg_full_v3_pilot1","3TESA3PJ31B13RNR0KTDF64OO8KMMB","34","0","JACKET","15","6","0","2706","jacket","15","2018-06-28 20:12:32","335499"
"A32P9ZPLKA3K7Z","cs_wg_full_v3_pilot1","374TNBHA8BWSINAXBGO5QAB07JWYQ1","28","0","BANQUET","6","6","0","2653","BANQUET","6","2018-06-28 20:12:36","335500"
"AGC3T6724JUAF","cs_wg_full_v3_pilot1","36U2A8VAG1067KC2YB48UOZR8D3KYU","16","0","SPATULA","6","6","0","2279","SPATULA","6","2018-06-28 20:12:37","335501"
"ANUG05IDFTWF","cs_wg_full_v3_pilot1","3KAKFY4PGU3ELMPQ9NQ6REO178M3IZ","7","0","MONKEY","1","6","1","2550","MONKEY","1","2018-06-28 20:12:38","335502"
"A5J0OW727ZCWY","cs_wg_full_v3_pilot1","32EYX73OY0ABDF5SEUGGSFFS7HMRUW","19","0","CHICKEN","15","6","0","4130","chicken ","15","2018-06-28 20:12:41","335504"
"A2RK260P2QPKV4","cs_wg_full_v3_pilot1","3TESA3PJ31B13RNR0KTDF64OO8KMMB","35","0","VOLCANO","6","6","1","1573","volcano","6","2018-06-28 20:12:43","335505"
"A32P9ZPLKA3K7Z","cs_wg_full_v3_pilot1","374TNBHA8BWSINAXBGO5QAB07JWYQ1","29","0","PUMPKIN","15","6","0","1198","PUMPKIN","15","2018-06-28 20:12:45","335506"
"AY0758IITCGOZ","cs_wg_full_v3_pilot1","36W0OB37HWFFAKLZOC3UV3S1MQ5HZG","13","0","PEBBLE","6","6","0","3911","PEBBLE ","6","2018-06-28 20:12:46","335507"
"ANUG05IDFTWF","cs_wg_full_v3_pilot1","3KAKFY4PGU3ELMPQ9NQ6REO178M3IZ","8","0","CANCER","6","6","0","4564","CANCER","6","2018-06-28 20:12:53","335509"
"A32P9ZPLKA3K7Z","cs_wg_full_v3_pilot1","374TNBHA8BWSINAXBGO5QAB07JWYQ1","30","0","TURKEY","1","6","1","2313","TURKEY","1","2018-06-28 20:12:54","335510"
"A2RK260P2QPKV4","cs_wg_full_v3_pilot1","3TESA3PJ31B13RNR0KTDF64OO8KMMB","36","0","PICTURE","6","6","0","2798","picture","6","2018-06-28 20:12:54","335511"
"A376VDKE75VP04","cs_wg_full_v3_pilot1","3ATTHHXXWAPQ1KW4TCXUYUD5E3KXIQ","16","0","BANQUET","6","6","0","17592","BANQUET","6","2018-06-28 20:12:57","335513"
"AY0758IITCGOZ","cs_wg_full_v3_pilot1","36W0OB37HWFFAKLZOC3UV3S1MQ5HZG","14","0","GARBAGE","5","6","1","3252","GARBAGE ","5","2018-06-28 20:13:02","335514"
"A32P9ZPLKA3K7Z","cs_wg_full_v3_pilot1","374TNBHA8BWSINAXBGO5QAB07JWYQ1","31","0","TURKEY","1","6","1","1838","TURKEY","1","2018-06-28 20:13:03","335515"
"A2RK260P2QPKV4","cs_wg_full_v3_pilot1","3TESA3PJ31B13RNR0KTDF64OO8KMMB","37","0","JACKET","15","6","0","2068","jacket","15","2018-06-28 20:13:04","335516"
"A5J0OW727ZCWY","cs_wg_full_v3_pilot1","32EYX73OY0ABDF5SEUGGSFFS7HMRUW","20","0","SQUARE","7","6","0","2485","square","7","2018-06-28 20:13:05","335517"
"ANUG05IDFTWF","cs_wg_full_v3_pilot1","3KAKFY4PGU3ELMPQ9NQ6REO178M3IZ","9","0","SUNBURN","6","6","0","2535","SUNBURN","6","2018-06-28 20:13:08","335519"
"A32P9ZPLKA3K7Z","cs_wg_full_v3_pilot1","374TNBHA8BWSINAXBGO5QAB07JWYQ1","32","0","GARBAGE","6","6","1","1027","GARBAGE","6","2018-06-28 20:13:10","335520"
"A2RK260P2QPKV4","cs_wg_full_v3_pilot1","3TESA3PJ31B13RNR0KTDF64OO8KMMB","38","0","PICTURE","6","6","0","1435","picture","6","2018-06-28 20:13:13","335521"
"A32P9ZPLKA3K7Z","cs_wg_full_v3_pilot1","374TNBHA8BWSINAXBGO5QAB07JWYQ1","33","0","PUMPKIN","15","6","0","819","PUMPKIN","15","2018-06-28 20:13:19","335523"
"A5J0OW727ZCWY","cs_wg_full_v3_pilot1","32EYX73OY0ABDF5SEUGGSFFS7HMRUW","21","0","RABBIT","5","6","1","4163","rabbit","5","2018-06-28 20:13:19","335524"
"ANUG05IDFTWF","cs_wg_full_v3_pilot1","3KAKFY4PGU3ELMPQ9NQ6REO178M3IZ","10","0","BLANKET","15","6","0","2280","BLANKET","15","2018-06-28 20:13:21","335525"
"A376VDKE75VP04","cs_wg_full_v3_pilot1","3ATTHHXXWAPQ1KW4TCXUYUD5E3KXIQ","17","0","WIZARD","5","6","0","6401","WIZARD","5","2018-06-28 20:13:22","335526"
"A2RK260P2QPKV4","cs_wg_full_v3_pilot1","3TESA3PJ31B13RNR0KTDF64OO8KMMB","39","0","PICTURE","6","6","0","1300","picture","6","2018-06-28 20:13:23","335528"
"A32P9ZPLKA3K7Z","cs_wg_full_v3_pilot1","374TNBHA8BWSINAXBGO5QAB07JWYQ1","34","0","PUMPKIN","15","6","0","903","PUMPKIN","15","2018-06-28 20:13:26","335529"
"AY0758IITCGOZ","cs_wg_full_v3_pilot1","36W0OB37HWFFAKLZOC3UV3S1MQ5HZG","15","0","TOMATO","7","6","1","13925","TOMATO","7","2018-06-28 20:13:27","335530"
"A32P9ZPLKA3K7Z","cs_wg_full_v3_pilot1","374TNBHA8BWSINAXBGO5QAB07JWYQ1","35","0","GARBAGE","6","6","0","1521","GARBAGE","6","2018-06-28 20:13:35","335532"
"ANUG05IDFTWF","cs_wg_full_v3_pilot1","3KAKFY4PGU3ELMPQ9NQ6REO178M3IZ","11","0","SUNBURN","6","6","0","4983","SUNBURN","6","2018-06-28 20:13:39","335533"
"A376VDKE75VP04","cs_wg_full_v3_pilot1","3ATTHHXXWAPQ1KW4TCXUYUD5E3KXIQ","18","0","GRENADE","7","6","0","5882","GRENADE","7","2018-06-28 20:13:41","335534"
"A32P9ZPLKA3K7Z","cs_wg_full_v3_pilot1","374TNBHA8BWSINAXBGO5QAB07JWYQ1","36","0","BANQUET","6","6","0","1058","BANQUET","6","2018-06-28 20:13:42","335536"
"AY0758IITCGOZ","cs_wg_full_v3_pilot1","36W0OB37HWFFAKLZOC3UV3S1MQ5HZG","16","0","PELICAN","5","6","1","5576","PELICAN","5","2018-06-28 20:13:43","335537"
"AGC3T6724JUAF","cs_wg_full_v3_pilot1","36U2A8VAG1067KC2YB48UOZR8D3KYU","17","0","BLANKET","15","6","0","3183","BLANKET","15","2018-06-28 20:13:48","335538"
"A5J0OW727ZCWY","cs_wg_full_v3_pilot1","32EYX73OY0ABDF5SEUGGSFFS7HMRUW","22","0","COMPANY","6","6","0","2109","company","6","2018-06-28 20:13:48","335539"
"A32P9ZPLKA3K7Z","cs_wg_full_v3_pilot1","374TNBHA8BWSINAXBGO5QAB07JWYQ1","37","0","BANQUET","6","6","0","870","BANQUET","6","2018-06-28 20:13:50","335540"
"ANUG05IDFTWF","cs_wg_full_v3_pilot1","3KAKFY4PGU3ELMPQ9NQ6REO178M3IZ","12","0","MONKEY","1","6","1","1755","MONKEY","1","2018-06-28 20:13:52","335542"
"A32P9ZPLKA3K7Z","cs_wg_full_v3_pilot1","374TNBHA8BWSINAXBGO5QAB07JWYQ1","38","0","BANQUET","6","6","0","793","BANQUET","6","2018-06-28 20:13:57","335543"
"AGC3T6724JUAF","cs_wg_full_v3_pilot1","36U2A8VAG1067KC2YB48UOZR8D3KYU","18","0","SPATULA","6","6","0","2572","SPATULA","6","2018-06-28 20:13:57","335544"
"AY0758IITCGOZ","cs_wg_full_v3_pilot1","36W0OB37HWFFAKLZOC3UV3S1MQ5HZG","17","0","LIZARD","5","6","1","8232","LIZARD","5","2018-06-28 20:14:01","335546"
"A376VDKE75VP04","cs_wg_full_v3_pilot1","3ATTHHXXWAPQ1KW4TCXUYUD5E3KXIQ","19","0","PELICAN","7","6","1","7009","PELICAN","7","2018-06-28 20:14:03","335547"
"ANUG05IDFTWF","cs_wg_full_v3_pilot1","3KAKFY4PGU3ELMPQ9NQ6REO178M3IZ","13","0","SUNBURN","6","6","0","2992","SUNBURN","6","2018-06-28 20:14:04","335548"
"A32P9ZPLKA3K7Z","cs_wg_full_v3_pilot1","374TNBHA8BWSINAXBGO5QAB07JWYQ1","39","0","GARBAGE","6","6","0","792","GARBAGE","6","2018-06-28 20:14:06","335550"
"A3V9NNG0SAKPGB","cs_wg_full_v3_pilot1","3TXWC2NHNZRPU2H2V8LUMTXAGYVS9U","0","0","COSTUME","6","6","0","4225","Costume","6","2018-06-28 20:14:11","335551"
"A5J0OW727ZCWY","cs_wg_full_v3_pilot1","32EYX73OY0ABDF5SEUGGSFFS7HMRUW","23","0","AVOCADO","7","6","0","6409","avacado","7","2018-06-28 20:14:17","335553"
"ANUG05IDFTWF","cs_wg_full_v3_pilot1","3KAKFY4PGU3ELMPQ9NQ6REO178M3IZ","14","0","BLANKET","15","6","0","2859","BLANKET","15","2018-06-28 20:14:18","335554"
"AY0758IITCGOZ","cs_wg_full_v3_pilot1","36W0OB37HWFFAKLZOC3UV3S1MQ5HZG","18","0","SUNBURN","6","6","1","7145","sunburn","6","2018-06-28 20:14:21","335556"
"AGC3T6724JUAF","cs_wg_full_v3_pilot1","36U2A8VAG1067KC2YB48UOZR8D3KYU","19","0","PEBBLE","6","6","0","13445","PEBBLE","6","2018-06-28 20:14:22","335557"
"A3V9NNG0SAKPGB","cs_wg_full_v3_pilot1","3TXWC2NHNZRPU2H2V8LUMTXAGYVS9U","1","0","BASKET","1","6","0","1949","Basket","1","2018-06-28 20:14:22","335558"
"A376VDKE75VP04","cs_wg_full_v3_pilot1","3ATTHHXXWAPQ1KW4TCXUYUD5E3KXIQ","20","0","WIZARD","7","6","1","4217","WIZARD","5","2018-06-28 20:14:23","335559"
"ANUG05IDFTWF","cs_wg_full_v3_pilot1","3KAKFY4PGU3ELMPQ9NQ6REO178M3IZ","15","0","MONKEY","1","6","1","2286","MONKEY","1","2018-06-28 20:14:29","335560"
"AGC3T6724JUAF","cs_wg_full_v3_pilot1","36U2A8VAG1067KC2YB48UOZR8D3KYU","20","0","BLANKET","15","6","0","2682","BLANKET","15","2018-06-28 20:14:32","335562"
"A3V9NNG0SAKPGB","cs_wg_full_v3_pilot1","3TXWC2NHNZRPU2H2V8LUMTXAGYVS9U","2","0","TOMATO","6","6","1","2635","Tomato","6","2018-06-28 20:14:34","335563"
"A5J0OW727ZCWY","cs_wg_full_v3_pilot1","32EYX73OY0ABDF5SEUGGSFFS7HMRUW","24","0","BICYCLE","7","6","0","4751","bicycle","7","2018-06-28 20:14:37","335564"
"AGC3T6724JUAF","cs_wg_full_v3_pilot1","36U2A8VAG1067KC2YB48UOZR8D3KYU","21","0","SPATULA","6","6","0","1977","SPATULA","6","2018-06-28 20:14:42","335566"
"AY0758IITCGOZ","cs_wg_full_v3_pilot1","36W0OB37HWFFAKLZOC3UV3S1MQ5HZG","19","0","BICYCLE","7","6","0","9545","BICYCLE","7","2018-06-28 20:14:43","335567"
"ANUG05IDFTWF","cs_wg_full_v3_pilot1","3KAKFY4PGU3ELMPQ9NQ6REO178M3IZ","16","0","BLANKET","15","6","0","2572","BLANKET","15","2018-06-28 20:14:46","335569"
"A3V9NNG0SAKPGB","cs_wg_full_v3_pilot1","3TXWC2NHNZRPU2H2V8LUMTXAGYVS9U","3","0","BASKET","1","6","1","2248","Basket","1","2018-06-28 20:14:46","335570"
"A376VDKE75VP04","cs_wg_full_v3_pilot1","3ATTHHXXWAPQ1KW4TCXUYUD5E3KXIQ","21","0","ARCADE","6","6","1","7346","ARCADE","6","2018-06-28 20:14:49","335571"
"AGC3T6724JUAF","cs_wg_full_v3_pilot1","36U2A8VAG1067KC2YB48UOZR8D3KYU","22","0","PEBBLE","6","6","0","2324","PEBBLE","6","2018-06-28 20:14:51","335572"
"A5J0OW727ZCWY","cs_wg_full_v3_pilot1","32EYX73OY0ABDF5SEUGGSFFS7HMRUW","25","0","GARBAGE","5","6","1","4828","garbage","5","2018-06-28 20:14:53","335573"
"A3V9NNG0SAKPGB","cs_wg_full_v3_pilot1","3TXWC2NHNZRPU2H2V8LUMTXAGYVS9U","4","0","TOMATO","6","6","1","1966","Tomato","6","2018-06-28 20:14:56","335575"
"ANUG05IDFTWF","cs_wg_full_v3_pilot1","3KAKFY4PGU3ELMPQ9NQ6REO178M3IZ","17","0","BLANKET","15","6","0","3257","BLANKET","15","2018-06-28 20:14:57","335576"
"AY0758IITCGOZ","cs_wg_full_v3_pilot1","36W0OB37HWFFAKLZOC3UV3S1MQ5HZG","20","0","PELICAN","5","6","0","6863","PELICAN","5","2018-06-28 20:14:59","335577"
"AGC3T6724JUAF","cs_wg_full_v3_pilot1","36U2A8VAG1067KC2YB48UOZR8D3KYU","23","0","PEBBLE","6","6","0","2147","PEBBLE","6","2018-06-28 20:15:00","335578"
"A3V9NNG0SAKPGB","cs_wg_full_v3_pilot1","3TXWC2NHNZRPU2H2V8LUMTXAGYVS9U","5","0","BASKET","1","6","1","2920","Basket","1","2018-06-28 20:15:06","335580"
"ANUG05IDFTWF","cs_wg_full_v3_pilot1","3KAKFY4PGU3ELMPQ9NQ6REO178M3IZ","18","0","CANCER","6","6","0","1888","CANCER","6","2018-06-28 20:15:08","335581"
"AGC3T6724JUAF","cs_wg_full_v3_pilot1","36U2A8VAG1067KC2YB48UOZR8D3KYU","24","0","BASKET","1","6","0","2296","BASKET","1","2018-06-28 20:15:10","335583"
"A376VDKE75VP04","cs_wg_full_v3_pilot1","3ATTHHXXWAPQ1KW4TCXUYUD5E3KXIQ","22","0","BAMBOO","5","6","1","5676","BAMBOO","5","2018-06-28 20:15:12","335584"
"A5J0OW727ZCWY","cs_wg_full_v3_pilot1","32EYX73OY0ABDF5SEUGGSFFS7HMRUW","26","0","AIRBAG","7","6","0","1818","airbag","7","2018-06-28 20:15:13","335585"
"A3V9NNG0SAKPGB","cs_wg_full_v3_pilot1","3TXWC2NHNZRPU2H2V8LUMTXAGYVS9U","6","0","COSTUME","6","6","1","2684","Costume","6","2018-06-28 20:15:16","335586"
"AY0758IITCGOZ","cs_wg_full_v3_pilot1","36W0OB37HWFFAKLZOC3UV3S1MQ5HZG","21","0","BICYCLE","7","6","0","3441","BICYCLE ","7","2018-06-28 20:15:18","335588"
"AGC3T6724JUAF","cs_wg_full_v3_pilot1","36U2A8VAG1067KC2YB48UOZR8D3KYU","25","0","PEBBLE","6","6","0","2276","PEBBLE","6","2018-06-28 20:15:20","335589"
"ANUG05IDFTWF","cs_wg_full_v3_pilot1","3KAKFY4PGU3ELMPQ9NQ6REO178M3IZ","19","0","SUNBURN","6","6","0","2258","SUNBURN","6","2018-06-28 20:15:20","335590"
"A3V9NNG0SAKPGB","cs_wg_full_v3_pilot1","3TXWC2NHNZRPU2H2V8LUMTXAGYVS9U","7","0","TURKEY","15","6","1","1951","Turkey","15","2018-06-28 20:15:27","335592"
"AGC3T6724JUAF","cs_wg_full_v3_pilot1","36U2A8VAG1067KC2YB48UOZR8D3KYU","26","0","PEBBLE","6","6","0","1854","PEBBLE","6","2018-06-28 20:15:29","335593"
"A5J0OW727ZCWY","cs_wg_full_v3_pilot1","32EYX73OY0ABDF5SEUGGSFFS7HMRUW","27","0","SQUARE","7","6","0","6527","square","7","2018-06-28 20:15:31","335594"
"AY0758IITCGOZ","cs_wg_full_v3_pilot1","36W0OB37HWFFAKLZOC3UV3S1MQ5HZG","22","0","CHICKEN","15","6","0","4761","CHICKEN","15","2018-06-28 20:15:33","335595"
"ANUG05IDFTWF","cs_wg_full_v3_pilot1","3KAKFY4PGU3ELMPQ9NQ6REO178M3IZ","20","0","SUNBURN","6","6","0","2334","SUNBURN","6","2018-06-28 20:15:33","335596"
"A3V9NNG0SAKPGB","cs_wg_full_v3_pilot1","3TXWC2NHNZRPU2H2V8LUMTXAGYVS9U","8","0","TURKEY","15","6","0","1831","Turkey","15","2018-06-28 20:15:40","335597"
"A376VDKE75VP04","cs_wg_full_v3_pilot1","3ATTHHXXWAPQ1KW4TCXUYUD5E3KXIQ","23","0","PELICAN","5","6","0","5922","PELICAN","5","2018-06-28 20:15:40","335598"
"ANUG05IDFTWF","cs_wg_full_v3_pilot1","3KAKFY4PGU3ELMPQ9NQ6REO178M3IZ","21","0","CANCER","6","6","0","3505","CANCER","6","2018-06-28 20:15:46","335600"
"AY0758IITCGOZ","cs_wg_full_v3_pilot1","36W0OB37HWFFAKLZOC3UV3S1MQ5HZG","23","0","CHICKEN","15","6","0","2880","CHICKEN","15","2018-06-28 20:15:47","335601"
"A5J0OW727ZCWY","cs_wg_full_v3_pilot1","32EYX73OY0ABDF5SEUGGSFFS7HMRUW","28","0","LIZARD","5","6","1","5380","lizaed","5","2018-06-28 20:15:47","335602"
"A3V9NNG0SAKPGB","cs_wg_full_v3_pilot1","3TXWC2NHNZRPU2H2V8LUMTXAGYVS9U","9","0","COSTUME","6","6","1","1856","Costume","6","2018-06-28 20:15:49","335603"
"A3V9NNG0SAKPGB","cs_wg_full_v3_pilot1","3TXWC2NHNZRPU2H2V8LUMTXAGYVS9U","10","0","BASKET","1","6","1","1703","Basket","1","2018-06-28 20:16:01","335605"
"ANUG05IDFTWF","cs_wg_full_v3_pilot1","3KAKFY4PGU3ELMPQ9NQ6REO178M3IZ","22","0","BLANKET","15","6","0","3839","BLANKET","15","2018-06-28 20:16:02","335606"
"A376VDKE75VP04","cs_wg_full_v3_pilot1","3ATTHHXXWAPQ1KW4TCXUYUD5E3KXIQ","24","0","BANANA","7","6","1","8230","BANANA","7","2018-06-28 20:16:03","335607"
"AY0758IITCGOZ","cs_wg_full_v3_pilot1","36W0OB37HWFFAKLZOC3UV3S1MQ5HZG","24","0","SUNBURN","6","6","0","5962","SUNBURN ","6","2018-06-28 20:16:04","335609"
"AGC3T6724JUAF","cs_wg_full_v3_pilot1","36U2A8VAG1067KC2YB48UOZR8D3KYU","27","0","BASKET","1","6","1","30888","BASKET","1","2018-06-28 20:16:10","335610"
"A3V9NNG0SAKPGB","cs_wg_full_v3_pilot1","3TXWC2NHNZRPU2H2V8LUMTXAGYVS9U","11","0","TURKEY","15","6","0","1651","Turkey","15","2018-06-28 20:16:10","335611"
"ANUG05IDFTWF","cs_wg_full_v3_pilot1","3KAKFY4PGU3ELMPQ9NQ6REO178M3IZ","23","0","CANCER","6","6","0","1802","CANCER","6","2018-06-28 20:16:14","335613"
"A5J0OW727ZCWY","cs_wg_full_v3_pilot1","32EYX73OY0ABDF5SEUGGSFFS7HMRUW","29","0","GARBAGE","5","6","1","7077","garbage","5","2018-06-28 20:16:16","335614"
"A3V9NNG0SAKPGB","cs_wg_full_v3_pilot1","3TXWC2NHNZRPU2H2V8LUMTXAGYVS9U","12","0","TOMATO","6","6","1","1296","Tomato","6","2018-06-28 20:16:19","335615"
"AY0758IITCGOZ","cs_wg_full_v3_pilot1","36W0OB37HWFFAKLZOC3UV3S1MQ5HZG","25","0","BANANA","7","6","0","5990","BANANA","7","2018-06-28 20:16:20","335616"
"AGC3T6724JUAF","cs_wg_full_v3_pilot1","36U2A8VAG1067KC2YB48UOZR8D3KYU","28","0","SPATULA","6","6","0","3694","SPATULA","6","2018-06-28 20:16:20","335617"
"A376VDKE75VP04","cs_wg_full_v3_pilot1","3ATTHHXXWAPQ1KW4TCXUYUD5E3KXIQ","25","0","BANQUET","6","6","0","6278","BANQUET","6","2018-06-28 20:16:23","335618"
"ANUG05IDFTWF","cs_wg_full_v3_pilot1","3KAKFY4PGU3ELMPQ9NQ6REO178M3IZ","24","0","BLANKET","15","6","0","1717","BLANKET","15","2018-06-28 20:16:29","335620"
"A3V9NNG0SAKPGB","cs_wg_full_v3_pilot1","3TXWC2NHNZRPU2H2V8LUMTXAGYVS9U","13","0","TURKEY","15","6","0","1265","Turkey","15","2018-06-28 20:16:29","335621"
"AGC3T6724JUAF","cs_wg_full_v3_pilot1","36U2A8VAG1067KC2YB48UOZR8D3KYU","29","0","PEBBLE","6","6","0","2514","PEBBLE","6","2018-06-28 20:16:30","335622"
"AY0758IITCGOZ","cs_wg_full_v3_pilot1","36W0OB37HWFFAKLZOC3UV3S1MQ5HZG","26","0","LIZARD","5","6","1","4873","LIZARD","7","2018-06-28 20:16:35","335624"
"A3V9NNG0SAKPGB","cs_wg_full_v3_pilot1","3TXWC2NHNZRPU2H2V8LUMTXAGYVS9U","14","0","BASKET","1","6","1","1384","Basket","1","2018-06-28 20:16:39","335625"
"AGC3T6724JUAF","cs_wg_full_v3_pilot1","36U2A8VAG1067KC2YB48UOZR8D3KYU","30","0","BASKET","1","6","1","3022","BASKET","1","2018-06-28 20:16:40","335626"
"ANUG05IDFTWF","cs_wg_full_v3_pilot1","3KAKFY4PGU3ELMPQ9NQ6REO178M3IZ","25","0","CANCER","6","6","0","2591","CANCER","6","2018-06-28 20:16:42","335627"
"A5J0OW727ZCWY","cs_wg_full_v3_pilot1","32EYX73OY0ABDF5SEUGGSFFS7HMRUW","30","0","TOMATO","5","6","1","9398","tomato","5","2018-06-28 20:16:42","335628"
"A376VDKE75VP04","cs_wg_full_v3_pilot1","3ATTHHXXWAPQ1KW4TCXUYUD5E3KXIQ","26","0","CRICKET","15","6","0","2561","CRICKET","15","2018-06-28 20:16:42","335629"
"AGC3T6724JUAF","cs_wg_full_v3_pilot1","36U2A8VAG1067KC2YB48UOZR8D3KYU","31","0","BLANKET","15","6","0","3303","BLANKET","15","2018-06-28 20:16:50","335631"
"A3V9NNG0SAKPGB","cs_wg_full_v3_pilot1","3TXWC2NHNZRPU2H2V8LUMTXAGYVS9U","15","0","TOMATO","6","6","1","1456","Tomato","6","2018-06-28 20:16:50","335632"
"AY0758IITCGOZ","cs_wg_full_v3_pilot1","36W0OB37HWFFAKLZOC3UV3S1MQ5HZG","27","0","CHICKEN","15","6","0","5887","CHICKEN","15","2018-06-28 20:16:52","335633"
"ANUG05IDFTWF","cs_wg_full_v3_pilot1","3KAKFY4PGU3ELMPQ9NQ6REO178M3IZ","26","0","CANCER","6","6","0","2561","CANCER","6","2018-06-28 20:16:55","335635"
"A376VDKE75VP04","cs_wg_full_v3_pilot1","3ATTHHXXWAPQ1KW4TCXUYUD5E3KXIQ","27","0","WIZARD","5","6","1","4315","WIZARD","5","2018-06-28 20:16:57","335636"
"A3V9NNG0SAKPGB","cs_wg_full_v3_pilot1","3TXWC2NHNZRPU2H2V8LUMTXAGYVS9U","16","0","COSTUME","6","6","1","1551","Costume","6","2018-06-28 20:17:00","335637"
"AGC3T6724JUAF","cs_wg_full_v3_pilot1","36U2A8VAG1067KC2YB48UOZR8D3KYU","32","0","BLANKET","15","6","0","1998","BLANKET","15","2018-06-28 20:17:00","335638"
"A5J0OW727ZCWY","cs_wg_full_v3_pilot1","32EYX73OY0ABDF5SEUGGSFFS7HMRUW","31","0","PICKLE","1","6","1","9434","pickle","1","2018-06-28 20:17:03","335639"
"AY0758IITCGOZ","cs_wg_full_v3_pilot1","36W0OB37HWFFAKLZOC3UV3S1MQ5HZG","28","0","GARBAGE","5","6","1","7289","GARBAGE","5","2018-06-28 20:17:09","335641"
"ANUG05IDFTWF","cs_wg_full_v3_pilot1","3KAKFY4PGU3ELMPQ9NQ6REO178M3IZ","27","0","SUNBURN","6","6","0","3040","SUNBURN","6","2018-06-28 20:17:10","335642"
"A3V9NNG0SAKPGB","cs_wg_full_v3_pilot1","3TXWC2NHNZRPU2H2V8LUMTXAGYVS9U","17","0","TURKEY","15","6","0","1401","Turkey","15","2018-06-28 20:17:11","335643"
"AGC3T6724JUAF","cs_wg_full_v3_pilot1","36U2A8VAG1067KC2YB48UOZR8D3KYU","33","0","BASKET","1","6","1","3564","BASKET","1","2018-06-28 20:17:11","335644"
"A3V9NNG0SAKPGB","cs_wg_full_v3_pilot1","3TXWC2NHNZRPU2H2V8LUMTXAGYVS9U","18","0","TOMATO","6","6","1","1898","Tomato","6","2018-06-28 20:17:21","335646"
"A376VDKE75VP04","cs_wg_full_v3_pilot1","3ATTHHXXWAPQ1KW4TCXUYUD5E3KXIQ","28","0","ACROBAT","5","6","1","13192","ACROBAT","5","2018-06-28 20:17:24","335647"
"AGC3T6724JUAF","cs_wg_full_v3_pilot1","36U2A8VAG1067KC2YB48UOZR8D3KYU","34","0","BASKET","1","6","1","3595","BASKET","1","2018-06-28 20:17:25","335648"
"ANUG05IDFTWF","cs_wg_full_v3_pilot1","3KAKFY4PGU3ELMPQ9NQ6REO178M3IZ","28","0","BLANKET","15","6","0","2507","BLANKET","15","2018-06-28 20:17:25","335650"
"A5J0OW727ZCWY","cs_wg_full_v3_pilot1","32EYX73OY0ABDF5SEUGGSFFS7HMRUW","32","0","COSTUME","6","6","0","11429","costume","6","2018-06-28 20:17:27","335651"
"AY0758IITCGOZ","cs_wg_full_v3_pilot1","36W0OB37HWFFAKLZOC3UV3S1MQ5HZG","29","0","PELICAN","5","6","0","6058","PELICAN","5","2018-06-28 20:17:27","335652"
"A3V9NNG0SAKPGB","cs_wg_full_v3_pilot1","3TXWC2NHNZRPU2H2V8LUMTXAGYVS9U","19","0","TOMATO","6","6","1","2280","Tomato","6","2018-06-28 20:17:30","335653"
"A13KB82N4UMWJZ","cs_wg_full_v3_pilot1","3C6FJU71TQUKAGHESP8A0B8PA41UY1","0","0","BANANA","6","6","0","6444","Banana","6 ","2018-06-28 20:17:33","335654"
"AGC3T6724JUAF","cs_wg_full_v3_pilot1","36U2A8VAG1067KC2YB48UOZR8D3KYU","35","0","BASKET","1","6","1","1860","BASKET","1","2018-06-28 20:17:35","335656"
"A376VDKE75VP04","cs_wg_full_v3_pilot1","3ATTHHXXWAPQ1KW4TCXUYUD5E3KXIQ","29","0","GRENADE","7","6","0","5043","GRENADE","7","2018-06-28 20:17:39","335657"
"A3V9NNG0SAKPGB","cs_wg_full_v3_pilot1","3TXWC2NHNZRPU2H2V8LUMTXAGYVS9U","20","0","TOMATO","6","6","1","1814","Tomato","6","2018-06-28 20:17:41","335658"
"AY0758IITCGOZ","cs_wg_full_v3_pilot1","36W0OB37HWFFAKLZOC3UV3S1MQ5HZG","30","0","TOMATO","7","6","0","7505","TOMATO","7","2018-06-28 20:17:45","335660"
"AGC3T6724JUAF","cs_wg_full_v3_pilot1","36U2A8VAG1067KC2YB48UOZR8D3KYU","36","0","PEBBLE","6","6","0","1110","PEPPLE","6","2018-06-28 20:17:47","335661"
"A13KB82N4UMWJZ","cs_wg_full_v3_pilot1","3C6FJU71TQUKAGHESP8A0B8PA41UY1","1","0","BANANA","6","6","0","3121","Banana","6","2018-06-28 20:17:48","335662"
"A3V9NNG0SAKPGB","cs_wg_full_v3_pilot1","3TXWC2NHNZRPU2H2V8LUMTXAGYVS9U","21","0","TOMATO","6","6","1","1379","Tomato","6","2018-06-28 20:17:52","335663"
"A5J0OW727ZCWY","cs_wg_full_v3_pilot1","32EYX73OY0ABDF5SEUGGSFFS7HMRUW","33","0","CHICKEN","15","6","0","13843","chicken","15","2018-06-28 20:17:53","335664"
"A376VDKE75VP04","cs_wg_full_v3_pilot1","3ATTHHXXWAPQ1KW4TCXUYUD5E3KXIQ","30","0","PELICAN","5","6","1","5764","PELICAN","5","2018-06-28 20:17:55","335665"
"ANUG05IDFTWF","cs_wg_full_v3_pilot1","3KAKFY4PGU3ELMPQ9NQ6REO178M3IZ","29","0","SUNBURN","6","6","0","2707","SUNBURN","6","2018-06-28 20:17:55","335666"
"AGC3T6724JUAF","cs_wg_full_v3_pilot1","36U2A8VAG1067KC2YB48UOZR8D3KYU","37","0","BASKET","1","6","1","5006","BASKET","1","2018-06-28 20:18:00","335668"
"A3V9NNG0SAKPGB","cs_wg_full_v3_pilot1","3TXWC2NHNZRPU2H2V8LUMTXAGYVS9U","22","0","TURKEY","15","6","0","1207","Turkey","15","2018-06-28 20:18:00","335669"
"AY0758IITCGOZ","cs_wg_full_v3_pilot1","36W0OB37HWFFAKLZOC3UV3S1MQ5HZG","31","0","SUNBURN","6","6","0","5568","SUNBURN","6","2018-06-28 20:18:01","335670"
"A13KB82N4UMWJZ","cs_wg_full_v3_pilot1","3C6FJU71TQUKAGHESP8A0B8PA41UY1","2","0","BUCKET","15","6","0","2988","Bucket","15","2018-06-28 20:18:01","335671"
"ANUG05IDFTWF","cs_wg_full_v3_pilot1","3KAKFY4PGU3ELMPQ9NQ6REO178M3IZ","30","0","SUNBURN","6","6","0","1188","SUNBURN","6","2018-06-28 20:18:04","335672"
"A3V9NNG0SAKPGB","cs_wg_full_v3_pilot1","3TXWC2NHNZRPU2H2V8LUMTXAGYVS9U","23","0","COSTUME","6","6","1","1668","Costume","6","2018-06-28 20:18:10","335674"
"A5J0OW727ZCWY","cs_wg_full_v3_pilot1","32EYX73OY0ABDF5SEUGGSFFS7HMRUW","34","0","GARBAGE","5","6","1","6511","garbage","5","2018-06-28 20:18:11","335675"
"AGC3T6724JUAF","cs_wg_full_v3_pilot1","36U2A8VAG1067KC2YB48UOZR8D3KYU","38","0","SPATULA","6","6","0","2726","SPATULA","6","2018-06-28 20:18:13","335677"
"A13KB82N4UMWJZ","cs_wg_full_v3_pilot1","3C6FJU71TQUKAGHESP8A0B8PA41UY1","3","0","COSTUME","6","6","0","2478","Costume","6","2018-06-28 20:18:13","335678"
"ANUG05IDFTWF","cs_wg_full_v3_pilot1","3KAKFY4PGU3ELMPQ9NQ6REO178M3IZ","31","0","CANCER","6","6","0","1391","CANCER","6","2018-06-28 20:18:13","335679"
"AY0758IITCGOZ","cs_wg_full_v3_pilot1","36W0OB37HWFFAKLZOC3UV3S1MQ5HZG","32","0","GARBAGE","5","6","1","4722","GARBAGE","5","2018-06-28 20:18:15","335680"
"A3V9NNG0SAKPGB","cs_wg_full_v3_pilot1","3TXWC2NHNZRPU2H2V8LUMTXAGYVS9U","24","0","COSTUME","6","6","1","1551","Costume","6","2018-06-28 20:18:20","335681"
"ANUG05IDFTWF","cs_wg_full_v3_pilot1","3KAKFY4PGU3ELMPQ9NQ6REO178M3IZ","32","0","CANCER","6","6","0","1228","CANCER","6","2018-06-28 20:18:23","335682"
"A13KB82N4UMWJZ","cs_wg_full_v3_pilot1","3C6FJU71TQUKAGHESP8A0B8PA41UY1","4","0","COSTUME","6","6","0","2001","Costume","6","2018-06-28 20:18:24","335684"
"A376VDKE75VP04","cs_wg_full_v3_pilot1","3ATTHHXXWAPQ1KW4TCXUYUD5E3KXIQ","31","0","ACROBAT","5","6","0","14608","ACROBAT","5","2018-06-28 20:18:24","335685"
"A3V9NNG0SAKPGB","cs_wg_full_v3_pilot1","3TXWC2NHNZRPU2H2V8LUMTXAGYVS9U","25","0","BASKET","1","6","1","1355","Basket","1","2018-06-28 20:18:28","335686"
"AY0758IITCGOZ","cs_wg_full_v3_pilot1","36W0OB37HWFFAKLZOC3UV3S1MQ5HZG","33","0","VOLCANO","7","6","1","3656","VOLCANO","7","2018-06-28 20:18:28","335687"
"A5J0OW727ZCWY","cs_wg_full_v3_pilot1","32EYX73OY0ABDF5SEUGGSFFS7HMRUW","35","0","COSTUME","6","6","0","7598","costume","6","2018-06-28 20:18:30","335688"
"ANUG05IDFTWF","cs_wg_full_v3_pilot1","3KAKFY4PGU3ELMPQ9NQ6REO178M3IZ","33","0","MONKEY","1","6","1","1686","MONKEY","1","2018-06-28 20:18:32","335689"
"A13KB82N4UMWJZ","cs_wg_full_v3_pilot1","3C6FJU71TQUKAGHESP8A0B8PA41UY1","5","0","COSTUME","6","6","0","1466","Costume","6","2018-06-28 20:18:33","335690"
"AGC3T6724JUAF","cs_wg_full_v3_pilot1","36U2A8VAG1067KC2YB48UOZR8D3KYU","39","0","PEBBLE","6","6","0","15388","PEBBLE ","6","2018-06-28 20:18:36","335691"
"A3V9NNG0SAKPGB","cs_wg_full_v3_pilot1","3TXWC2NHNZRPU2H2V8LUMTXAGYVS9U","26","0","TURKEY","15","6","0","970","Turkey","15","2018-06-28 20:18:36","335692"
"ANUG05IDFTWF","cs_wg_full_v3_pilot1","3KAKFY4PGU3ELMPQ9NQ6REO178M3IZ","34","0","MONKEY","1","6","1","2873","MONKEY","1","2018-06-28 20:18:41","335693"
"AY0758IITCGOZ","cs_wg_full_v3_pilot1","36W0OB37HWFFAKLZOC3UV3S1MQ5HZG","34","0","LIZARD","5","6","1","4174","LIZARD","5","2018-06-28 20:18:42","335694"
"A3V9NNG0SAKPGB","cs_wg_full_v3_pilot1","3TXWC2NHNZRPU2H2V8LUMTXAGYVS9U","27","0","COSTUME","6","6","1","1698","Costume","6","2018-06-28 20:18:46","335695"
"A5J0OW727ZCWY","cs_wg_full_v3_pilot1","32EYX73OY0ABDF5SEUGGSFFS7HMRUW","36","0","RABBIT","5","6","1","6173","rabbit","5","2018-06-28 20:18:48","335696"
"ANUG05IDFTWF","cs_wg_full_v3_pilot1","3KAKFY4PGU3ELMPQ9NQ6REO178M3IZ","35","0","SUNBURN","6","6","0","863","SUNBURN","6","2018-06-28 20:18:49","335697"
"A13KB82N4UMWJZ","cs_wg_full_v3_pilot1","3C6FJU71TQUKAGHESP8A0B8PA41UY1","6","0","BUCKET","15","6","0","3922","Bucket","15","2018-06-28 20:18:49","335698"
"A376VDKE75VP04","cs_wg_full_v3_pilot1","3ATTHHXXWAPQ1KW4TCXUYUD5E3KXIQ","32","0","BANQUET","6","6","0","7627","BANQUET","6","2018-06-28 20:18:53","335699"
"A3V9NNG0SAKPGB","cs_wg_full_v3_pilot1","3TXWC2NHNZRPU2H2V8LUMTXAGYVS9U","28","0","BASKET","1","6","1","1540","Basket","1","2018-06-28 20:18:55","335700"
"AY0758IITCGOZ","cs_wg_full_v3_pilot1","36W0OB37HWFFAKLZOC3UV3S1MQ5HZG","35","0","BICYCLE","7","6","0","4663","BICYCLE","7","2018-06-28 20:18:56","335701"
"ANUG05IDFTWF","cs_wg_full_v3_pilot1","3KAKFY4PGU3ELMPQ9NQ6REO178M3IZ","36","0","CANCER","6","6","0","1326","CANCER","6","2018-06-28 20:18:58","335702"
"A13KB82N4UMWJZ","cs_wg_full_v3_pilot1","3C6FJU71TQUKAGHESP8A0B8PA41UY1","7","0","COSTUME","6","6","0","1918","Costume","6","2018-06-28 20:19:00","335703"
"A3V9NNG0SAKPGB","cs_wg_full_v3_pilot1","3TXWC2NHNZRPU2H2V8LUMTXAGYVS9U","29","0","BASKET","1","6","1","1419","Basket","1","2018-06-28 20:19:04","335704"
"A5J0OW727ZCWY","cs_wg_full_v3_pilot1","32EYX73OY0ABDF5SEUGGSFFS7HMRUW","37","0","CHICKEN","15","6","0","5385","chicken","15","2018-06-28 20:19:04","335705"
"ANUG05IDFTWF","cs_wg_full_v3_pilot1","3KAKFY4PGU3ELMPQ9NQ6REO178M3IZ","37","0","BLANKET","15","6","0","1147","BLANKET","15","2018-06-28 20:19:10","335706"
"AY0758IITCGOZ","cs_wg_full_v3_pilot1","36W0OB37HWFFAKLZOC3UV3S1MQ5HZG","36","0","BICYCLE","7","6","1","3883","BICYCLE","7","2018-06-28 20:19:10","335707"
"A13KB82N4UMWJZ","cs_wg_full_v3_pilot1","3C6FJU71TQUKAGHESP8A0B8PA41UY1","8","0","BUCKET","1","6","0","2197","Bucket","1","2018-06-28 20:19:12","335708"
"A3V9NNG0SAKPGB","cs_wg_full_v3_pilot1","3TXWC2NHNZRPU2H2V8LUMTXAGYVS9U","30","0","COSTUME","6","6","1","1380","Costume","6","2018-06-28 20:19:13","335709"
"A376VDKE75VP04","cs_wg_full_v3_pilot1","3ATTHHXXWAPQ1KW4TCXUYUD5E3KXIQ","33","0","WIZARD","7","6","1","3945","WIZARD","7","2018-06-28 20:19:17","335710"
"ANUG05IDFTWF","cs_wg_full_v3_pilot1","3KAKFY4PGU3ELMPQ9NQ6REO178M3IZ","38","0","MONKEY","1","6","1","1424","MONKEY","1","2018-06-28 20:19:18","335711"
"A5J0OW727ZCWY","cs_wg_full_v3_pilot1","32EYX73OY0ABDF5SEUGGSFFS7HMRUW","38","0","SQUARE","7","6","0","5759","square","7","2018-06-28 20:19:21","335712"
"A3V9NNG0SAKPGB","cs_wg_full_v3_pilot1","3TXWC2NHNZRPU2H2V8LUMTXAGYVS9U","31","0","COSTUME","6","6","1","1631","Costume","6","2018-06-28 20:19:22","335713"
"A13KB82N4UMWJZ","cs_wg_full_v3_pilot1","3C6FJU71TQUKAGHESP8A0B8PA41UY1","9","0","BUCKET","15","6","0","1199","Bucket","15","2018-06-28 20:19:24","335714"
"AY0758IITCGOZ","cs_wg_full_v3_pilot1","36W0OB37HWFFAKLZOC3UV3S1MQ5HZG","37","0","SMOKER","1","6","1","4265","SMOKER","1","2018-06-28 20:19:25","335715"
"ANUG05IDFTWF","cs_wg_full_v3_pilot1","3KAKFY4PGU3ELMPQ9NQ6REO178M3IZ","39","0","BLANKET","15","6","0","1037","BLANKET","15","2018-06-28 20:19:27","335716"
"A3V9NNG0SAKPGB","cs_wg_full_v3_pilot1","3TXWC2NHNZRPU2H2V8LUMTXAGYVS9U","32","0","BASKET","1","6","1","1173","Basket","1","2018-06-28 20:19:30","335717"
"A13KB82N4UMWJZ","cs_wg_full_v3_pilot1","3C6FJU71TQUKAGHESP8A0B8PA41UY1","10","0","BANANA","6","6","0","1736","Banana","6","2018-06-28 20:19:34","335718"
"A376VDKE75VP04","cs_wg_full_v3_pilot1","3ATTHHXXWAPQ1KW4TCXUYUD5E3KXIQ","34","0","WIZARD","7","6","0","6404","WIZARD","7","2018-06-28 20:19:39","335719"
"AY0758IITCGOZ","cs_wg_full_v3_pilot1","36W0OB37HWFFAKLZOC3UV3S1MQ5HZG","38","0","TOMATO","7","6","0","4767","TOMATO","7","2018-06-28 20:19:39","335720"
"A3V9NNG0SAKPGB","cs_wg_full_v3_pilot1","3TXWC2NHNZRPU2H2V8LUMTXAGYVS9U","33","0","TOMATO","6","6","1","1514","Tomato","6","2018-06-28 20:19:39","335721"
"A5J0OW727ZCWY","cs_wg_full_v3_pilot1","32EYX73OY0ABDF5SEUGGSFFS7HMRUW","39","0","BICYCLE","7","6","0","6406","bicycle","7","2018-06-28 20:19:40","335722"
"A13KB82N4UMWJZ","cs_wg_full_v3_pilot1","3C6FJU71TQUKAGHESP8A0B8PA41UY1","11","0","COSTUME","6","6","0","1490","Costume","6","2018-06-28 20:19:43","335723"
"A3V9NNG0SAKPGB","cs_wg_full_v3_pilot1","3TXWC2NHNZRPU2H2V8LUMTXAGYVS9U","34","0","COSTUME","6","6","1","1237","Costume","6","2018-06-28 20:19:48","335724"
"A376VDKE75VP04","cs_wg_full_v3_pilot1","3ATTHHXXWAPQ1KW4TCXUYUD5E3KXIQ","35","0","WIZARD","7","6","0","2354","WIZARD","7","2018-06-28 20:19:50","335725"
"A13KB82N4UMWJZ","cs_wg_full_v3_pilot1","3C6FJU71TQUKAGHESP8A0B8PA41UY1","12","0","BUCKET","15","6","0","1415","Bucket","15","2018-06-28 20:19:55","335726"
"A3V9NNG0SAKPGB","cs_wg_full_v3_pilot1","3TXWC2NHNZRPU2H2V8LUMTXAGYVS9U","35","0","TURKEY","15","6","0","712","Turkey","15","2018-06-28 20:19:57","335727"
"A5J0OW727ZCWY","cs_wg_full_v3_pilot1","32EYX73OY0ABDF5SEUGGSFFS7HMRUW","40","0","AIRBAG","7","6","0","5836","airbag","7","2018-06-28 20:19:57","335728"
"A376VDKE75VP04","cs_wg_full_v3_pilot1","3ATTHHXXWAPQ1KW4TCXUYUD5E3KXIQ","36","0","WIZARD","5","6","0","1394","WIZARD","5","2018-06-28 20:20:02","335729"
"A3V9NNG0SAKPGB","cs_wg_full_v3_pilot1","3TXWC2NHNZRPU2H2V8LUMTXAGYVS9U","36","0","TURKEY","15","6","0","1080","Turkey","15","2018-06-28 20:20:06","335730"
"AY0758IITCGOZ","cs_wg_full_v3_pilot1","36W0OB37HWFFAKLZOC3UV3S1MQ5HZG","39","0","TOMATO","7","6","1","12952","TOMATO","7","2018-06-28 20:20:06","335731"
"A13KB82N4UMWJZ","cs_wg_full_v3_pilot1","3C6FJU71TQUKAGHESP8A0B8PA41UY1","13","0","BUCKET","1","6","0","1698","Bucket","1","2018-06-28 20:20:08","335732"
"A5J0OW727ZCWY","cs_wg_full_v3_pilot1","32EYX73OY0ABDF5SEUGGSFFS7HMRUW","41","0","COMPANY","6","6","0","6126","company","6","2018-06-28 20:20:13","335733"
"A3V9NNG0SAKPGB","cs_wg_full_v3_pilot1","3TXWC2NHNZRPU2H2V8LUMTXAGYVS9U","37","0","BASKET","1","6","1","1057","Basket","1","2018-06-28 20:20:14","335734"
"A13KB82N4UMWJZ","cs_wg_full_v3_pilot1","3C6FJU71TQUKAGHESP8A0B8PA41UY1","14","0","BANANA","6","6","0","1298","Banana","6","2018-06-28 20:20:17","335735"
"A376VDKE75VP04","cs_wg_full_v3_pilot1","3ATTHHXXWAPQ1KW4TCXUYUD5E3KXIQ","37","0","BAMBOO","5","6","1","4454","BAMBOO","5","2018-06-28 20:20:17","335736"
"AY0758IITCGOZ","cs_wg_full_v3_pilot1","36W0OB37HWFFAKLZOC3UV3S1MQ5HZG","40","0","SMOKER","1","6","1","3806","SMOKER","1","2018-06-28 20:20:22","335737"
"A3V9NNG0SAKPGB","cs_wg_full_v3_pilot1","3TXWC2NHNZRPU2H2V8LUMTXAGYVS9U","38","0","TURKEY","15","6","0","724","Turkey","15","2018-06-28 20:20:22","335738"
"A13KB82N4UMWJZ","cs_wg_full_v3_pilot1","3C6FJU71TQUKAGHESP8A0B8PA41UY1","15","0","BUCKET","1","6","0","881","Bucket","1","2018-06-28 20:20:27","335739"
"A376VDKE75VP04","cs_wg_full_v3_pilot1","3ATTHHXXWAPQ1KW4TCXUYUD5E3KXIQ","38","0","WIZARD","5","6","0","1598","WIZARD","5","2018-06-28 20:20:30","335740"
"A5J0OW727ZCWY","cs_wg_full_v3_pilot1","32EYX73OY0ABDF5SEUGGSFFS7HMRUW","42","0","BICYCLE","7","6","0","7767","bicycle","7","2018-06-28 20:20:32","335741"
"A3V9NNG0SAKPGB","cs_wg_full_v3_pilot1","3TXWC2NHNZRPU2H2V8LUMTXAGYVS9U","39","0","TOMATO","6","6","1","1786","Tomato","6","2018-06-28 20:20:32","335742"
"AY0758IITCGOZ","cs_wg_full_v3_pilot1","36W0OB37HWFFAKLZOC3UV3S1MQ5HZG","41","0","BICYCLE","7","6","1","3735","BICYCLE","7","2018-06-28 20:20:35","335743"
"A13KB82N4UMWJZ","cs_wg_full_v3_pilot1","3C6FJU71TQUKAGHESP8A0B8PA41UY1","16","0","BUCKET","1","6","0","602","Bucket","1","2018-06-28 20:20:36","335744"
"A13KB82N4UMWJZ","cs_wg_full_v3_pilot1","3C6FJU71TQUKAGHESP8A0B8PA41UY1","17","0","COSTUME","6","6","0","1246","Costume","6","2018-06-28 20:20:46","335745"
"A5J0OW727ZCWY","cs_wg_full_v3_pilot1","32EYX73OY0ABDF5SEUGGSFFS7HMRUW","43","0","SQUARE","7","6","0","4203","square","7","2018-06-28 20:20:46","335746"
"AY0758IITCGOZ","cs_wg_full_v3_pilot1","36W0OB37HWFFAKLZOC3UV3S1MQ5HZG","42","0","BANANA","7","6","0","4631","BANANA","7","2018-06-28 20:20:49","335747"
"A376VDKE75VP04","cs_wg_full_v3_pilot1","3ATTHHXXWAPQ1KW4TCXUYUD5E3KXIQ","39","0","SMOKER","1","6","1","2839","SMOKER","1","2018-06-28 20:20:56","335748"
"A13KB82N4UMWJZ","cs_wg_full_v3_pilot1","3C6FJU71TQUKAGHESP8A0B8PA41UY1","18","0","COSTUME","6","6","0","2626","Costume","6","2018-06-28 20:20:57","335749"
"A5J0OW727ZCWY","cs_wg_full_v3_pilot1","32EYX73OY0ABDF5SEUGGSFFS7HMRUW","44","0","GARBAGE","5","6","1","7644","garbage","5","2018-06-28 20:21:06","335750"
"A13KB82N4UMWJZ","cs_wg_full_v3_pilot1","3C6FJU71TQUKAGHESP8A0B8PA41UY1","19","0","BANANA","6","6","0","1277","Banana","6","2018-06-28 20:21:07","335751"
"AY0758IITCGOZ","cs_wg_full_v3_pilot1","36W0OB37HWFFAKLZOC3UV3S1MQ5HZG","43","0","LIZARD","5","6","1","4303","LIZARD","5","2018-06-28 20:21:09","335752"
"A376VDKE75VP04","cs_wg_full_v3_pilot1","3ATTHHXXWAPQ1KW4TCXUYUD5E3KXIQ","40","0","PELICAN","5","6","1","7625","PELICAN","5","2018-06-28 20:21:15","335753"
"A13KB82N4UMWJZ","cs_wg_full_v3_pilot1","3C6FJU71TQUKAGHESP8A0B8PA41UY1","20","0","BUCKET","1","6","0","1053","Bucket","1","2018-06-28 20:21:17","335754"
"AY0758IITCGOZ","cs_wg_full_v3_pilot1","36W0OB37HWFFAKLZOC3UV3S1MQ5HZG","44","0","VOLCANO","7","6","1","2314",,,"2018-06-28 20:21:18","335755"
"A5J0OW727ZCWY","cs_wg_full_v3_pilot1","32EYX73OY0ABDF5SEUGGSFFS7HMRUW","45","0","RABBIT","5","6","1","6821","rabbit","5","2018-06-28 20:21:26","335756"
"AY0758IITCGOZ","cs_wg_full_v3_pilot1","36W0OB37HWFFAKLZOC3UV3S1MQ5HZG","45","0","PELICAN","5","6","1","1455",,,"2018-06-28 20:21:27","335757"
"A13KB82N4UMWJZ","cs_wg_full_v3_pilot1","3C6FJU71TQUKAGHESP8A0B8PA41UY1","21","0","BUCKET","1","6","0","1342","Bucket","1","2018-06-28 20:21:28","335758"
"A376VDKE75VP04","cs_wg_full_v3_pilot1","3ATTHHXXWAPQ1KW4TCXUYUD5E3KXIQ","41","0","ARCADE","6","6","0","7662","ARCADE","6","2018-06-28 20:21:31","335759"
"AY0758IITCGOZ","cs_wg_full_v3_pilot1","36W0OB37HWFFAKLZOC3UV3S1MQ5HZG","46","0","PELICAN","5","6","1","1651",,,"2018-06-28 20:21:34","335760"
"A13KB82N4UMWJZ","cs_wg_full_v3_pilot1","3C6FJU71TQUKAGHESP8A0B8PA41UY1","22","0","BUCKET","1","6","0","1670","Bucket","1","2018-06-28 20:21:39","335761"
"A5J0OW727ZCWY","cs_wg_full_v3_pilot1","32EYX73OY0ABDF5SEUGGSFFS7HMRUW","46","0","PICKLE","1","6","1","2297","pickle","1","2018-06-28 20:21:39","335762"
"AY0758IITCGOZ","cs_wg_full_v3_pilot1","36W0OB37HWFFAKLZOC3UV3S1MQ5HZG","47","0","TOMATO","7","6","0","2978",,,"2018-06-28 20:21:43","335763"
"A376VDKE75VP04","cs_wg_full_v3_pilot1","3ATTHHXXWAPQ1KW4TCXUYUD5E3KXIQ","42","0","PELICAN","5","6","1","7154","PELICAN","5","2018-06-28 20:21:48","335764"
"A13KB82N4UMWJZ","cs_wg_full_v3_pilot1","3C6FJU71TQUKAGHESP8A0B8PA41UY1","23","0","COSTUME","6","6","0","1221","Costume","6","2018-06-28 20:21:48","335765"
"AY0758IITCGOZ","cs_wg_full_v3_pilot1","36W0OB37HWFFAKLZOC3UV3S1MQ5HZG","48","0","SMOKER","1","6","0","2234",,,"2018-06-28 20:21:49","335766"
"AY0758IITCGOZ","cs_wg_full_v3_pilot1","36W0OB37HWFFAKLZOC3UV3S1MQ5HZG","49","0","LIZARD","5","6","1","2215",,,"2018-06-28 20:21:57","335767"
"A5J0OW727ZCWY","cs_wg_full_v3_pilot1","32EYX73OY0ABDF5SEUGGSFFS7HMRUW","47","0","TOMATO","5","6","1","8241","tomato","5","2018-06-28 20:21:59","335768"
"A13KB82N4UMWJZ","cs_wg_full_v3_pilot1","3C6FJU71TQUKAGHESP8A0B8PA41UY1","24","0","BANANA","6","6","0","4349","Banana","6","2018-06-28 20:22:01","335769"
"AY0758IITCGOZ","cs_wg_full_v3_pilot1","36W0OB37HWFFAKLZOC3UV3S1MQ5HZG","50","0","PEBBLE","6","6","0","2886",,,"2018-06-28 20:22:05","335770"
"A376VDKE75VP04","cs_wg_full_v3_pilot1","3ATTHHXXWAPQ1KW4TCXUYUD5E3KXIQ","43","0","WIZARD","7","6","0","6418","WIZARD","7","2018-06-28 20:22:06","335771"
"A13KB82N4UMWJZ","cs_wg_full_v3_pilot1","3C6FJU71TQUKAGHESP8A0B8PA41UY1","25","0","BANANA","6","6","0","1898","Banana","6","2018-06-28 20:22:11","335772"
"AY0758IITCGOZ","cs_wg_full_v3_pilot1","36W0OB37HWFFAKLZOC3UV3S1MQ5HZG","51","0","BICYCLE","7","6","0","1395",,,"2018-06-28 20:22:11","335773"
"A5J0OW727ZCWY","cs_wg_full_v3_pilot1","32EYX73OY0ABDF5SEUGGSFFS7HMRUW","48","0","PICKLE","1","6","1","5695","pickle","1","2018-06-28 20:22:14","335774"
"A13KB82N4UMWJZ","cs_wg_full_v3_pilot1","3C6FJU71TQUKAGHESP8A0B8PA41UY1","26","0","COSTUME","6","6","0","1416","Costume","6","2018-06-28 20:22:21","335775"
"AY0758IITCGOZ","cs_wg_full_v3_pilot1","36W0OB37HWFFAKLZOC3UV3S1MQ5HZG","52","0","VOLCANO","7","6","0","4311",,,"2018-06-28 20:22:21","335776"
"A376VDKE75VP04","cs_wg_full_v3_pilot1","3ATTHHXXWAPQ1KW4TCXUYUD5E3KXIQ","44","0","GRENADE","7","6","0","7204","GRENADE","7","2018-06-28 20:22:22","335777"
"AY0758IITCGOZ","cs_wg_full_v3_pilot1","36W0OB37HWFFAKLZOC3UV3S1MQ5HZG","53","0","BANANA","7","6","0","1306",,,"2018-06-28 20:22:29","335778"
"A13KB82N4UMWJZ","cs_wg_full_v3_pilot1","3C6FJU71TQUKAGHESP8A0B8PA41UY1","27","0","BUCKET","15","6","1","1763","Bucket","15","2018-06-28 20:22:32","335779"
"A5J0OW727ZCWY","cs_wg_full_v3_pilot1","32EYX73OY0ABDF5SEUGGSFFS7HMRUW","49","0","COSTUME","6","6","1","3895","costume","6","2018-06-28 20:22:32","335780"
"AY0758IITCGOZ","cs_wg_full_v3_pilot1","36W0OB37HWFFAKLZOC3UV3S1MQ5HZG","54","0","PEBBLE","6","6","1","1431",,,"2018-06-28 20:22:36","335781"
"A376VDKE75VP04","cs_wg_full_v3_pilot1","3ATTHHXXWAPQ1KW4TCXUYUD5E3KXIQ","45","0","ARCADE","6","6","0","6407","ARCADE","6","2018-06-28 20:22:37","335782"
"A13KB82N4UMWJZ","cs_wg_full_v3_pilot1","3C6FJU71TQUKAGHESP8A0B8PA41UY1","28","0","BUCKET","15","6","0","1041","Bucket","15","2018-06-28 20:22:43","335783"
"AY0758IITCGOZ","cs_wg_full_v3_pilot1","36W0OB37HWFFAKLZOC3UV3S1MQ5HZG","55","0","SMOKER","1","6","1","1581",,,"2018-06-28 20:22:44","335784"
"A376VDKE75VP04","cs_wg_full_v3_pilot1","3ATTHHXXWAPQ1KW4TCXUYUD5E3KXIQ","46","0","CRICKET","15","6","0","1659","CRICKET","15","2018-06-28 20:22:47","335785"
"A5J0OW727ZCWY","cs_wg_full_v3_pilot1","32EYX73OY0ABDF5SEUGGSFFS7HMRUW","50","0","PICKLE","1","6","1","5991","pickle","1","2018-06-28 20:22:48","335786"
"AY0758IITCGOZ","cs_wg_full_v3_pilot1","36W0OB37HWFFAKLZOC3UV3S1MQ5HZG","56","0","PEBBLE","6","6","0","1478",,,"2018-06-28 20:22:50","335787"
"A13KB82N4UMWJZ","cs_wg_full_v3_pilot1","3C6FJU71TQUKAGHESP8A0B8PA41UY1","29","0","BUCKET","1","6","0","1018","Bucket","1","2018-06-28 20:22:53","335788"
"AY0758IITCGOZ","cs_wg_full_v3_pilot1","36W0OB37HWFFAKLZOC3UV3S1MQ5HZG","57","0","PELICAN","5","6","1","1458",,,"2018-06-28 20:22:57","335789"
"A3C31Q12GIH1JE","cs_wg_full_v3_pilot1","3N4BPTXIO8TPQBSXOA7JR3TECPTKUX","0","0","BAMBOO","5","6","0","7626","bamboo","5","2018-06-28 20:22:58","335790"
"A5J0OW727ZCWY","cs_wg_full_v3_pilot1","32EYX73OY0ABDF5SEUGGSFFS7HMRUW","51","0","TOMATO","5","6","1","4389","tomato","5","2018-06-28 20:23:02","335791"
"AY0758IITCGOZ","cs_wg_full_v3_pilot1","36W0OB37HWFFAKLZOC3UV3S1MQ5HZG","58","0","PELICAN","5","6","1","1295",,,"2018-06-28 20:23:02","335792"
"A13KB82N4UMWJZ","cs_wg_full_v3_pilot1","3C6FJU71TQUKAGHESP8A0B8PA41UY1","30","0","BANANA","6","6","0","1932","Banana","6","2018-06-28 20:23:03","335793"
"AY0758IITCGOZ","cs_wg_full_v3_pilot1","36W0OB37HWFFAKLZOC3UV3S1MQ5HZG","59","0","TOMATO","7","6","0","1458",,,"2018-06-28 20:23:10","335794"
"A13KB82N4UMWJZ","cs_wg_full_v3_pilot1","3C6FJU71TQUKAGHESP8A0B8PA41UY1","31","0","BUCKET","15","6","0","1979","Bucket","15","2018-06-28 20:23:14","335795"
"A376VDKE75VP04","cs_wg_full_v3_pilot1","3ATTHHXXWAPQ1KW4TCXUYUD5E3KXIQ","47","0","BANANA","7","6","1","4248","BANANA","7","2018-06-28 20:23:15","335796"
"AY0758IITCGOZ","cs_wg_full_v3_pilot1","36W0OB37HWFFAKLZOC3UV3S1MQ5HZG","60","0","GARBAGE","5","6","1","1328",,,"2018-06-28 20:23:16","335797"
"A5J0OW727ZCWY","cs_wg_full_v3_pilot1","32EYX73OY0ABDF5SEUGGSFFS7HMRUW","52","0","AIRBAG","7","6","0","4229","airbag","7","2018-06-28 20:23:16","335798"
"A3C31Q12GIH1JE","cs_wg_full_v3_pilot1","3N4BPTXIO8TPQBSXOA7JR3TECPTKUX","1","0","PALACE","5","6","0","8467","palace","6","2018-06-28 20:23:18","335799"
"A13KB82N4UMWJZ","cs_wg_full_v3_pilot1","3C6FJU71TQUKAGHESP8A0B8PA41UY1","32","0","BANANA","6","6","0","1106","Banana","6","2018-06-28 20:23:23","335800"
"AY0758IITCGOZ","cs_wg_full_v3_pilot1","36W0OB37HWFFAKLZOC3UV3S1MQ5HZG","61","0","BANANA","7","6","0","1866",,,"2018-06-28 20:23:24","335801"
"A376VDKE75VP04","cs_wg_full_v3_pilot1","3ATTHHXXWAPQ1KW4TCXUYUD5E3KXIQ","48","0","WIZARD","5","6","0","3042","WIZARD","5","2018-06-28 20:23:29","335802"
"A5J0OW727ZCWY","cs_wg_full_v3_pilot1","32EYX73OY0ABDF5SEUGGSFFS7HMRUW","53","0","COMPANY","6","6","0","4573","company","6","2018-06-28 20:23:31","335803"
"AY0758IITCGOZ","cs_wg_full_v3_pilot1","36W0OB37HWFFAKLZOC3UV3S1MQ5HZG","62","0","SMOKER","1","6","1","2306",,,"2018-06-28 20:23:31","335804"
"A3C31Q12GIH1JE","cs_wg_full_v3_pilot1","3N4BPTXIO8TPQBSXOA7JR3TECPTKUX","2","0","PALACE","5","6","0","3297","palace","5","2018-06-28 20:23:32","335805"
"A13KB82N4UMWJZ","cs_wg_full_v3_pilot1","3C6FJU71TQUKAGHESP8A0B8PA41UY1","33","0","BUCKET","15","6","0","973","Bucket","15","2018-06-28 20:23:33","335806"
"AY0758IITCGOZ","cs_wg_full_v3_pilot1","36W0OB37HWFFAKLZOC3UV3S1MQ5HZG","63","0","TOMATO","7","6","0","1120",,,"2018-06-28 20:23:37","335807"
"A376VDKE75VP04","cs_wg_full_v3_pilot1","3ATTHHXXWAPQ1KW4TCXUYUD5E3KXIQ","49","0","SMOKER","1","6","1","3418","SMOKER","1","2018-06-28 20:23:41","335808"
"A13KB82N4UMWJZ","cs_wg_full_v3_pilot1","3C6FJU71TQUKAGHESP8A0B8PA41UY1","34","0","BANANA","6","6","0","827","Banana","6","2018-06-28 20:23:42","335809"
"AY0758IITCGOZ","cs_wg_full_v3_pilot1","36W0OB37HWFFAKLZOC3UV3S1MQ5HZG","64","0","PELICAN","5","6","0","1276",,,"2018-06-28 20:23:44","335810"
"A5J0OW727ZCWY","cs_wg_full_v3_pilot1","32EYX73OY0ABDF5SEUGGSFFS7HMRUW","54","0","AIRBAG","7","6","0","3887","airbag 7",,"2018-06-28 20:23:47","335811"
"A3C31Q12GIH1JE","cs_wg_full_v3_pilot1","3N4BPTXIO8TPQBSXOA7JR3TECPTKUX","3","0","BAMBOO","5","6","0","4931","bamboo","6","2018-06-28 20:23:50","335812"
"AY0758IITCGOZ","cs_wg_full_v3_pilot1","36W0OB37HWFFAKLZOC3UV3S1MQ5HZG","65","0","SUNBURN","6","6","1","1794",,,"2018-06-28 20:23:51","335813"
"A13KB82N4UMWJZ","cs_wg_full_v3_pilot1","3C6FJU71TQUKAGHESP8A0B8PA41UY1","35","0","BUCKET","15","6","0","2409","Bucket","15","2018-06-28 20:23:53","335814"
"A376VDKE75VP04","cs_wg_full_v3_pilot1","3ATTHHXXWAPQ1KW4TCXUYUD5E3KXIQ","50","0","BANANA","7","6","0","3934","BANANA","7","2018-06-28 20:23:53","335815"
"AY0758IITCGOZ","cs_wg_full_v3_pilot1","36W0OB37HWFFAKLZOC3UV3S1MQ5HZG","66","0","LIZARD","5","6","1","2110",,,"2018-06-28 20:23:58","335816"
"A13KB82N4UMWJZ","cs_wg_full_v3_pilot1","3C6FJU71TQUKAGHESP8A0B8PA41UY1","36","0","BUCKET","15","6","0","1304","Bucket","15","2018-06-28 20:24:03","335817"
"A3C31Q12GIH1JE","cs_wg_full_v3_pilot1","3N4BPTXIO8TPQBSXOA7JR3TECPTKUX","4","0","AVOCADO","5","6","0","5946","AVOCADO","5","2018-06-28 20:24:05","335818"
"AY0758IITCGOZ","cs_wg_full_v3_pilot1","36W0OB37HWFFAKLZOC3UV3S1MQ5HZG","67","0","GARBAGE","5","6","1","2076",,,"2018-06-28 20:24:06","335819"
"A5J0OW727ZCWY","cs_wg_full_v3_pilot1","32EYX73OY0ABDF5SEUGGSFFS7HMRUW","55","0","AVOCADO","7","6","0","8259","avacdo","7","2018-06-28 20:24:06","335820"
"A13KB82N4UMWJZ","cs_wg_full_v3_pilot1","3C6FJU71TQUKAGHESP8A0B8PA41UY1","37","0","BUCKET","1","6","0","562","Bucket","1","2018-06-28 20:24:11","335821"
"AY0758IITCGOZ","cs_wg_full_v3_pilot1","36W0OB37HWFFAKLZOC3UV3S1MQ5HZG","68","0","CHICKEN","15","6","0","1866",,,"2018-06-28 20:24:12","335822"
"A376VDKE75VP04","cs_wg_full_v3_pilot1","3ATTHHXXWAPQ1KW4TCXUYUD5E3KXIQ","51","0","ARCADE","6","6","0","7321","ARCADE","6","2018-06-28 20:24:13","335823"
"A5J0OW727ZCWY","cs_wg_full_v3_pilot1","32EYX73OY0ABDF5SEUGGSFFS7HMRUW","56","0","PICKLE","1","6","1","2849","pickle","1","2018-06-28 20:24:18","335824"
"AY0758IITCGOZ","cs_wg_full_v3_pilot1","36W0OB37HWFFAKLZOC3UV3S1MQ5HZG","69","0","CHICKEN","15","6","0","1093",,,"2018-06-28 20:24:19","335825"
"A13KB82N4UMWJZ","cs_wg_full_v3_pilot1","3C6FJU71TQUKAGHESP8A0B8PA41UY1","38","0","BUCKET","1","6","0","838","Bucket","1","2018-06-28 20:24:21","335826"
"A3C31Q12GIH1JE","cs_wg_full_v3_pilot1","3N4BPTXIO8TPQBSXOA7JR3TECPTKUX","5","0","BAMBOO","5","6","0","2107","bamboo","5","2018-06-28 20:24:23","335827"
"AY0758IITCGOZ","cs_wg_full_v3_pilot1","36W0OB37HWFFAKLZOC3UV3S1MQ5HZG","70","0","PEBBLE","6","6","1","1250",,,"2018-06-28 20:24:27","335828"
"A13KB82N4UMWJZ","cs_wg_full_v3_pilot1","3C6FJU71TQUKAGHESP8A0B8PA41UY1","39","0","COSTUME","6","6","0","1746","Costume","6","2018-06-28 20:24:31","335829"
"AY0758IITCGOZ","cs_wg_full_v3_pilot1","36W0OB37HWFFAKLZOC3UV3S1MQ5HZG","71","0","LIZARD","5","6","1","1292",,,"2018-06-28 20:24:33","335830"
"A376VDKE75VP04","cs_wg_full_v3_pilot1","3ATTHHXXWAPQ1KW4TCXUYUD5E3KXIQ","52","0","ACROBAT","5","6","1","5481","ACROBAT","5","2018-06-28 20:24:34","335831"
"A3C31Q12GIH1JE","cs_wg_full_v3_pilot1","3N4BPTXIO8TPQBSXOA7JR3TECPTKUX","6","0","BAMBOO","5","6","0","5130","bamboo","5","2018-06-28 20:24:38","335832"
"A5J0OW727ZCWY","cs_wg_full_v3_pilot1","32EYX73OY0ABDF5SEUGGSFFS7HMRUW","57","0","AIRBAG","7","6","0","4726","airbag ","7","2018-06-28 20:24:38","335833"
"AY0758IITCGOZ","cs_wg_full_v3_pilot1","36W0OB37HWFFAKLZOC3UV3S1MQ5HZG","72","0","CHICKEN","15","6","0","1419",,,"2018-06-28 20:24:40","335834"
"AY0758IITCGOZ","cs_wg_full_v3_pilot1","36W0OB37HWFFAKLZOC3UV3S1MQ5HZG","73","0","SMOKER","1","6","0","1180",,,"2018-06-28 20:24:47","335835"
"A3C31Q12GIH1JE","cs_wg_full_v3_pilot1","3N4BPTXIO8TPQBSXOA7JR3TECPTKUX","7","0","PALACE","5","6","0","1803","palace","5","2018-06-28 20:24:49","335836"
"A376VDKE75VP04","cs_wg_full_v3_pilot1","3ATTHHXXWAPQ1KW4TCXUYUD5E3KXIQ","53","0","ACROBAT","5","6","0","9740","ACROBAT","5","2018-06-28 20:24:53","335837"
"A5J0OW727ZCWY","cs_wg_full_v3_pilot1","32EYX73OY0ABDF5SEUGGSFFS7HMRUW","58","0","TOMATO","5","6","1","5753","tomato","5","2018-06-28 20:24:54","335838"
"AY0758IITCGOZ","cs_wg_full_v3_pilot1","36W0OB37HWFFAKLZOC3UV3S1MQ5HZG","74","0","PEBBLE","6","6","1","1243",,,"2018-06-28 20:24:55","335839"
"A3C31Q12GIH1JE","cs_wg_full_v3_pilot1","3N4BPTXIO8TPQBSXOA7JR3TECPTKUX","8","0","AIRBAG","7","6","0","2690","airbag","6","2018-06-28 20:25:01","335840"
"AY0758IITCGOZ","cs_wg_full_v3_pilot1","36W0OB37HWFFAKLZOC3UV3S1MQ5HZG","75","0","CHICKEN","15","6","0","3074",,,"2018-06-28 20:25:03","335841"
"A5J0OW727ZCWY","cs_wg_full_v3_pilot1","32EYX73OY0ABDF5SEUGGSFFS7HMRUW","59","0","SQUARE","7","6","0","3818","square","7","2018-06-28 20:25:09","335842"
"A376VDKE75VP04","cs_wg_full_v3_pilot1","3ATTHHXXWAPQ1KW4TCXUYUD5E3KXIQ","54","0","BAMBOO","5","6","1","4783","BAMBOO","5","2018-06-28 20:25:10","335843"
"AY0758IITCGOZ","cs_wg_full_v3_pilot1","36W0OB37HWFFAKLZOC3UV3S1MQ5HZG","76","0","SUNBURN","6","6","1","1481",,,"2018-06-28 20:25:13","335844"
"A3C31Q12GIH1JE","cs_wg_full_v3_pilot1","3N4BPTXIO8TPQBSXOA7JR3TECPTKUX","9","0","COMPANY","7","6","0","2572","company","6","2018-06-28 20:25:14","335845"
"AY0758IITCGOZ","cs_wg_full_v3_pilot1","36W0OB37HWFFAKLZOC3UV3S1MQ5HZG","77","0","BANANA","7","6","0","1543",,,"2018-06-28 20:25:19","335846"
"A5J0OW727ZCWY","cs_wg_full_v3_pilot1","32EYX73OY0ABDF5SEUGGSFFS7HMRUW","60","0","PICKLE","1","6","1","2080","pickle","1","2018-06-28 20:25:24","335847"
"A3C31Q12GIH1JE","cs_wg_full_v3_pilot1","3N4BPTXIO8TPQBSXOA7JR3TECPTKUX","10","0","LIQUID","6","6","0","2706","liquid","6","2018-06-28 20:25:26","335848"
"AY0758IITCGOZ","cs_wg_full_v3_pilot1","36W0OB37HWFFAKLZOC3UV3S1MQ5HZG","78","0","PELICAN","5","6","1","1534",,,"2018-06-28 20:25:26","335849"
"A376VDKE75VP04","cs_wg_full_v3_pilot1","3ATTHHXXWAPQ1KW4TCXUYUD5E3KXIQ","55","0","WIZARD","5","6","1","4006","WIZARD","5","2018-06-28 20:25:27","335850"
"AY0758IITCGOZ","cs_wg_full_v3_pilot1","36W0OB37HWFFAKLZOC3UV3S1MQ5HZG","79","0","SUNBURN","6","6","1","1712",,,"2018-06-28 20:25:33","335851"
"A3C31Q12GIH1JE","cs_wg_full_v3_pilot1","3N4BPTXIO8TPQBSXOA7JR3TECPTKUX","11","0","AVOCADO","6","6","0","5178","AVOCADO","6","2018-06-28 20:25:39","335852"
"A5J0OW727ZCWY","cs_wg_full_v3_pilot1","32EYX73OY0ABDF5SEUGGSFFS7HMRUW","61","0","AVOCADO","7","6","0","5600","avacado","7","2018-06-28 20:25:41","335853"
"AY0758IITCGOZ","cs_wg_full_v3_pilot1","36W0OB37HWFFAKLZOC3UV3S1MQ5HZG","80","0","VOLCANO","7","6","0","5212",,,"2018-06-28 20:25:43","335854"
"A376VDKE75VP04","cs_wg_full_v3_pilot1","3ATTHHXXWAPQ1KW4TCXUYUD5E3KXIQ","56","0","ARCADE","6","6","1","7561","ARCADE","6","2018-06-28 20:25:45","335855"
"AY0758IITCGOZ","cs_wg_full_v3_pilot1","36W0OB37HWFFAKLZOC3UV3S1MQ5HZG","81","0","PEBBLE","6","6","1","1254",,,"2018-06-28 20:25:50","335856"
"A3C31Q12GIH1JE","cs_wg_full_v3_pilot1","3N4BPTXIO8TPQBSXOA7JR3TECPTKUX","12","0","AIRBAG","7","6","0","1690","airbag","6","2018-06-28 20:25:51","335857"
"AY0758IITCGOZ","cs_wg_full_v3_pilot1","36W0OB37HWFFAKLZOC3UV3S1MQ5HZG","82","0","GARBAGE","5","6","1","1858",,,"2018-06-28 20:25:56","335858"
"A376VDKE75VP04","cs_wg_full_v3_pilot1","3ATTHHXXWAPQ1KW4TCXUYUD5E3KXIQ","57","0","CRICKET","15","6","0","3224","CRICKET","15","2018-06-28 20:25:58","335859"
"AY0758IITCGOZ","cs_wg_full_v3_pilot1","36W0OB37HWFFAKLZOC3UV3S1MQ5HZG","83","0","PELICAN","5","6","1","1218",,,"2018-06-28 20:26:02","335860"
"A3C31Q12GIH1JE","cs_wg_full_v3_pilot1","3N4BPTXIO8TPQBSXOA7JR3TECPTKUX","13","0","BAMBOO","5","6","0","1673","bamboo","6","2018-06-28 20:26:05","335861"
"A5J0OW727ZCWY","cs_wg_full_v3_pilot1","32EYX73OY0ABDF5SEUGGSFFS7HMRUW","62","0","LIZARD","5","6","1","6632","lizaed","5","2018-06-28 20:26:05","335862"
"AY0758IITCGOZ","cs_wg_full_v3_pilot1","36W0OB37HWFFAKLZOC3UV3S1MQ5HZG","84","0","VOLCANO","7","6","1","1186",,,"2018-06-28 20:26:08","335863"
"A376VDKE75VP04","cs_wg_full_v3_pilot1","3ATTHHXXWAPQ1KW4TCXUYUD5E3KXIQ","58","0","ACROBAT","5","6","1","6829","ACROBAT","5","2018-06-28 20:26:21","335864"
"AY0758IITCGOZ","cs_wg_full_v3_pilot1","36W0OB37HWFFAKLZOC3UV3S1MQ5HZG","85","0","SUNBURN","6","6","1","1487",,,"2018-06-28 20:26:22","335865"
"A3C31Q12GIH1JE","cs_wg_full_v3_pilot1","3N4BPTXIO8TPQBSXOA7JR3TECPTKUX","14","0","BICYCLE","5","6","0","3759","bamboo","5","2018-06-28 20:26:22","335866"
"A5J0OW727ZCWY","cs_wg_full_v3_pilot1","32EYX73OY0ABDF5SEUGGSFFS7HMRUW","63","0","BICYCLE","7","6","0","5880","bicycle","7","2018-06-28 20:26:22","335867"
"AY0758IITCGOZ","cs_wg_full_v3_pilot1","36W0OB37HWFFAKLZOC3UV3S1MQ5HZG","86","0","VOLCANO","7","6","0","4009",,,"2018-06-28 20:26:30","335868"
"A3C31Q12GIH1JE","cs_wg_full_v3_pilot1","3N4BPTXIO8TPQBSXOA7JR3TECPTKUX","15","0","POTATO","7","6","0","3916","potato","6","2018-06-28 20:26:34","335869"
"A5J0OW727ZCWY","cs_wg_full_v3_pilot1","32EYX73OY0ABDF5SEUGGSFFS7HMRUW","64","0","AIRBAG","7","6","0","3431","airbag","7","2018-06-28 20:26:35","335870"
"AY0758IITCGOZ","cs_wg_full_v3_pilot1","36W0OB37HWFFAKLZOC3UV3S1MQ5HZG","87","0","PELICAN","5","6","0","3658",,,"2018-06-28 20:26:39","335871"
"AY0758IITCGOZ","cs_wg_full_v3_pilot1","36W0OB37HWFFAKLZOC3UV3S1MQ5HZG","88","0","PELICAN","5","6","1","1299",,,"2018-06-28 20:26:45","335872"
"A3C31Q12GIH1JE","cs_wg_full_v3_pilot1","3N4BPTXIO8TPQBSXOA7JR3TECPTKUX","16","0","COMPANY","7","6","0","1069","company","7","2018-06-28 20:26:45","335873"
"A376VDKE75VP04","cs_wg_full_v3_pilot1","3ATTHHXXWAPQ1KW4TCXUYUD5E3KXIQ","59","0","WIZARD","5","6","0","6761","WIZARD","5","2018-06-28 20:26:49","335874"
"A5J0OW727ZCWY","cs_wg_full_v3_pilot1","32EYX73OY0ABDF5SEUGGSFFS7HMRUW","65","0","COMPANY","6","6","0","4131","company","6","2018-06-28 20:26:49","335875"
"AY0758IITCGOZ","cs_wg_full_v3_pilot1","36W0OB37HWFFAKLZOC3UV3S1MQ5HZG","89","0","PEBBLE","6","6","0","1475",,,"2018-06-28 20:26:52","335876"
"AY0758IITCGOZ","cs_wg_full_v3_pilot1","36W0OB37HWFFAKLZOC3UV3S1MQ5HZG","90","0","GARBAGE","5","6","1","1198",,,"2018-06-28 20:26:59","335877"
"A3C31Q12GIH1JE","cs_wg_full_v3_pilot1","3N4BPTXIO8TPQBSXOA7JR3TECPTKUX","17","0","COMPANY","7","6","0","4920","campany","6","2018-06-28 20:27:01","335878"
"A5J0OW727ZCWY","cs_wg_full_v3_pilot1","32EYX73OY0ABDF5SEUGGSFFS7HMRUW","66","0","BICYCLE","7","6","0","4603","bicycle","7","2018-06-28 20:27:05","335879"
"A376VDKE75VP04","cs_wg_full_v3_pilot1","3ATTHHXXWAPQ1KW4TCXUYUD5E3KXIQ","60","0","WIZARD","5","6","1","2421","WIZARD","5","2018-06-28 20:27:06","335880"
"AY0758IITCGOZ","cs_wg_full_v3_pilot1","36W0OB37HWFFAKLZOC3UV3S1MQ5HZG","91","0","PELICAN","5","6","0","1443",,,"2018-06-28 20:27:06","335881"
"AY0758IITCGOZ","cs_wg_full_v3_pilot1","36W0OB37HWFFAKLZOC3UV3S1MQ5HZG","92","0","SMOKER","1","6","1","1275",,,"2018-06-28 20:27:12","335882"
"A3C31Q12GIH1JE","cs_wg_full_v3_pilot1","3N4BPTXIO8TPQBSXOA7JR3TECPTKUX","18","0","AVOCADO","5","6","0","5925","AVOCADO","5","2018-06-28 20:27:16","335883"
"AY0758IITCGOZ","cs_wg_full_v3_pilot1","36W0OB37HWFFAKLZOC3UV3S1MQ5HZG","93","0","PELICAN","5","6","1","1342",,,"2018-06-28 20:27:18","335884"
"A5J0OW727ZCWY","cs_wg_full_v3_pilot1","32EYX73OY0ABDF5SEUGGSFFS7HMRUW","67","0","RABBIT","5","6","1","4074","rabbit","5","2018-06-28 20:27:22","335885"
"AY0758IITCGOZ","cs_wg_full_v3_pilot1","36W0OB37HWFFAKLZOC3UV3S1MQ5HZG","94","0","SUNBURN","6","6","1","1471",,,"2018-06-28 20:27:25","335886"
"A376VDKE75VP04","cs_wg_full_v3_pilot1","3ATTHHXXWAPQ1KW4TCXUYUD5E3KXIQ","61","0","BANQUET","6","6","1","9640","BANQUET","6","2018-06-28 20:27:29","335887"
"A3C31Q12GIH1JE","cs_wg_full_v3_pilot1","3N4BPTXIO8TPQBSXOA7JR3TECPTKUX","19","0","COMPANY","7","6","0","2298","campany","5","2018-06-28 20:27:29","335888"
"AY0758IITCGOZ","cs_wg_full_v3_pilot1","36W0OB37HWFFAKLZOC3UV3S1MQ5HZG","95","0","VOLCANO","7","6","1","1279",,,"2018-06-28 20:27:31","335889"
"A5J0OW727ZCWY","cs_wg_full_v3_pilot1","32EYX73OY0ABDF5SEUGGSFFS7HMRUW","68","0","CHICKEN","15","6","0","3804","chicken","15","2018-06-28 20:27:36","335890"
"AY0758IITCGOZ","cs_wg_full_v3_pilot1","36W0OB37HWFFAKLZOC3UV3S1MQ5HZG","96","0","SUNBURN","6","6","1","1343",,,"2018-06-28 20:27:38","335891"
"AY0758IITCGOZ","cs_wg_full_v3_pilot1","36W0OB37HWFFAKLZOC3UV3S1MQ5HZG","97","0","SMOKER","1","6","1","1357",,,"2018-06-28 20:27:44","335892"
"A3C31Q12GIH1JE","cs_wg_full_v3_pilot1","3N4BPTXIO8TPQBSXOA7JR3TECPTKUX","20","0","BICYCLE","5","6","0","6995","bicycle","6","2018-06-28 20:27:47","335893"
"A376VDKE75VP04","cs_wg_full_v3_pilot1","3ATTHHXXWAPQ1KW4TCXUYUD5E3KXIQ","62","0","PELICAN","7","6","1","3590","PELICAN","7","2018-06-28 20:27:48","335894"
"AY0758IITCGOZ","cs_wg_full_v3_pilot1","36W0OB37HWFFAKLZOC3UV3S1MQ5HZG","98","0","SMOKER","1","6","1","1273",,,"2018-06-28 20:27:50","335895"
"A5J0OW727ZCWY","cs_wg_full_v3_pilot1","32EYX73OY0ABDF5SEUGGSFFS7HMRUW","69","0","GARBAGE","5","6","1","4142","garbage","5","2018-06-28 20:27:52","335896"
"AY0758IITCGOZ","cs_wg_full_v3_pilot1","36W0OB37HWFFAKLZOC3UV3S1MQ5HZG","99","0","PEBBLE","6","6","1","1274",,,"2018-06-28 20:27:57","335897"
"AY0758IITCGOZ","cs_wg_full_v3_pilot1","36W0OB37HWFFAKLZOC3UV3S1MQ5HZG","100","0","TOMATO","7","6","0","3158",,,"2018-06-28 20:28:04","335898"
"A376VDKE75VP04","cs_wg_full_v3_pilot1","3ATTHHXXWAPQ1KW4TCXUYUD5E3KXIQ","63","0","WIZARD","5","6","1","6988","WIZARD","5","2018-06-28 20:28:05","335899"
"A3C31Q12GIH1JE","cs_wg_full_v3_pilot1","3N4BPTXIO8TPQBSXOA7JR3TECPTKUX","21","0","LIQUID","6","6","0","2835","liquid","6","2018-06-28 20:28:08","335900"
"AY0758IITCGOZ","cs_wg_full_v3_pilot1","36W0OB37HWFFAKLZOC3UV3S1MQ5HZG","101","0","PELICAN","5","6","1","1403",,,"2018-06-28 20:28:10","335901"
"A5J0OW727ZCWY","cs_wg_full_v3_pilot1","32EYX73OY0ABDF5SEUGGSFFS7HMRUW","70","0","BICYCLE","7","6","0","9254","bicycle","7","2018-06-28 20:28:12","335902"
"AY0758IITCGOZ","cs_wg_full_v3_pilot1","36W0OB37HWFFAKLZOC3UV3S1MQ5HZG","102","0","VOLCANO","7","6","0","1193",,,"2018-06-28 20:28:16","335903"
"A3C31Q12GIH1JE","cs_wg_full_v3_pilot1","3N4BPTXIO8TPQBSXOA7JR3TECPTKUX","22","0","COMPANY","7","6","0","2549","vampany","7","2018-06-28 20:28:21","335904"
"AY0758IITCGOZ","cs_wg_full_v3_pilot1","36W0OB37HWFFAKLZOC3UV3S1MQ5HZG","103","0","BICYCLE","7","6","0","1294",,,"2018-06-28 20:28:23","335905"
"A376VDKE75VP04","cs_wg_full_v3_pilot1","3ATTHHXXWAPQ1KW4TCXUYUD5E3KXIQ","64","0","BAMBOO","5","6","1","5272","BAMBOO","5","2018-06-28 20:28:23","335906"
"AY0758IITCGOZ","cs_wg_full_v3_pilot1","36W0OB37HWFFAKLZOC3UV3S1MQ5HZG","104","0","CHICKEN","15","6","0","2027",,,"2018-06-28 20:28:29","335907"
"A5J0OW727ZCWY","cs_wg_full_v3_pilot1","32EYX73OY0ABDF5SEUGGSFFS7HMRUW","71","0","RABBIT","5","6","1","5902","rabbit ","5","2018-06-28 20:28:30","335908"
"AY0758IITCGOZ","cs_wg_full_v3_pilot1","36W0OB37HWFFAKLZOC3UV3S1MQ5HZG","105","0","CHICKEN","15","6","0","1122",,,"2018-06-28 20:28:36","335909"
"A376VDKE75VP04","cs_wg_full_v3_pilot1","3ATTHHXXWAPQ1KW4TCXUYUD5E3KXIQ","65","0","SMOKER","1","6","1","4835","SMOKER","1","2018-06-28 20:28:36","335910"
"A3C31Q12GIH1JE","cs_wg_full_v3_pilot1","3N4BPTXIO8TPQBSXOA7JR3TECPTKUX","23","0","BAMBOO","5","6","0","2099","bamboo","7","2018-06-28 20:28:43","335911"
"AY0758IITCGOZ","cs_wg_full_v3_pilot1","36W0OB37HWFFAKLZOC3UV3S1MQ5HZG","106","0","BANANA","7","6","0","1192",,,"2018-06-28 20:28:43","335912"
"A5J0OW727ZCWY","cs_wg_full_v3_pilot1","32EYX73OY0ABDF5SEUGGSFFS7HMRUW","72","0","COMPANY","6","6","0","4655","company","6","2018-06-28 20:28:45","335913"
"AY0758IITCGOZ","cs_wg_full_v3_pilot1","36W0OB37HWFFAKLZOC3UV3S1MQ5HZG","107","0","PELICAN","5","6","1","1259",,,"2018-06-28 20:28:49","335914"
"AY0758IITCGOZ","cs_wg_full_v3_pilot1","36W0OB37HWFFAKLZOC3UV3S1MQ5HZG","108","0","BICYCLE","7","6","0","1154",,,"2018-06-28 20:28:55","335915"
"A376VDKE75VP04","cs_wg_full_v3_pilot1","3ATTHHXXWAPQ1KW4TCXUYUD5E3KXIQ","66","0","ARCADE","6","6","1","7129","ARCADE","6","2018-06-28 20:28:55","335916"
"A5J0OW727ZCWY","cs_wg_full_v3_pilot1","32EYX73OY0ABDF5SEUGGSFFS7HMRUW","73","0","LIZARD","5","6","1","3579","lizard","5","2018-06-28 20:28:59","335917"
"A3C31Q12GIH1JE","cs_wg_full_v3_pilot1","3N4BPTXIO8TPQBSXOA7JR3TECPTKUX","24","0","AIRBAG","7","6","0","8084","airbag","7","2018-06-28 20:29:00","335918"
"AY0758IITCGOZ","cs_wg_full_v3_pilot1","36W0OB37HWFFAKLZOC3UV3S1MQ5HZG","109","0","VOLCANO","7","6","0","1230",,,"2018-06-28 20:29:01","335919"
"A376VDKE75VP04","cs_wg_full_v3_pilot1","3ATTHHXXWAPQ1KW4TCXUYUD5E3KXIQ","67","0","WIZARD","7","6","1","3779","WIZARD","7","2018-06-28 20:29:09","335920"
"AY0758IITCGOZ","cs_wg_full_v3_pilot1","36W0OB37HWFFAKLZOC3UV3S1MQ5HZG","110","0","PELICAN","5","6","1","4471",,,"2018-06-28 20:29:10","335921"
"A3C31Q12GIH1JE","cs_wg_full_v3_pilot1","3N4BPTXIO8TPQBSXOA7JR3TECPTKUX","25","0","PICKLE","1","6","0","2133","palace","6","2018-06-28 20:29:14","335922"
"A5J0OW727ZCWY","cs_wg_full_v3_pilot1","32EYX73OY0ABDF5SEUGGSFFS7HMRUW","74","0","BICYCLE","7","6","0","5092","bicycle ","7","2018-06-28 20:29:15","335923"
"AY0758IITCGOZ","cs_wg_full_v3_pilot1","36W0OB37HWFFAKLZOC3UV3S1MQ5HZG","111","0","GARBAGE","5","6","1","1647",,,"2018-06-28 20:29:17","335924"
"AY0758IITCGOZ","cs_wg_full_v3_pilot1","36W0OB37HWFFAKLZOC3UV3S1MQ5HZG","112","0","TOMATO","7","6","0","1968",,,"2018-06-28 20:29:24","335925"
"A4YG74WC1EK5V","cs_wg_full_v3_pilot1","3FTF2T8WLRJI1JYBFDVVJI0VMBT9WS","0","0","PENGUIN","6","6","1","6986","penguin","6","2018-06-28 20:29:24","335926"
"A376VDKE75VP04","cs_wg_full_v3_pilot1","3ATTHHXXWAPQ1KW4TCXUYUD5E3KXIQ","68","0","BANQUET","6","6","1","3895","BANQUET","6","2018-06-28 20:29:25","335927"
"A3C31Q12GIH1JE","cs_wg_full_v3_pilot1","3N4BPTXIO8TPQBSXOA7JR3TECPTKUX","26","0","PICKLE","1","6","0","3548","pickle","1","2018-06-28 20:29:28","335928"
"A5J0OW727ZCWY","cs_wg_full_v3_pilot1","32EYX73OY0ABDF5SEUGGSFFS7HMRUW","75","0","AIRBAG","7","6","0","3488","airbag","7","2018-06-28 20:29:29","335929"
"AY0758IITCGOZ","cs_wg_full_v3_pilot1","36W0OB37HWFFAKLZOC3UV3S1MQ5HZG","113","0","BICYCLE","7","6","0","1595",,,"2018-06-28 20:29:30","335930"
"AY0758IITCGOZ","cs_wg_full_v3_pilot1","36W0OB37HWFFAKLZOC3UV3S1MQ5HZG","114","0","CHICKEN","15","6","0","1404",,,"2018-06-28 20:29:38","335931"
"A5J0OW727ZCWY","cs_wg_full_v3_pilot1","32EYX73OY0ABDF5SEUGGSFFS7HMRUW","76","0","PICKLE","1","6","1","1866","pickle","1","2018-06-28 20:29:40","335932"
"A4YG74WC1EK5V","cs_wg_full_v3_pilot1","3FTF2T8WLRJI1JYBFDVVJI0VMBT9WS","1","0","COMPANY","5","6","1","4886","company","5","2018-06-28 20:29:43","335933"
"AY0758IITCGOZ","cs_wg_full_v3_pilot1","36W0OB37HWFFAKLZOC3UV3S1MQ5HZG","115","0","TOMATO","7","6","0","1729",,,"2018-06-28 20:29:44","335934"
"AY0758IITCGOZ","cs_wg_full_v3_pilot1","36W0OB37HWFFAKLZOC3UV3S1MQ5HZG","116","0","PELICAN","5","6","1","1242",,,"2018-06-28 20:29:51","335935"
"A3C31Q12GIH1JE","cs_wg_full_v3_pilot1","3N4BPTXIO8TPQBSXOA7JR3TECPTKUX","27","0","COMPANY","7","6","0","8932","bamboo","5","2018-06-28 20:29:55","335936"
"AY0758IITCGOZ","cs_wg_full_v3_pilot1","36W0OB37HWFFAKLZOC3UV3S1MQ5HZG","117","0","PEBBLE","6","6","1","1131",,,"2018-06-28 20:29:57","335937"
"A4YG74WC1EK5V","cs_wg_full_v3_pilot1","3FTF2T8WLRJI1JYBFDVVJI0VMBT9WS","2","0","PENGUIN","6","6","0","4074","penguin","6","2018-06-28 20:29:58","335938"
"A5J0OW727ZCWY","cs_wg_full_v3_pilot1","32EYX73OY0ABDF5SEUGGSFFS7HMRUW","77","0","GARBAGE","5","6","1","6343","garbage","5","2018-06-28 20:30:00","335939"
"AY0758IITCGOZ","cs_wg_full_v3_pilot1","36W0OB37HWFFAKLZOC3UV3S1MQ5HZG","118","0","BICYCLE","7","6","0","1647",,,"2018-06-28 20:30:04","335940"
"A376VDKE75VP04","cs_wg_full_v3_pilot1","3ATTHHXXWAPQ1KW4TCXUYUD5E3KXIQ","69","0","PELICAN","5","6","0","7772","PELICAN","5","2018-06-28 20:30:08","335941"
"A4YG74WC1EK5V","cs_wg_full_v3_pilot1","3FTF2T8WLRJI1JYBFDVVJI0VMBT9WS","3","0","SQUARE","5","6","1","2692","square","5","2018-06-28 20:30:10","335942"
"AY0758IITCGOZ","cs_wg_full_v3_pilot1","36W0OB37HWFFAKLZOC3UV3S1MQ5HZG","119","0","GARBAGE","5","6","1","1444",,,"2018-06-28 20:30:10","335943"
"A5J0OW727ZCWY","cs_wg_full_v3_pilot1","32EYX73OY0ABDF5SEUGGSFFS7HMRUW","78","0","AIRBAG","7","6","0","3767","airbag","7","2018-06-28 20:30:14","335944"
"A376VDKE75VP04","cs_wg_full_v3_pilot1","3ATTHHXXWAPQ1KW4TCXUYUD5E3KXIQ","70","0","BANANA","7","6","0","6015","BANANA","7","2018-06-28 20:30:22","335945"
"A4YG74WC1EK5V","cs_wg_full_v3_pilot1","3FTF2T8WLRJI1JYBFDVVJI0VMBT9WS","4","0","BICYCLE","7","6","1","1832","bicycle","7","2018-06-28 20:30:22","335946"
"A5J0OW727ZCWY","cs_wg_full_v3_pilot1","32EYX73OY0ABDF5SEUGGSFFS7HMRUW","79","0","COMPANY","6","6","0","4068","company","6","2018-06-28 20:30:29","335947"
"A3C31Q12GIH1JE","cs_wg_full_v3_pilot1","3N4BPTXIO8TPQBSXOA7JR3TECPTKUX","28","0","POTATO","7","6","0","2610","palace","5","2018-06-28 20:30:33","335948"
"A4YG74WC1EK5V","cs_wg_full_v3_pilot1","3FTF2T8WLRJI1JYBFDVVJI0VMBT9WS","5","0","POTATO","5","6","1","4795","potato","5","2018-06-28 20:30:37","335949"
"A376VDKE75VP04","cs_wg_full_v3_pilot1","3ATTHHXXWAPQ1KW4TCXUYUD5E3KXIQ","71","0","BAMBOO","5","6","0","3958","BAMBOO","5","2018-06-28 20:30:42","335950"
"A5J0OW727ZCWY","cs_wg_full_v3_pilot1","32EYX73OY0ABDF5SEUGGSFFS7HMRUW","80","0","TOMATO","5","6","1","4337","tomato","5","2018-06-28 20:30:43","335951"
"A3C31Q12GIH1JE","cs_wg_full_v3_pilot1","3N4BPTXIO8TPQBSXOA7JR3TECPTKUX","29","0","LIQUID","6","6","0","3370","liquid","6","2018-06-28 20:30:46","335952"
"A4YG74WC1EK5V","cs_wg_full_v3_pilot1","3FTF2T8WLRJI1JYBFDVVJI0VMBT9WS","6","0","BUCKET","15","6","1","3109","bucket","15","2018-06-28 20:30:50","335953"
"A5J0OW727ZCWY","cs_wg_full_v3_pilot1","32EYX73OY0ABDF5SEUGGSFFS7HMRUW","81","0","RABBIT","5","6","1","3304","rabbit","5","2018-06-28 20:30:56","335954"
"A376VDKE75VP04","cs_wg_full_v3_pilot1","3ATTHHXXWAPQ1KW4TCXUYUD5E3KXIQ","72","0","PELICAN","5","6","1","7034","PELICAN","5","2018-06-28 20:30:59","335955"
"A4YG74WC1EK5V","cs_wg_full_v3_pilot1","3FTF2T8WLRJI1JYBFDVVJI0VMBT9WS","7","0","AVOCADO","6","6","1","3705","avocado","6","2018-06-28 20:31:03","335956"
"A5J0OW727ZCWY","cs_wg_full_v3_pilot1","32EYX73OY0ABDF5SEUGGSFFS7HMRUW","82","0","CHICKEN","15","6","0","1901","chicken","15","2018-06-28 20:31:08","335957"
"A376VDKE75VP04","cs_wg_full_v3_pilot1","3ATTHHXXWAPQ1KW4TCXUYUD5E3KXIQ","73","0","GRENADE","7","6","0","2876","GRENADE","7","2018-06-28 20:31:12","335958"
"A4YG74WC1EK5V","cs_wg_full_v3_pilot1","3FTF2T8WLRJI1JYBFDVVJI0VMBT9WS","8","0","PENGUIN","6","6","1","2154","penguin","6","2018-06-28 20:31:14","335959"
"A3C31Q12GIH1JE","cs_wg_full_v3_pilot1","3N4BPTXIO8TPQBSXOA7JR3TECPTKUX","30","0","COMPANY","7","6","0","1452","campany","5","2018-06-28 20:31:22","335960"
"A5J0OW727ZCWY","cs_wg_full_v3_pilot1","32EYX73OY0ABDF5SEUGGSFFS7HMRUW","83","0","COSTUME","6","6","1","3411","costime","6","2018-06-28 20:31:24","335961"
"A4YG74WC1EK5V","cs_wg_full_v3_pilot1","3FTF2T8WLRJI1JYBFDVVJI0VMBT9WS","9","0","AVOCADO","6","6","1","2044","avocado","6","2018-06-28 20:31:25","335962"
"A3C31Q12GIH1JE","cs_wg_full_v3_pilot1","3N4BPTXIO8TPQBSXOA7JR3TECPTKUX","31","0","PALACE","5","6","0","1537","palace","5","2018-06-28 20:31:34","335963"
"A376VDKE75VP04","cs_wg_full_v3_pilot1","3ATTHHXXWAPQ1KW4TCXUYUD5E3KXIQ","74","0","PELICAN","7","6","0","13322","PELICAN","7","2018-06-28 20:31:35","335964"
"A4YG74WC1EK5V","cs_wg_full_v3_pilot1","3FTF2T8WLRJI1JYBFDVVJI0VMBT9WS","10","0","PENGUIN","6","6","1","2049","penguin","6","2018-06-28 20:31:36","335965"
"A5J0OW727ZCWY","cs_wg_full_v3_pilot1","32EYX73OY0ABDF5SEUGGSFFS7HMRUW","84","0","COSTUME","6","6","1","5373","costime","6","2018-06-28 20:31:39","335966"
"A4YG74WC1EK5V","cs_wg_full_v3_pilot1","3FTF2T8WLRJI1JYBFDVVJI0VMBT9WS","11","0","BANANA","5","6","1","2025","banana","5","2018-06-28 20:31:46","335967"
"A3C31Q12GIH1JE","cs_wg_full_v3_pilot1","3N4BPTXIO8TPQBSXOA7JR3TECPTKUX","32","0","PICKLE","1","6","0","2979","pickle","6","2018-06-28 20:31:47","335968"
"A5J0OW727ZCWY","cs_wg_full_v3_pilot1","32EYX73OY0ABDF5SEUGGSFFS7HMRUW","85","0","COSTUME","6","6","0","2872","costume ","6","2018-06-28 20:31:53","335969"
"A4YG74WC1EK5V","cs_wg_full_v3_pilot1","3FTF2T8WLRJI1JYBFDVVJI0VMBT9WS","12","0","ACROBAT","7","6","1","6000","acrobat","7","2018-06-28 20:32:01","335970"
"A3C31Q12GIH1JE","cs_wg_full_v3_pilot1","3N4BPTXIO8TPQBSXOA7JR3TECPTKUX","33","0","LIQUID","6","6","0","9937","liquid","5","2018-06-28 20:32:07","335971"
"A4YG74WC1EK5V","cs_wg_full_v3_pilot1","3FTF2T8WLRJI1JYBFDVVJI0VMBT9WS","13","0","BICYCLE","7","6","0","2311","bicycle","7","2018-06-28 20:32:14","335972"
"A376VDKE75VP04","cs_wg_full_v3_pilot1","3ATTHHXXWAPQ1KW4TCXUYUD5E3KXIQ","75","0","BAMBOO","5","6","1","4500","BAMBOO","5","2018-06-28 20:32:15","335973"
"A5J0OW727ZCWY","cs_wg_full_v3_pilot1","32EYX73OY0ABDF5SEUGGSFFS7HMRUW","86","0","COSTUME","6","6","0","6982","costume","6","2018-06-28 20:32:16","335974"
"A3C31Q12GIH1JE","cs_wg_full_v3_pilot1","3N4BPTXIO8TPQBSXOA7JR3TECPTKUX","34","0","LIQUID","6","6","0","1564","liquid","6","2018-06-28 20:32:17","335975"
"A4YG74WC1EK5V","cs_wg_full_v3_pilot1","3FTF2T8WLRJI1JYBFDVVJI0VMBT9WS","14","0","POTATO","5","6","0","3948","potato","5","2018-06-28 20:32:27","335976"
"A5J0OW727ZCWY","cs_wg_full_v3_pilot1","32EYX73OY0ABDF5SEUGGSFFS7HMRUW","87","0","LIZARD","5","6","1","3613","lizard","5","2018-06-28 20:32:31","335977"
"A3C31Q12GIH1JE","cs_wg_full_v3_pilot1","3N4BPTXIO8TPQBSXOA7JR3TECPTKUX","35","0","AVOCADO","5","6","0","1549","acado","6","2018-06-28 20:32:33","335978"
"A4YG74WC1EK5V","cs_wg_full_v3_pilot1","3FTF2T8WLRJI1JYBFDVVJI0VMBT9WS","15","0","TOMATO","7","6","1","1845","tomato","7","2018-06-28 20:32:37","335979"
"A376VDKE75VP04","cs_wg_full_v3_pilot1","3ATTHHXXWAPQ1KW4TCXUYUD5E3KXIQ","76","0","PELICAN","7","6","0","12096","PELICAN","7","2018-06-28 20:32:38","335980"
"A5J0OW727ZCWY","cs_wg_full_v3_pilot1","32EYX73OY0ABDF5SEUGGSFFS7HMRUW","88","0","RABBIT","5","6","1","4489","rabbit","5","2018-06-28 20:32:46","335981"
"A4YG74WC1EK5V","cs_wg_full_v3_pilot1","3FTF2T8WLRJI1JYBFDVVJI0VMBT9WS","16","0","BUCKET","15","6","0","2191","bucket","15","2018-06-28 20:32:47","335982"
"A4YG74WC1EK5V","cs_wg_full_v3_pilot1","3FTF2T8WLRJI1JYBFDVVJI0VMBT9WS","17","0","COMPANY","5","6","1","1613","company","5","2018-06-28 20:32:57","335983"
"A3C31Q12GIH1JE","cs_wg_full_v3_pilot1","3N4BPTXIO8TPQBSXOA7JR3TECPTKUX","36","0","AVOCADO","6","6","0","5075","avocodo","5","2018-06-28 20:32:58","335984"
"A5J0OW727ZCWY","cs_wg_full_v3_pilot1","32EYX73OY0ABDF5SEUGGSFFS7HMRUW","89","0","COSTUME","6","6","0","2477","costume","6","2018-06-28 20:32:59","335985"
"A376VDKE75VP04","cs_wg_full_v3_pilot1","3ATTHHXXWAPQ1KW4TCXUYUD5E3KXIQ","77","0","ACROBAT","5","6","0","8970","ACROBAT","5","2018-06-28 20:33:05","335986"
"A4YG74WC1EK5V","cs_wg_full_v3_pilot1","3FTF2T8WLRJI1JYBFDVVJI0VMBT9WS","18","0","POTATO","5","6","1","2508","potato","5","2018-06-28 20:33:09","335987"
"A3C31Q12GIH1JE","cs_wg_full_v3_pilot1","3N4BPTXIO8TPQBSXOA7JR3TECPTKUX","37","0","AVOCADO","5","6","0","1986","avocofo","6","2018-06-28 20:33:09","335988"
"A5J0OW727ZCWY","cs_wg_full_v3_pilot1","32EYX73OY0ABDF5SEUGGSFFS7HMRUW","90","0","COMPANY","6","6","0","5179","company","6","2018-06-28 20:33:14","335989"
"A376VDKE75VP04","cs_wg_full_v3_pilot1","3ATTHHXXWAPQ1KW4TCXUYUD5E3KXIQ","78","0","PELICAN","7","6","0","3870","PELICAN","7","2018-06-28 20:33:18","335990"
"A4YG74WC1EK5V","cs_wg_full_v3_pilot1","3FTF2T8WLRJI1JYBFDVVJI0VMBT9WS","19","0","BANANA","5","6","1","2574","banana","5","2018-06-28 20:33:20","335991"
"A3C31Q12GIH1JE","cs_wg_full_v3_pilot1","3N4BPTXIO8TPQBSXOA7JR3TECPTKUX","38","0","AVOCADO","5","6","0","1686","avocodo","5","2018-06-28 20:33:21","335992"
"A376VDKE75VP04","cs_wg_full_v3_pilot1","3ATTHHXXWAPQ1KW4TCXUYUD5E3KXIQ","79","0","SMOKER","1","6","1","3130","SMOKER","1","2018-06-28 20:33:29","335993"
"A5J0OW727ZCWY","cs_wg_full_v3_pilot1","32EYX73OY0ABDF5SEUGGSFFS7HMRUW","91","0","GARBAGE","5","6","1","4782","garbage","5","2018-06-28 20:33:30","335994"
"A4YG74WC1EK5V","cs_wg_full_v3_pilot1","3FTF2T8WLRJI1JYBFDVVJI0VMBT9WS","20","0","COMPANY","5","6","1","2080","company","5","2018-06-28 20:33:30","335995"
"A3C31Q12GIH1JE","cs_wg_full_v3_pilot1","3N4BPTXIO8TPQBSXOA7JR3TECPTKUX","39","0","BICYCLE","5","6","0","1773","bicycle","5","2018-06-28 20:33:33","335996"
"A376VDKE75VP04","cs_wg_full_v3_pilot1","3ATTHHXXWAPQ1KW4TCXUYUD5E3KXIQ","80","0","GRENADE","7","6","0","3657","GRENADE","7","2018-06-28 20:33:41","335997"
"A4YG74WC1EK5V","cs_wg_full_v3_pilot1","3FTF2T8WLRJI1JYBFDVVJI0VMBT9WS","21","0","ACROBAT","7","6","0","2879","acrobat","7","2018-06-28 20:33:41","335998"
"A3C31Q12GIH1JE","cs_wg_full_v3_pilot1","3N4BPTXIO8TPQBSXOA7JR3TECPTKUX","40","0","PICKLE","1","6","0","1907","pickle","1","2018-06-28 20:33:43","335999"
"A5J0OW727ZCWY","cs_wg_full_v3_pilot1","32EYX73OY0ABDF5SEUGGSFFS7HMRUW","92","0","AVOCADO","7","6","0","4486","avacado","7","2018-06-28 20:33:44","336000"
"A4YG74WC1EK5V","cs_wg_full_v3_pilot1","3FTF2T8WLRJI1JYBFDVVJI0VMBT9WS","22","0","SQUARE","5","6","1","1939","square","5","2018-06-28 20:33:52","336001"
"A376VDKE75VP04","cs_wg_full_v3_pilot1","3ATTHHXXWAPQ1KW4TCXUYUD5E3KXIQ","81","0","CRICKET","15","6","0","1808","CRICKET","15","2018-06-28 20:33:52","336002"
"A3C31Q12GIH1JE","cs_wg_full_v3_pilot1","3N4BPTXIO8TPQBSXOA7JR3TECPTKUX","41","0","CRICKET","15","6","0","1358","circket","15","2018-06-28 20:33:55","336003"
"A5J0OW727ZCWY","cs_wg_full_v3_pilot1","32EYX73OY0ABDF5SEUGGSFFS7HMRUW","93","0","COMPANY","6","6","0","1949","company","6","2018-06-28 20:33:56","336004"
"A4YG74WC1EK5V","cs_wg_full_v3_pilot1","3FTF2T8WLRJI1JYBFDVVJI0VMBT9WS","23","0","PENGUIN","6","6","0","2266","penguin","6","2018-06-28 20:34:02","336005"
"A376VDKE75VP04","cs_wg_full_v3_pilot1","3ATTHHXXWAPQ1KW4TCXUYUD5E3KXIQ","82","0","ACROBAT","5","6","1","5261","ACROBAT","5","2018-06-28 20:34:06","336006"
"A5J0OW727ZCWY","cs_wg_full_v3_pilot1","32EYX73OY0ABDF5SEUGGSFFS7HMRUW","94","0","AVOCADO","7","6","0","3666","avacado","7","2018-06-28 20:34:10","336007"
"A4YG74WC1EK5V","cs_wg_full_v3_pilot1","3FTF2T8WLRJI1JYBFDVVJI0VMBT9WS","24","0","CANCER","7","6","1","1364","cancer","7","2018-06-28 20:34:11","336008"
"A3C31Q12GIH1JE","cs_wg_full_v3_pilot1","3N4BPTXIO8TPQBSXOA7JR3TECPTKUX","42","0","AVOCADO","6","6","0","1874","avocde","5","2018-06-28 20:34:19","336009"
"A376VDKE75VP04","cs_wg_full_v3_pilot1","3ATTHHXXWAPQ1KW4TCXUYUD5E3KXIQ","83","0","PELICAN","5","6","0","3128","PELICAN","5","2018-06-28 20:34:19","336010"
"A4YG74WC1EK5V","cs_wg_full_v3_pilot1","3FTF2T8WLRJI1JYBFDVVJI0VMBT9WS","25","0","AVOCADO","6","6","1","1441","avocado","6","2018-06-28 20:34:21","336011"
"A5J0OW727ZCWY","cs_wg_full_v3_pilot1","32EYX73OY0ABDF5SEUGGSFFS7HMRUW","95","0","GARBAGE","5","6","1","4865","garbage","5","2018-06-28 20:34:28","336012"
"A4YG74WC1EK5V","cs_wg_full_v3_pilot1","3FTF2T8WLRJI1JYBFDVVJI0VMBT9WS","26","0","SQUARE","5","6","1","2122","square","5","2018-06-28 20:34:31","336013"
"A376VDKE75VP04","cs_wg_full_v3_pilot1","3ATTHHXXWAPQ1KW4TCXUYUD5E3KXIQ","84","0","ARCADE","6","6","0","6811","ARCADE","6","2018-06-28 20:34:34","336014"
"A3C31Q12GIH1JE","cs_wg_full_v3_pilot1","3N4BPTXIO8TPQBSXOA7JR3TECPTKUX","43","0","CRICKET","15","6","0","1565","cricket","15","2018-06-28 20:34:34","336015"
"A4YG74WC1EK5V","cs_wg_full_v3_pilot1","3FTF2T8WLRJI1JYBFDVVJI0VMBT9WS","27","0","COMPANY","5","6","1","1977","company","5","2018-06-28 20:34:42","336016"
"A5J0OW727ZCWY","cs_wg_full_v3_pilot1","32EYX73OY0ABDF5SEUGGSFFS7HMRUW","96","0","SQUARE","7","6","0","4985","square","7","2018-06-28 20:34:44","336017"
"A3C31Q12GIH1JE","cs_wg_full_v3_pilot1","3N4BPTXIO8TPQBSXOA7JR3TECPTKUX","44","0","CRICKET","15","6","0","2161","cricket","5","2018-06-28 20:34:46","336018"
"A376VDKE75VP04","cs_wg_full_v3_pilot1","3ATTHHXXWAPQ1KW4TCXUYUD5E3KXIQ","85","0","ACROBAT","5","6","1","4469","ACROBAT","5","2018-06-28 20:34:48","336019"
"A4YG74WC1EK5V","cs_wg_full_v3_pilot1","3FTF2T8WLRJI1JYBFDVVJI0VMBT9WS","28","0","MONKEY","1","6","1","2188","monkey","1","2018-06-28 20:34:54","336020"
"A3C31Q12GIH1JE","cs_wg_full_v3_pilot1","3N4BPTXIO8TPQBSXOA7JR3TECPTKUX","45","0","COMPANY","7","6","0","1603","company","5","2018-06-28 20:34:57","336021"
"A5J0OW727ZCWY","cs_wg_full_v3_pilot1","32EYX73OY0ABDF5SEUGGSFFS7HMRUW","97","0","COSTUME","6","6","0","2113","costime","6","2018-06-28 20:34:57","336022"
"A376VDKE75VP04","cs_wg_full_v3_pilot1","3ATTHHXXWAPQ1KW4TCXUYUD5E3KXIQ","86","0","PELICAN","7","6","0","6331","PELICAN","7","2018-06-28 20:35:04","336023"
"A4YG74WC1EK5V","cs_wg_full_v3_pilot1","3FTF2T8WLRJI1JYBFDVVJI0VMBT9WS","29","0","TOMATO","7","6","0","2660","tomato","7","2018-06-28 20:35:05","336024"
"A5J0OW727ZCWY","cs_wg_full_v3_pilot1","32EYX73OY0ABDF5SEUGGSFFS7HMRUW","98","0","COMPANY","6","6","0","1172","company","6","2018-06-28 20:35:08","336025"
"A3C31Q12GIH1JE","cs_wg_full_v3_pilot1","3N4BPTXIO8TPQBSXOA7JR3TECPTKUX","46","0","CRICKET","15","6","0","1397","cricket","15","2018-06-28 20:35:15","336026"
"A4YG74WC1EK5V","cs_wg_full_v3_pilot1","3FTF2T8WLRJI1JYBFDVVJI0VMBT9WS","30","0","MONKEY","1","6","1","2236","monkey","1","2018-06-28 20:35:16","336027"
"A376VDKE75VP04","cs_wg_full_v3_pilot1","3ATTHHXXWAPQ1KW4TCXUYUD5E3KXIQ","87","0","BANANA","7","6","0","3564","BANANA","7","2018-06-28 20:35:16","336028"
"A5J0OW727ZCWY","cs_wg_full_v3_pilot1","32EYX73OY0ABDF5SEUGGSFFS7HMRUW","99","0","AVOCADO","7","6","0","3393","avacado","7","2018-06-28 20:35:22","336029"
"A4YG74WC1EK5V","cs_wg_full_v3_pilot1","3FTF2T8WLRJI1JYBFDVVJI0VMBT9WS","31","0","PENGUIN","6","6","1","1753","penguin","6","2018-06-28 20:35:25","336030"
"A3C31Q12GIH1JE","cs_wg_full_v3_pilot1","3N4BPTXIO8TPQBSXOA7JR3TECPTKUX","47","0","PICKLE","1","6","0","1762","pickle","5","2018-06-28 20:35:28","336031"
"A376VDKE75VP04","cs_wg_full_v3_pilot1","3ATTHHXXWAPQ1KW4TCXUYUD5E3KXIQ","88","0","CRICKET","15","6","0","1415","CRICKET","15","2018-06-28 20:35:30","336032"
"A4YG74WC1EK5V","cs_wg_full_v3_pilot1","3FTF2T8WLRJI1JYBFDVVJI0VMBT9WS","32","0","AVOCADO","6","6","1","1503","avocado","6","2018-06-28 20:35:36","336033"
"A5J0OW727ZCWY","cs_wg_full_v3_pilot1","32EYX73OY0ABDF5SEUGGSFFS7HMRUW","100","0","CHICKEN","15","6","0","2660","chicken","15","2018-06-28 20:35:38","336034"
"A4YG74WC1EK5V","cs_wg_full_v3_pilot1","3FTF2T8WLRJI1JYBFDVVJI0VMBT9WS","33","0","BANANA","5","6","1","2621","banana","5","2018-06-28 20:35:47","336035"
"A5J0OW727ZCWY","cs_wg_full_v3_pilot1","32EYX73OY0ABDF5SEUGGSFFS7HMRUW","101","0","COMPANY","6","6","0","1224","company","6","2018-06-28 20:35:48","336036"
"A376VDKE75VP04","cs_wg_full_v3_pilot1","3ATTHHXXWAPQ1KW4TCXUYUD5E3KXIQ","89","0","PELICAN","7","6","0","10063","PELICAN","7","2018-06-28 20:35:52","336037"
"A4YG74WC1EK5V","cs_wg_full_v3_pilot1","3FTF2T8WLRJI1JYBFDVVJI0VMBT9WS","34","0","AVOCADO","6","6","1","1898","avocado","6","2018-06-28 20:35:56","336038"
"A4YG74WC1EK5V","cs_wg_full_v3_pilot1","3FTF2T8WLRJI1JYBFDVVJI0VMBT9WS","35","0","SQUARE","5","6","1","1628","square","5","2018-06-28 20:36:05","336039"
"A5J0OW727ZCWY","cs_wg_full_v3_pilot1","32EYX73OY0ABDF5SEUGGSFFS7HMRUW","102","0","GARBAGE","5","6","1","2987","garbage","5","2018-06-28 20:36:07","336040"
"A376VDKE75VP04","cs_wg_full_v3_pilot1","3ATTHHXXWAPQ1KW4TCXUYUD5E3KXIQ","90","0","BANQUET","6","6","1","6276","BANQUET","6","2018-06-28 20:36:12","336041"
"A3C31Q12GIH1JE","cs_wg_full_v3_pilot1","3N4BPTXIO8TPQBSXOA7JR3TECPTKUX","48","0","AVOCADO","6","6","0","1603","avocodo","6","2018-06-28 20:36:15","336042"
"A4YG74WC1EK5V","cs_wg_full_v3_pilot1","3FTF2T8WLRJI1JYBFDVVJI0VMBT9WS","36","0","BANANA","5","6","1","1597","banana","5","2018-06-28 20:36:16","336043"
"A5J0OW727ZCWY","cs_wg_full_v3_pilot1","32EYX73OY0ABDF5SEUGGSFFS7HMRUW","103","0","AVOCADO","7","6","0","2686","avacado","7","2018-06-28 20:36:20","336044"
"A376VDKE75VP04","cs_wg_full_v3_pilot1","3ATTHHXXWAPQ1KW4TCXUYUD5E3KXIQ","91","0","CRICKET","15","6","0","1391","CRICKET","15","2018-06-28 20:36:23","336045"
"A3C31Q12GIH1JE","cs_wg_full_v3_pilot1","3N4BPTXIO8TPQBSXOA7JR3TECPTKUX","49","0","PALACE","5","6","0","1955","palace","6","2018-06-28 20:36:25","336046"
"A4YG74WC1EK5V","cs_wg_full_v3_pilot1","3FTF2T8WLRJI1JYBFDVVJI0VMBT9WS","37","0","TOMATO","7","6","0","2494","tomato","7","2018-06-28 20:36:25","336047"
"A376VDKE75VP04","cs_wg_full_v3_pilot1","3ATTHHXXWAPQ1KW4TCXUYUD5E3KXIQ","92","0","SMOKER","1","6","1","2120","SMOKER","1","2018-06-28 20:36:34","336048"
"A5J0OW727ZCWY","cs_wg_full_v3_pilot1","32EYX73OY0ABDF5SEUGGSFFS7HMRUW","104","0","LIZARD","5","6","1","4325","lizaed","5","2018-06-28 20:36:34","336049"
"A3C31Q12GIH1JE","cs_wg_full_v3_pilot1","3N4BPTXIO8TPQBSXOA7JR3TECPTKUX","50","0","PALACE","5","6","0","1951","palace","5","2018-06-28 20:36:35","336050"
"A4YG74WC1EK5V","cs_wg_full_v3_pilot1","3FTF2T8WLRJI1JYBFDVVJI0VMBT9WS","38","0","AVOCADO","6","6","1","2648","avocado","6","2018-06-28 20:36:36","336051"
"A3C31Q12GIH1JE","cs_wg_full_v3_pilot1","3N4BPTXIO8TPQBSXOA7JR3TECPTKUX","51","0","BICYCLE","5","6","0","1379","bicycle","5","2018-06-28 20:36:45","336052"
"A4YG74WC1EK5V","cs_wg_full_v3_pilot1","3FTF2T8WLRJI1JYBFDVVJI0VMBT9WS","39","0","CANCER","7","6","1","1993","cancer","7","2018-06-28 20:36:47","336053"
"A376VDKE75VP04","cs_wg_full_v3_pilot1","3ATTHHXXWAPQ1KW4TCXUYUD5E3KXIQ","93","0","PELICAN","7","6","0","2700","PELICAN","7","2018-06-28 20:36:47","336054"
