"subject","version","assignmentId","trial","trial_type","word","value","alt","value2","choice","rt","resp","resp2","resp3","resp4","used_hint","stamp","id"
"A2U2SUED1ODL4D","cs_wg_mon_int_pilot1","3ZR9AIQJUBAOWNRE5B6JVFGC7WH04C","0","0","SEPTEMBER","12","MAY","3","0","10348",,,,,"0","2019-01-21 21:51:35","579103"
"A2U2SUED1ODL4D","cs_wg_mon_int_pilot1","3ZR9AIQJUBAOWNRE5B6JVFGC7WH04C","1","0","OCTOBER","3","FEBRUARY","11","0","2764",,,,,"0","2019-01-21 21:51:40","579104"
"A2U2SUED1ODL4D","cs_wg_mon_int_pilot1","3ZR9AIQJUBAOWNRE5B6JVFGC7WH04C","2","0","JULY","2","APRIL","10","1","2072",,,,,"0","2019-01-21 21:51:44","579105"
"A2U2SUED1ODL4D","cs_wg_mon_int_pilot1","3ZR9AIQJUBAOWNRE5B6JVFGC7WH04C","3","0","NOVEMBER","3","SEPTEMBER","12","0","278",,,,,"0","2019-01-21 21:51:47","579106"
"A2U2SUED1ODL4D","cs_wg_mon_int_pilot1","3ZR9AIQJUBAOWNRE5B6JVFGC7WH04C","4","0","JULY","2","DECEMBER","10","1","3283",,,,,"0","2019-01-21 21:51:52","579107"
"A2U2SUED1ODL4D","cs_wg_mon_int_pilot1","3ZR9AIQJUBAOWNRE5B6JVFGC7WH04C","5","0","JUNE","10","JULY","2","0","943",,,,,"0","2019-01-21 21:51:58","579108"
"A2U2SUED1ODL4D","cs_wg_mon_int_pilot1","3ZR9AIQJUBAOWNRE5B6JVFGC7WH04C","6","0","SEPTEMBER","12","NOVEMBER","3","1","2631",,,,,"0","2019-01-21 21:52:03","579109"
"A2U2SUED1ODL4D","cs_wg_mon_int_pilot1","3ZR9AIQJUBAOWNRE5B6JVFGC7WH04C","7","0","MARCH","10","JULY","2","1","1027",,,,,"0","2019-01-21 21:52:06","579110"
"A2U2SUED1ODL4D","cs_wg_mon_int_pilot1","3ZR9AIQJUBAOWNRE5B6JVFGC7WH04C","8","0","AUGUST","1","JUNE","10","0","1637",,,,,"0","2019-01-21 21:52:10","579111"
"A2U2SUED1ODL4D","cs_wg_mon_int_pilot1","3ZR9AIQJUBAOWNRE5B6JVFGC7WH04C","9","0","FEBRUARY","11","MAY","3","1","1543",,,,,"0","2019-01-21 21:52:14","579112"
"A2U2SUED1ODL4D","cs_wg_mon_int_pilot1","3ZR9AIQJUBAOWNRE5B6JVFGC7WH04C","10","0","SEPTEMBER","12","NOVEMBER","3","0","834",,,,,"0","2019-01-21 21:52:18","579113"
"A2U2SUED1ODL4D","cs_wg_mon_int_pilot1","3ZR9AIQJUBAOWNRE5B6JVFGC7WH04C","11","0","FEBRUARY","11","DECEMBER","10","0","1107",,,,,"0","2019-01-21 21:52:21","579114"
"A2U2SUED1ODL4D","cs_wg_mon_int_pilot1","3ZR9AIQJUBAOWNRE5B6JVFGC7WH04C","12","0","MARCH","10","AUGUST","1","1","414",,,,,"0","2019-01-21 21:52:24","579115"
"A2U2SUED1ODL4D","cs_wg_mon_int_pilot1","3ZR9AIQJUBAOWNRE5B6JVFGC7WH04C","13","0","JUNE","10","AUGUST","1","0","299",,,,,"0","2019-01-21 21:52:27","579116"
"A2U2SUED1ODL4D","cs_wg_mon_int_pilot1","3ZR9AIQJUBAOWNRE5B6JVFGC7WH04C","14","0","NOVEMBER","3","AUGUST","1","0","6669",,,,,"0","2019-01-21 21:52:36","579117"
"A2U2SUED1ODL4D","cs_wg_mon_int_pilot1","3ZR9AIQJUBAOWNRE5B6JVFGC7WH04C","15","0","MAY","3","SEPTEMBER","12","0","1381",,,,,"0","2019-01-21 21:52:39","579118"
"A2U2SUED1ODL4D","cs_wg_mon_int_pilot1","3ZR9AIQJUBAOWNRE5B6JVFGC7WH04C","16","0","OCTOBER","3","JULY","2","1","420",,,,,"0","2019-01-21 21:52:41","579119"
"A2U2SUED1ODL4D","cs_wg_mon_int_pilot1","3ZR9AIQJUBAOWNRE5B6JVFGC7WH04C","17","0","AUGUST","1","APRIL","10","0","252",,,,,"0","2019-01-21 21:52:43","579120"
"A2U2SUED1ODL4D","cs_wg_mon_int_pilot1","3ZR9AIQJUBAOWNRE5B6JVFGC7WH04C","18","0","SEPTEMBER","12","MARCH","10","1","300",,,,,"0","2019-01-21 21:52:46","579121"
"A2U2SUED1ODL4D","cs_wg_mon_int_pilot1","3ZR9AIQJUBAOWNRE5B6JVFGC7WH04C","19","0","APRIL","10","AUGUST","1","0","1087",,,,,"0","2019-01-21 21:52:49","579122"
"A2U2SUED1ODL4D","cs_wg_mon_int_pilot1","3ZR9AIQJUBAOWNRE5B6JVFGC7WH04C","20","0","FEBRUARY","11","JANUARY","3","1","406",,,,,"0","2019-01-21 21:52:51","579123"
"A2U2SUED1ODL4D","cs_wg_mon_int_pilot1","3ZR9AIQJUBAOWNRE5B6JVFGC7WH04C","21","0","AUGUST","1","JUNE","10","0","268",,,,,"0","2019-01-21 21:52:53","579124"
"A2U2SUED1ODL4D","cs_wg_mon_int_pilot1","3ZR9AIQJUBAOWNRE5B6JVFGC7WH04C","22","0","MARCH","10","SEPTEMBER","12","1","709",,,,,"0","2019-01-21 21:52:56","579125"
"A2U2SUED1ODL4D","cs_wg_mon_int_pilot1","3ZR9AIQJUBAOWNRE5B6JVFGC7WH04C","23","0","APRIL","10","SEPTEMBER","12","1","590",,,,,"0","2019-01-21 21:52:58","579126"
"A2U2SUED1ODL4D","cs_wg_mon_int_pilot1","3ZR9AIQJUBAOWNRE5B6JVFGC7WH04C","24","0","JULY","2","JUNE","10","0","38",,,,,"0","2019-01-21 21:53:00","579127"
"A2U2SUED1ODL4D","cs_wg_mon_int_pilot1","3ZR9AIQJUBAOWNRE5B6JVFGC7WH04C","25","0","FEBRUARY","11","NOVEMBER","3","0","997",,,,,"0","2019-01-21 21:53:03","579128"
"A2U2SUED1ODL4D","cs_wg_mon_int_pilot1","3ZR9AIQJUBAOWNRE5B6JVFGC7WH04C","26","0","APRIL","10","AUGUST","1","1","456",,,,,"0","2019-01-21 21:53:05","579129"
"A2U2SUED1ODL4D","cs_wg_mon_int_pilot1","3ZR9AIQJUBAOWNRE5B6JVFGC7WH04C","27","0","MAY","3","FEBRUARY","11","0","341",,,,,"0","2019-01-21 21:53:07","579130"
"A2U2SUED1ODL4D","cs_wg_mon_int_pilot1","3ZR9AIQJUBAOWNRE5B6JVFGC7WH04C","28","0","OCTOBER","3","FEBRUARY","11","1","209",,,,,"0","2019-01-21 21:53:09","579131"
"A2U2SUED1ODL4D","cs_wg_mon_int_pilot1","3ZR9AIQJUBAOWNRE5B6JVFGC7WH04C","29","0","AUGUST","1","JANUARY","3","0","309",,,,,"0","2019-01-21 21:53:12","579132"
"A2U2SUED1ODL4D","cs_wg_mon_int_pilot1","3ZR9AIQJUBAOWNRE5B6JVFGC7WH04C","30","0","AUGUST","1","NOVEMBER","3","1","302",,,,,"0","2019-01-21 21:53:14","579133"
"A2U2SUED1ODL4D","cs_wg_mon_int_pilot1","3ZR9AIQJUBAOWNRE5B6JVFGC7WH04C","31","0","MARCH","10","JULY","2","0","317",,,,,"0","2019-01-21 21:53:15","579134"
"A2U2SUED1ODL4D","cs_wg_mon_int_pilot1","3ZR9AIQJUBAOWNRE5B6JVFGC7WH04C","32","0","DECEMBER","10","JULY","2","1","148",,,,,"0","2019-01-21 21:53:17","579135"
"A2U2SUED1ODL4D","cs_wg_mon_int_pilot1","3ZR9AIQJUBAOWNRE5B6JVFGC7WH04C","33","0","SEPTEMBER","12","OCTOBER","3","0","401",,,,,"0","2019-01-21 21:53:19","579136"
"A2U2SUED1ODL4D","cs_wg_mon_int_pilot1","3ZR9AIQJUBAOWNRE5B6JVFGC7WH04C","34","0","JANUARY","3","FEBRUARY","11","1","71",,,,,"0","2019-01-21 21:53:21","579137"
"A2U2SUED1ODL4D","cs_wg_mon_int_pilot1","3ZR9AIQJUBAOWNRE5B6JVFGC7WH04C","35","0","OCTOBER","3","AUGUST","1","0","2845",,,,,"0","2019-01-21 21:53:26","579138"
"A2U2SUED1ODL4D","cs_wg_mon_int_pilot1","3ZR9AIQJUBAOWNRE5B6JVFGC7WH04C","36","0","JULY","2","MARCH","10","1","300",,,,,"0","2019-01-21 21:53:28","579139"
"A2U2SUED1ODL4D","cs_wg_mon_int_pilot1","3ZR9AIQJUBAOWNRE5B6JVFGC7WH04C","37","0","DECEMBER","10","AUGUST","1","1","434",,,,,"0","2019-01-21 21:53:30","579140"
"A2U2SUED1ODL4D","cs_wg_mon_int_pilot1","3ZR9AIQJUBAOWNRE5B6JVFGC7WH04C","38","0","JULY","2","JANUARY","3","0","13936",,,,,"0","2019-01-21 21:53:46","579141"
"A2U2SUED1ODL4D","cs_wg_mon_int_pilot1","3ZR9AIQJUBAOWNRE5B6JVFGC7WH04C","39","0","JANUARY","3","SEPTEMBER","12","1","333",,,,,"0","2019-01-21 21:53:48","579142"
"A2U2SUED1ODL4D","cs_wg_mon_int_pilot1","3ZR9AIQJUBAOWNRE5B6JVFGC7WH04C","40","0","AUGUST","1","DECEMBER","10","0","1006",,,,,"0","2019-01-21 21:53:51","579143"
"A2U2SUED1ODL4D","cs_wg_mon_int_pilot1","3ZR9AIQJUBAOWNRE5B6JVFGC7WH04C","41","0","AUGUST","1","JUNE","10","1","100",,,,,"0","2019-01-21 21:53:53","579144"
"A2U2SUED1ODL4D","cs_wg_mon_int_pilot1","3ZR9AIQJUBAOWNRE5B6JVFGC7WH04C","42","0","SEPTEMBER","12","JANUARY","3","1","333",,,,,"0","2019-01-21 21:53:55","579145"
"A2U2SUED1ODL4D","cs_wg_mon_int_pilot1","3ZR9AIQJUBAOWNRE5B6JVFGC7WH04C","43","0","AUGUST","1","MARCH","10","0","269",,,,,"0","2019-01-21 21:53:57","579146"
"A2U2SUED1ODL4D","cs_wg_mon_int_pilot1","3ZR9AIQJUBAOWNRE5B6JVFGC7WH04C","44","0","AUGUST","1","MARCH","10","1","118",,,,,"0","2019-01-21 21:53:58","579147"
"A2U2SUED1ODL4D","cs_wg_mon_int_pilot1","3ZR9AIQJUBAOWNRE5B6JVFGC7WH04C","45","0","FEBRUARY","11","NOVEMBER","3","0","262",,,,,"0","2019-01-21 21:54:00","579148"
"A2U2SUED1ODL4D","cs_wg_mon_int_pilot1","3ZR9AIQJUBAOWNRE5B6JVFGC7WH04C","46","0","SEPTEMBER","12","DECEMBER","10","1","254",,,,,"0","2019-01-21 21:54:02","579149"
"A2U2SUED1ODL4D","cs_wg_mon_int_pilot1","3ZR9AIQJUBAOWNRE5B6JVFGC7WH04C","47","0","NOVEMBER","3","SEPTEMBER","12","0","318",,,,,"0","2019-01-21 21:54:04","579150"
"A2U2SUED1ODL4D","cs_wg_mon_int_pilot1","3ZR9AIQJUBAOWNRE5B6JVFGC7WH04C","48","0","NOVEMBER","3","FEBRUARY","11","1","78",,,,,"0","2019-01-21 21:54:06","579151"
"A2U2SUED1ODL4D","cs_wg_mon_int_pilot1","3ZR9AIQJUBAOWNRE5B6JVFGC7WH04C","49","0","FEBRUARY","11","JANUARY","3","0","285",,,,,"0","2019-01-21 21:54:07","579152"
"A2U2SUED1ODL4D","cs_wg_mon_int_pilot1","3ZR9AIQJUBAOWNRE5B6JVFGC7WH04C","50","0","DECEMBER","10","AUGUST","1","1","268",,,,,"0","2019-01-21 21:54:09","579153"
"A2U2SUED1ODL4D","cs_wg_mon_int_pilot1","3ZR9AIQJUBAOWNRE5B6JVFGC7WH04C","51","0","MAY","3","FEBRUARY","11","0","285",,,,,"0","2019-01-21 21:54:11","579154"
"A2U2SUED1ODL4D","cs_wg_mon_int_pilot1","3ZR9AIQJUBAOWNRE5B6JVFGC7WH04C","52","0","JANUARY","3","JULY","2","1","581",,,,,"0","2019-01-21 21:54:13","579155"
"A2U2SUED1ODL4D","cs_wg_mon_int_pilot1","3ZR9AIQJUBAOWNRE5B6JVFGC7WH04C","53","0","MAY","3","SEPTEMBER","12","0","19805",,,,,"0","2019-01-21 21:54:35","579156"
"A2U2SUED1ODL4D","cs_wg_mon_int_pilot1","3ZR9AIQJUBAOWNRE5B6JVFGC7WH04C","54","0","JULY","2","MAY","3","1","309",,,,,"0","2019-01-21 21:54:37","579157"
"A2U2SUED1ODL4D","cs_wg_mon_int_pilot1","3ZR9AIQJUBAOWNRE5B6JVFGC7WH04C","55","0","SEPTEMBER","12","NOVEMBER","3","0","2500",,,,,"0","2019-01-21 21:54:41","579158"
"A2U2SUED1ODL4D","cs_wg_mon_int_pilot1","3ZR9AIQJUBAOWNRE5B6JVFGC7WH04C","56","0","MARCH","10","JULY","2","1","277",,,,,"0","2019-01-21 21:54:44","579159"
"A2U2SUED1ODL4D","cs_wg_mon_int_pilot1","3ZR9AIQJUBAOWNRE5B6JVFGC7WH04C","57","0","FEBRUARY","11","OCTOBER","3","0","316",,,,,"0","2019-01-21 21:54:46","579160"
"A2U2SUED1ODL4D","cs_wg_mon_int_pilot1","3ZR9AIQJUBAOWNRE5B6JVFGC7WH04C","58","0","APRIL","10","FEBRUARY","11","1","596",,,,,"0","2019-01-21 21:54:48","579161"
"A2U2SUED1ODL4D","cs_wg_mon_int_pilot1","3ZR9AIQJUBAOWNRE5B6JVFGC7WH04C","59","0","AUGUST","1","DECEMBER","10","0","289",,,,,"0","2019-01-21 21:54:50","579162"
"A2U2SUED1ODL4D","cs_wg_mon_int_pilot1","3ZR9AIQJUBAOWNRE5B6JVFGC7WH04C","60","0","OCTOBER","3","FEBRUARY","11","1","229",,,,,"0","2019-01-21 21:54:52","579163"
"A2U2SUED1ODL4D","cs_wg_mon_int_pilot1","3ZR9AIQJUBAOWNRE5B6JVFGC7WH04C","61","0","FEBRUARY","11","JANUARY","3","0","597",,,,,"0","2019-01-21 21:54:54","579164"
"A2U2SUED1ODL4D","cs_wg_mon_int_pilot1","3ZR9AIQJUBAOWNRE5B6JVFGC7WH04C","62","0","APRIL","10","JULY","2","1","206",,,,,"0","2019-01-21 21:54:56","579165"
"A2U2SUED1ODL4D","cs_wg_mon_int_pilot1","3ZR9AIQJUBAOWNRE5B6JVFGC7WH04C","63","0","FEBRUARY","11","MAY","3","0","861",,,,,"0","2019-01-21 21:54:59","579166"
"A2U2SUED1ODL4D","cs_wg_mon_int_pilot1","3ZR9AIQJUBAOWNRE5B6JVFGC7WH04C","64","0","APRIL","10","JULY","2","1","290",,,,,"0","2019-01-21 21:55:01","579167"
"A2U2SUED1ODL4D","cs_wg_mon_int_pilot1","3ZR9AIQJUBAOWNRE5B6JVFGC7WH04C","65","0","MARCH","10","FEBRUARY","11","0","1716",,,,,"0","2019-01-21 21:55:04","579168"
"A2U2SUED1ODL4D","cs_wg_mon_int_pilot1","3ZR9AIQJUBAOWNRE5B6JVFGC7WH04C","66","0","JULY","2","MARCH","10","1","230",,,,,"0","2019-01-21 21:55:06","579169"
"A2U2SUED1ODL4D","cs_wg_mon_int_pilot1","3ZR9AIQJUBAOWNRE5B6JVFGC7WH04C","67","0","JUNE","10","FEBRUARY","11","0","253",,,,,"0","2019-01-21 21:55:08","579170"
"A2U2SUED1ODL4D","cs_wg_mon_int_pilot1","3ZR9AIQJUBAOWNRE5B6JVFGC7WH04C","68","0","FEBRUARY","11","APRIL","10","1","365",,,,,"0","2019-01-21 21:55:10","579171"
"A2U2SUED1ODL4D","cs_wg_mon_int_pilot1","3ZR9AIQJUBAOWNRE5B6JVFGC7WH04C","69","0","NOVEMBER","3","JULY","2","0","2159",,,,,"0","2019-01-21 21:55:15","579172"
"A2U2SUED1ODL4D","cs_wg_mon_int_pilot1","3ZR9AIQJUBAOWNRE5B6JVFGC7WH04C","70","0","DECEMBER","10","AUGUST","1","0","261",,,,,"0","2019-01-21 21:55:17","579173"
"A2U2SUED1ODL4D","cs_wg_mon_int_pilot1","3ZR9AIQJUBAOWNRE5B6JVFGC7WH04C","71","0","JANUARY","3","SEPTEMBER","12","0","461",,,,,"0","2019-01-21 21:55:19","579174"
"A2U2SUED1ODL4D","cs_wg_mon_int_pilot1","3ZR9AIQJUBAOWNRE5B6JVFGC7WH04C","72","0","FEBRUARY","11","OCTOBER","3","1","277",,,,,"0","2019-01-21 21:55:20","579175"
"A2U2SUED1ODL4D","cs_wg_mon_int_pilot1","3ZR9AIQJUBAOWNRE5B6JVFGC7WH04C","73","0","NOVEMBER","3","SEPTEMBER","12","0","1261",,,,,"0","2019-01-21 21:55:23","579176"
"A2U2SUED1ODL4D","cs_wg_mon_int_pilot1","3ZR9AIQJUBAOWNRE5B6JVFGC7WH04C","74","0","OCTOBER","3","SEPTEMBER","12","1","1998",,,,,"0","2019-01-21 21:55:28","579177"
"A2U2SUED1ODL4D","cs_wg_mon_int_pilot1","3ZR9AIQJUBAOWNRE5B6JVFGC7WH04C","75","0","DECEMBER","10","SEPTEMBER","12","0","366",,,,,"0","2019-01-21 21:55:30","579178"
"A2U2SUED1ODL4D","cs_wg_mon_int_pilot1","3ZR9AIQJUBAOWNRE5B6JVFGC7WH04C","76","0","AUGUST","1","APRIL","10","1","269",,,,,"0","2019-01-21 21:55:32","579179"
"A2U2SUED1ODL4D","cs_wg_mon_int_pilot1","3ZR9AIQJUBAOWNRE5B6JVFGC7WH04C","77","0","JANUARY","3","SEPTEMBER","12","0","23",,,,,"0","2019-01-21 21:55:33","579180"
"A2U2SUED1ODL4D","cs_wg_mon_int_pilot1","3ZR9AIQJUBAOWNRE5B6JVFGC7WH04C","78","0","FEBRUARY","11","JUNE","10","1","486",,,,,"0","2019-01-21 21:55:35","579181"
"A2U2SUED1ODL4D","cs_wg_mon_int_pilot1","3ZR9AIQJUBAOWNRE5B6JVFGC7WH04C","79","0","FEBRUARY","11","MAY","3","0","372",,,,,"0","2019-01-21 21:55:37","579182"
"A2U2SUED1ODL4D","cs_wg_mon_int_pilot1","3ZR9AIQJUBAOWNRE5B6JVFGC7WH04C","80","0","SEPTEMBER","12","JANUARY","3","1","85",,,,,"0","2019-01-21 21:55:39","579183"
"A2U2SUED1ODL4D","cs_wg_mon_int_pilot1","3ZR9AIQJUBAOWNRE5B6JVFGC7WH04C","81","0","JULY","2","APRIL","10","0","253",,,,,"0","2019-01-21 21:55:41","579184"
"A2U2SUED1ODL4D","cs_wg_mon_int_pilot1","3ZR9AIQJUBAOWNRE5B6JVFGC7WH04C","82","0","JANUARY","3","FEBRUARY","11","1","156",,,,,"0","2019-01-21 21:55:43","579185"
"A2U2SUED1ODL4D","cs_wg_mon_int_pilot1","3ZR9AIQJUBAOWNRE5B6JVFGC7WH04C","83","0","SEPTEMBER","12","JANUARY","3","0","261",,,,,"0","2019-01-21 21:55:45","579186"
"A2U2SUED1ODL4D","cs_wg_mon_int_pilot1","3ZR9AIQJUBAOWNRE5B6JVFGC7WH04C","84","0","JULY","2","OCTOBER","3","1","332",,,,,"0","2019-01-21 21:55:47","579187"
"A2U2SUED1ODL4D","cs_wg_mon_int_pilot1","3ZR9AIQJUBAOWNRE5B6JVFGC7WH04C","85","0","SEPTEMBER","12","OCTOBER","3","0","453",,,,,"0","2019-01-21 21:55:49","579188"
"A2U2SUED1ODL4D","cs_wg_mon_int_pilot1","3ZR9AIQJUBAOWNRE5B6JVFGC7WH04C","86","0","JUNE","10","JULY","2","1","310",,,,,"0","2019-01-21 21:55:51","579189"
"A2U2SUED1ODL4D","cs_wg_mon_int_pilot1","3ZR9AIQJUBAOWNRE5B6JVFGC7WH04C","87","0","NOVEMBER","3","FEBRUARY","11","0","294",,,,,"0","2019-01-21 21:55:53","579190"
"A2U2SUED1ODL4D","cs_wg_mon_int_pilot1","3ZR9AIQJUBAOWNRE5B6JVFGC7WH04C","88","0","AUGUST","1","OCTOBER","3","1","165",,,,,"0","2019-01-21 21:55:54","579191"
"A2U2SUED1ODL4D","cs_wg_mon_int_pilot1","3ZR9AIQJUBAOWNRE5B6JVFGC7WH04C","89","0","NOVEMBER","3","FEBRUARY","11","0","157",,,,,"0","2019-01-21 21:55:56","579192"
"A2U2SUED1ODL4D","cs_wg_mon_int_pilot1","3ZR9AIQJUBAOWNRE5B6JVFGC7WH04C","90","0","MARCH","10","AUGUST","1","1","333",,,,,"0","2019-01-21 21:55:59","579193"
"A2U2SUED1ODL4D","cs_wg_mon_int_pilot1","3ZR9AIQJUBAOWNRE5B6JVFGC7WH04C","91","0","SEPTEMBER","12","APRIL","10","0","220",,,,,"0","2019-01-21 21:56:01","579194"
"A2U2SUED1ODL4D","cs_wg_mon_int_pilot1","3ZR9AIQJUBAOWNRE5B6JVFGC7WH04C","92","0","FEBRUARY","11","MARCH","10","1","38",,,,,"0","2019-01-21 21:56:02","579195"
"A2U2SUED1ODL4D","cs_wg_mon_int_pilot1","3ZR9AIQJUBAOWNRE5B6JVFGC7WH04C","93","0","MAY","3","AUGUST","1","1","237",,,,,"0","2019-01-21 21:56:04","579196"
"A2U2SUED1ODL4D","cs_wg_mon_int_pilot1","3ZR9AIQJUBAOWNRE5B6JVFGC7WH04C","94","0","SEPTEMBER","12","MAY","3","0","263",,,,,"0","2019-01-21 21:56:06","579197"
"A2U2SUED1ODL4D","cs_wg_mon_int_pilot1","3ZR9AIQJUBAOWNRE5B6JVFGC7WH04C","95","0","JULY","2","JUNE","10","1","45",,,,,"0","2019-01-21 21:56:07","579198"
"A2U2SUED1ODL4D","cs_wg_mon_int_pilot1","3ZR9AIQJUBAOWNRE5B6JVFGC7WH04C","96","0","JULY","2","APRIL","10","1","182",,,,,"0","2019-01-21 21:56:09","579199"
"A2U2SUED1ODL4D","cs_wg_mon_int_pilot1","3ZR9AIQJUBAOWNRE5B6JVFGC7WH04C","97","0","DECEMBER","10","JULY","2","0","284",,,,,"0","2019-01-21 21:56:11","579200"
"A2U2SUED1ODL4D","cs_wg_mon_int_pilot1","3ZR9AIQJUBAOWNRE5B6JVFGC7WH04C","98","0","JANUARY","3","AUGUST","1","0","4241",,,,,"0","2019-01-21 21:56:19","579201"
"A2U2SUED1ODL4D","cs_wg_mon_int_pilot1","3ZR9AIQJUBAOWNRE5B6JVFGC7WH04C","99","0","OCTOBER","3","SEPTEMBER","12","1","744",,,,,"0","2019-01-21 21:56:23","579202"
"A2U2SUED1ODL4D","cs_wg_mon_int_pilot1","3ZR9AIQJUBAOWNRE5B6JVFGC7WH04C","100","0","DECEMBER","10","JULY","2","0","261",,,,,"0","2019-01-21 21:56:25","579203"
"A2U2SUED1ODL4D","cs_wg_mon_int_pilot1","3ZR9AIQJUBAOWNRE5B6JVFGC7WH04C","101","0","MAY","3","SEPTEMBER","12","1","253",,,,,"0","2019-01-21 21:56:27","579204"
"A2U2SUED1ODL4D","cs_wg_mon_int_pilot1","3ZR9AIQJUBAOWNRE5B6JVFGC7WH04C","102","0","JULY","2","JUNE","10","0","279",,,,,"0","2019-01-21 21:56:28","579205"
"A2U2SUED1ODL4D","cs_wg_mon_int_pilot1","3ZR9AIQJUBAOWNRE5B6JVFGC7WH04C","103","0","MARCH","10","AUGUST","1","1","253",,,,,"0","2019-01-21 21:56:31","579206"
"A2U2SUED1ODL4D","cs_wg_mon_int_pilot1","3ZR9AIQJUBAOWNRE5B6JVFGC7WH04C","104","0","JULY","2","DECEMBER","10","0","277",,,,,"0","2019-01-21 21:56:32","579207"
"A2U2SUED1ODL4D","cs_wg_mon_int_pilot1","3ZR9AIQJUBAOWNRE5B6JVFGC7WH04C","105","0","JUNE","10","AUGUST","1","1","117",,,,,"0","2019-01-21 21:56:34","579208"
"A2U2SUED1ODL4D","cs_wg_mon_int_pilot1","3ZR9AIQJUBAOWNRE5B6JVFGC7WH04C","106","0","AUGUST","1","MARCH","10","0","326",,,,,"0","2019-01-21 21:56:36","579209"
"A2U2SUED1ODL4D","cs_wg_mon_int_pilot1","3ZR9AIQJUBAOWNRE5B6JVFGC7WH04C","107","0","SEPTEMBER","12","MAY","3","1","271",,,,,"0","2019-01-21 21:56:38","579210"
"A2U2SUED1ODL4D","cs_wg_mon_int_pilot1","3ZR9AIQJUBAOWNRE5B6JVFGC7WH04C","108","0","SEPTEMBER","12","JUNE","10","0","277",,,,,"0","2019-01-21 21:56:40","579211"
"A2U2SUED1ODL4D","cs_wg_mon_int_pilot1","3ZR9AIQJUBAOWNRE5B6JVFGC7WH04C","109","0","MAY","3","JULY","2","1","278",,,,,"0","2019-01-21 21:56:42","579212"
"A2U2SUED1ODL4D","cs_wg_mon_int_pilot1","3ZR9AIQJUBAOWNRE5B6JVFGC7WH04C","110","0","JUNE","10","AUGUST","1","0","261",,,,,"0","2019-01-21 21:56:44","579213"
"A2U2SUED1ODL4D","cs_wg_mon_int_pilot1","3ZR9AIQJUBAOWNRE5B6JVFGC7WH04C","111","0","JUNE","10","JULY","2","1","246",,,,,"0","2019-01-21 21:56:45","579214"
"A2U2SUED1ODL4D","cs_wg_mon_int_pilot1","3ZR9AIQJUBAOWNRE5B6JVFGC7WH04C","112","0","MAY","3","FEBRUARY","11","0","245",,,,,"0","2019-01-21 21:56:47","579215"
"A2U2SUED1ODL4D","cs_wg_mon_int_pilot1","3ZR9AIQJUBAOWNRE5B6JVFGC7WH04C","113","0","APRIL","10","AUGUST","1","1","282",,,,,"0","2019-01-21 21:56:49","579216"
"A2U2SUED1ODL4D","cs_wg_mon_int_pilot1","3ZR9AIQJUBAOWNRE5B6JVFGC7WH04C","114","0","OCTOBER","3","SEPTEMBER","12","0","277",,,,,"0","2019-01-21 21:56:51","579217"
"A2U2SUED1ODL4D","cs_wg_mon_int_pilot1","3ZR9AIQJUBAOWNRE5B6JVFGC7WH04C","115","0","AUGUST","1","DECEMBER","10","0","316",,,,,"0","2019-01-21 21:56:53","579218"
"A2U2SUED1ODL4D","cs_wg_mon_int_pilot1","3ZR9AIQJUBAOWNRE5B6JVFGC7WH04C","116","0","JULY","2","DECEMBER","10","1","341",,,,,"0","2019-01-21 21:56:55","579219"
"A2U2SUED1ODL4D","cs_wg_mon_int_pilot1","3ZR9AIQJUBAOWNRE5B6JVFGC7WH04C","117","0","FEBRUARY","11","NOVEMBER","3","0","189",,,,,"0","2019-01-21 21:56:56","579220"
"A2U2SUED1ODL4D","cs_wg_mon_int_pilot1","3ZR9AIQJUBAOWNRE5B6JVFGC7WH04C","118","0","AUGUST","1","APRIL","10","1","334",,,,,"0","2019-01-21 21:56:58","579221"
"A2U2SUED1ODL4D","cs_wg_mon_int_pilot1","3ZR9AIQJUBAOWNRE5B6JVFGC7WH04C","119","0","JULY","2","MARCH","10","0","290",,,,,"0","2019-01-21 21:57:00","579222"
"A2U2SUED1ODL4D","cs_wg_mon_int_pilot1","3ZR9AIQJUBAOWNRE5B6JVFGC7WH04C","120","0","APRIL","10","JULY","2","1","173",,,,,"0","2019-01-21 21:57:02","579223"
"A2U2SUED1ODL4D","cs_wg_mon_int_pilot1","3ZR9AIQJUBAOWNRE5B6JVFGC7WH04C","121","0","SEPTEMBER","12","OCTOBER","3","0","309",,,,,"0","2019-01-21 21:57:03","579224"
"A2U2SUED1ODL4D","cs_wg_mon_int_pilot1","3ZR9AIQJUBAOWNRE5B6JVFGC7WH04C","122","0","FEBRUARY","11","OCTOBER","3","0","1415",,,,,"0","2019-01-21 21:57:06","579225"
"A2U2SUED1ODL4D","cs_wg_mon_int_pilot1","3ZR9AIQJUBAOWNRE5B6JVFGC7WH04C","123","0","DECEMBER","10","FEBRUARY","11","0","348",,,,,"0","2019-01-21 21:57:08","579226"
"A2U2SUED1ODL4D","cs_wg_mon_int_pilot1","3ZR9AIQJUBAOWNRE5B6JVFGC7WH04C","124","0","JANUARY","3","FEBRUARY","11","1","153",,,,,"0","2019-01-21 21:57:10","579227"
"A2U2SUED1ODL4D","cs_wg_mon_int_pilot1","3ZR9AIQJUBAOWNRE5B6JVFGC7WH04C","125","0","JUNE","10","SEPTEMBER","12","0","373",,,,,"0","2019-01-21 21:57:13","579228"
"A2U2SUED1ODL4D","cs_wg_mon_int_pilot1","3ZR9AIQJUBAOWNRE5B6JVFGC7WH04C","126","0","AUGUST","1","MAY","3","1","669",,,,,"0","2019-01-21 21:57:15","579229"
"A2U2SUED1ODL4D","cs_wg_mon_int_pilot1","3ZR9AIQJUBAOWNRE5B6JVFGC7WH04C","127","0","JULY","2","NOVEMBER","3","0","467",,,,,"0","2019-01-21 21:57:17","579230"
"AUTYWXILTACCR","cs_wg_mon_int_pilot1","3IOEN3P9S7K2IZGAKI3Y6IJ08FV163","0","0","DECEMBER","1","APRIL","10","0","4421",,,,,"0","2019-01-21 22:01:16","579231"
"AUTYWXILTACCR","cs_wg_mon_int_pilot1","3IOEN3P9S7K2IZGAKI3Y6IJ08FV163","1","0","APRIL","10","SEPTEMBER","2","0","1320",,,,,"0","2019-01-21 22:01:20","579232"
"AUTYWXILTACCR","cs_wg_mon_int_pilot1","3IOEN3P9S7K2IZGAKI3Y6IJ08FV163","2","0","MAY","3","JULY","12","1","1862",,,,,"0","2019-01-21 22:01:28","579233"
"AUTYWXILTACCR","cs_wg_mon_int_pilot1","3IOEN3P9S7K2IZGAKI3Y6IJ08FV163","3","0","AUGUST","10","DECEMBER","1","0","11442",,,,,"0","2019-01-21 22:01:49","579234"
"AUTYWXILTACCR","cs_wg_mon_int_pilot1","3IOEN3P9S7K2IZGAKI3Y6IJ08FV163","4","0","SEPTEMBER","2","FEBRUARY","10","1","1047",,,,,"0","2019-01-21 22:01:57","579235"
"AUTYWXILTACCR","cs_wg_mon_int_pilot1","3IOEN3P9S7K2IZGAKI3Y6IJ08FV163","5","0","JUNE","11","OCTOBER","3","0","1427",,,,,"0","2019-01-21 22:02:03","579236"
"AUTYWXILTACCR","cs_wg_mon_int_pilot1","3IOEN3P9S7K2IZGAKI3Y6IJ08FV163","6","0","NOVEMBER","3","DECEMBER","1","1","1324",,,,,"0","2019-01-21 22:02:09","579237"
"AUTYWXILTACCR","cs_wg_mon_int_pilot1","3IOEN3P9S7K2IZGAKI3Y6IJ08FV163","7","0","DECEMBER","1","MARCH","3","0","3585",,,,,"0","2019-01-21 22:02:25","579238"
"AUTYWXILTACCR","cs_wg_mon_int_pilot1","3IOEN3P9S7K2IZGAKI3Y6IJ08FV163","8","0","MAY","3","JULY","12","0","1936",,,,,"0","2019-01-21 22:02:31","579239"
"AUTYWXILTACCR","cs_wg_mon_int_pilot1","3IOEN3P9S7K2IZGAKI3Y6IJ08FV163","10","0","JULY","12","MARCH","3","0","1087",,,,,"0","2019-01-21 22:02:56","579240"
"AUTYWXILTACCR","cs_wg_mon_int_pilot1","3IOEN3P9S7K2IZGAKI3Y6IJ08FV163","11","0","JUNE","11","MAY","3","0","1638",,,,,"0","2019-01-21 22:02:56","579241"
"AUTYWXILTACCR","cs_wg_mon_int_pilot1","3IOEN3P9S7K2IZGAKI3Y6IJ08FV163","9","0","FEBRUARY","10","SEPTEMBER","2","0","1923",,,,,"0","2019-01-21 22:02:57","579242"
"AUTYWXILTACCR","cs_wg_mon_int_pilot1","3IOEN3P9S7K2IZGAKI3Y6IJ08FV163","14","0","JUNE","11","NOVEMBER","3","0","1298",,,,,"0","2019-01-21 22:03:10","579243"
"AUTYWXILTACCR","cs_wg_mon_int_pilot1","3IOEN3P9S7K2IZGAKI3Y6IJ08FV163","13","0","JANUARY","10","DECEMBER","1","0","1326",,,,,"0","2019-01-21 22:03:13","579244"
"AUTYWXILTACCR","cs_wg_mon_int_pilot1","3IOEN3P9S7K2IZGAKI3Y6IJ08FV163","12","0","OCTOBER","3","DECEMBER","1","0","1930",,,,,"0","2019-01-21 22:03:18","579245"
"AUTYWXILTACCR","cs_wg_mon_int_pilot1","3IOEN3P9S7K2IZGAKI3Y6IJ08FV163","15","0","JUNE","11","MAY","3","0","1284",,,,,"0","2019-01-21 22:03:18","579246"
"AUTYWXILTACCR","cs_wg_mon_int_pilot1","3IOEN3P9S7K2IZGAKI3Y6IJ08FV163","16","0","JULY","12","MARCH","3","0","8857",,,,,"0","2019-01-21 22:03:27","579247"
"AUTYWXILTACCR","cs_wg_mon_int_pilot1","3IOEN3P9S7K2IZGAKI3Y6IJ08FV163","17","0","JULY","12","NOVEMBER","3","0","1173",,,,,"0","2019-01-21 22:03:31","579248"
"AUTYWXILTACCR","cs_wg_mon_int_pilot1","3IOEN3P9S7K2IZGAKI3Y6IJ08FV163","18","0","FEBRUARY","10","DECEMBER","1","0","3132",,,,,"0","2019-01-21 22:03:36","579249"
"AUTYWXILTACCR","cs_wg_mon_int_pilot1","3IOEN3P9S7K2IZGAKI3Y6IJ08FV163","19","0","NOVEMBER","3","SEPTEMBER","2","1","12030",,,,,"0","2019-01-21 22:03:51","579250"
"AUTYWXILTACCR","cs_wg_mon_int_pilot1","3IOEN3P9S7K2IZGAKI3Y6IJ08FV163","20","0","JUNE","11","MARCH","3","0","1077",,,,,"0","2019-01-21 22:03:54","579251"
"AUTYWXILTACCR","cs_wg_mon_int_pilot1","3IOEN3P9S7K2IZGAKI3Y6IJ08FV163","21","0","SEPTEMBER","2","JANUARY","10","1","1066",,,,,"0","2019-01-21 22:03:57","579252"
"AUTYWXILTACCR","cs_wg_mon_int_pilot1","3IOEN3P9S7K2IZGAKI3Y6IJ08FV163","22","0","AUGUST","10","JUNE","11","0","1151",,,,,"0","2019-01-21 22:04:01","579253"
"AUTYWXILTACCR","cs_wg_mon_int_pilot1","3IOEN3P9S7K2IZGAKI3Y6IJ08FV163","23","0","MAY","3","JULY","12","1","1444",,,,,"0","2019-01-21 22:04:05","579254"
"AUTYWXILTACCR","cs_wg_mon_int_pilot1","3IOEN3P9S7K2IZGAKI3Y6IJ08FV163","24","0","SEPTEMBER","2","MARCH","3","0","1476",,,,,"0","2019-01-21 22:04:08","579255"
"AUTYWXILTACCR","cs_wg_mon_int_pilot1","3IOEN3P9S7K2IZGAKI3Y6IJ08FV163","25","0","SEPTEMBER","2","JANUARY","10","0","1384",,,,,"0","2019-01-21 22:04:12","579256"
"AUTYWXILTACCR","cs_wg_mon_int_pilot1","3IOEN3P9S7K2IZGAKI3Y6IJ08FV163","26","0","MAY","3","SEPTEMBER","2","0","1346",,,,,"0","2019-01-21 22:04:15","579257"
"AUTYWXILTACCR","cs_wg_mon_int_pilot1","3IOEN3P9S7K2IZGAKI3Y6IJ08FV163","27","0","DECEMBER","1","MAY","3","1","2282",,,,,"0","2019-01-21 22:04:20","579258"
"AUTYWXILTACCR","cs_wg_mon_int_pilot1","3IOEN3P9S7K2IZGAKI3Y6IJ08FV163","28","0","DECEMBER","1","FEBRUARY","10","0","1790",,,,,"0","2019-01-21 22:04:24","579259"
"AUTYWXILTACCR","cs_wg_mon_int_pilot1","3IOEN3P9S7K2IZGAKI3Y6IJ08FV163","29","0","JULY","12","APRIL","10","0","1072",,,,,"0","2019-01-21 22:04:28","579260"
"AUTYWXILTACCR","cs_wg_mon_int_pilot1","3IOEN3P9S7K2IZGAKI3Y6IJ08FV163","30","0","SEPTEMBER","2","OCTOBER","3","0","4990",,,,,"0","2019-01-21 22:04:56","579261"
"AUTYWXILTACCR","cs_wg_mon_int_pilot1","3IOEN3P9S7K2IZGAKI3Y6IJ08FV163","31","0","MARCH","3","JULY","12","1","5249",,,,,"0","2019-01-21 22:05:05","579262"
"AUTYWXILTACCR","cs_wg_mon_int_pilot1","3IOEN3P9S7K2IZGAKI3Y6IJ08FV163","32","0","JULY","12","AUGUST","10","0","1671",,,,,"0","2019-01-21 22:05:11","579263"
"AUTYWXILTACCR","cs_wg_mon_int_pilot1","3IOEN3P9S7K2IZGAKI3Y6IJ08FV163","33","0","DECEMBER","1","JANUARY","10","1","2068",,,,,"0","2019-01-21 22:05:15","579264"
"AUTYWXILTACCR","cs_wg_mon_int_pilot1","3IOEN3P9S7K2IZGAKI3Y6IJ08FV163","34","0","MAY","3","JUNE","11","1","1686",,,,,"0","2019-01-21 22:05:20","579265"
"AUTYWXILTACCR","cs_wg_mon_int_pilot1","3IOEN3P9S7K2IZGAKI3Y6IJ08FV163","35","0","JULY","12","MAY","3","0","800",,,,,"0","2019-01-21 22:05:23","579266"
"AUTYWXILTACCR","cs_wg_mon_int_pilot1","3IOEN3P9S7K2IZGAKI3Y6IJ08FV163","36","0","APRIL","10","JULY","12","1","926",,,,,"0","2019-01-21 22:05:25","579267"
"AY5OS6NZWVX22","cs_wg_mon_int_pilot1","3LWJHTCVCCNMIWT26QWH1P4L9QPFQE","0","0","AUGUST","3","DECEMBER","11","1","17623",,,,,"1","2019-01-21 22:05:28","579268"
"AUTYWXILTACCR","cs_wg_mon_int_pilot1","3IOEN3P9S7K2IZGAKI3Y6IJ08FV163","37","0","JUNE","11","APRIL","10","0","991",,,,,"0","2019-01-21 22:05:29","579269"
"AUTYWXILTACCR","cs_wg_mon_int_pilot1","3IOEN3P9S7K2IZGAKI3Y6IJ08FV163","38","0","DECEMBER","1","FEBRUARY","10","1","1231",,,,,"0","2019-01-21 22:05:32","579270"
"AUTYWXILTACCR","cs_wg_mon_int_pilot1","3IOEN3P9S7K2IZGAKI3Y6IJ08FV163","39","0","JANUARY","10","SEPTEMBER","2","0","890",,,,,"0","2019-01-21 22:05:35","579271"
"AUTYWXILTACCR","cs_wg_mon_int_pilot1","3IOEN3P9S7K2IZGAKI3Y6IJ08FV163","40","0","DECEMBER","1","FEBRUARY","10","1","1024",,,,,"0","2019-01-21 22:05:37","579272"
"AUTYWXILTACCR","cs_wg_mon_int_pilot1","3IOEN3P9S7K2IZGAKI3Y6IJ08FV163","41","0","JULY","12","MAY","3","0","891",,,,,"0","2019-01-21 22:05:40","579273"
"AUTYWXILTACCR","cs_wg_mon_int_pilot1","3IOEN3P9S7K2IZGAKI3Y6IJ08FV163","42","0","AUGUST","10","SEPTEMBER","2","0","1114",,,,,"0","2019-01-21 22:05:43","579274"
"AUTYWXILTACCR","cs_wg_mon_int_pilot1","3IOEN3P9S7K2IZGAKI3Y6IJ08FV163","43","0","MARCH","3","JUNE","11","1","780",,,,,"0","2019-01-21 22:05:46","579275"
"AY5OS6NZWVX22","cs_wg_mon_int_pilot1","3LWJHTCVCCNMIWT26QWH1P4L9QPFQE","1","0","FEBRUARY","2","MARCH","10","1","11442",,,,,"1","2019-01-21 22:05:47","579276"
"AUTYWXILTACCR","cs_wg_mon_int_pilot1","3IOEN3P9S7K2IZGAKI3Y6IJ08FV163","44","0","AUGUST","10","SEPTEMBER","2","0","717",,,,,"0","2019-01-21 22:05:49","579277"
"AUTYWXILTACCR","cs_wg_mon_int_pilot1","3IOEN3P9S7K2IZGAKI3Y6IJ08FV163","45","0","AUGUST","10","DECEMBER","1","0","897",,,,,"0","2019-01-21 22:05:51","579278"
"AUTYWXILTACCR","cs_wg_mon_int_pilot1","3IOEN3P9S7K2IZGAKI3Y6IJ08FV163","46","0","JUNE","11","NOVEMBER","3","0","721",,,,,"0","2019-01-21 22:05:54","579279"
"AY5OS6NZWVX22","cs_wg_mon_int_pilot1","3LWJHTCVCCNMIWT26QWH1P4L9QPFQE","2","0","DECEMBER","11","NOVEMBER","10","0","5521",,,,,"1","2019-01-21 22:05:56","579280"
"AUTYWXILTACCR","cs_wg_mon_int_pilot1","3IOEN3P9S7K2IZGAKI3Y6IJ08FV163","47","0","OCTOBER","3","JUNE","11","1","1108",,,,,"0","2019-01-21 22:05:57","579281"
"AUTYWXILTACCR","cs_wg_mon_int_pilot1","3IOEN3P9S7K2IZGAKI3Y6IJ08FV163","48","0","JULY","12","NOVEMBER","3","0","818",,,,,"0","2019-01-21 22:06:00","579282"
"AUTYWXILTACCR","cs_wg_mon_int_pilot1","3IOEN3P9S7K2IZGAKI3Y6IJ08FV163","49","0","JUNE","11","OCTOBER","3","0","740",,,,,"0","2019-01-21 22:06:02","579283"
"AY5OS6NZWVX22","cs_wg_mon_int_pilot1","3LWJHTCVCCNMIWT26QWH1P4L9QPFQE","3","0","JANUARY","1","NOVEMBER","10","1","6828",,,,,"1","2019-01-21 22:06:06","579284"
"AUTYWXILTACCR","cs_wg_mon_int_pilot1","3IOEN3P9S7K2IZGAKI3Y6IJ08FV163","50","0","SEPTEMBER","2","FEBRUARY","10","1","2650",,,,,"0","2019-01-21 22:06:07","579285"
"AUTYWXILTACCR","cs_wg_mon_int_pilot1","3IOEN3P9S7K2IZGAKI3Y6IJ08FV163","51","0","DECEMBER","1","JANUARY","10","1","2302",,,,,"0","2019-01-21 22:06:11","579286"
"AY5OS6NZWVX22","cs_wg_mon_int_pilot1","3LWJHTCVCCNMIWT26QWH1P4L9QPFQE","4","0","NOVEMBER","10","DECEMBER","11","1","4450",,,,,"1","2019-01-21 22:06:13","579287"
"AUTYWXILTACCR","cs_wg_mon_int_pilot1","3IOEN3P9S7K2IZGAKI3Y6IJ08FV163","52","0","APRIL","10","JUNE","11","0","944",,,,,"0","2019-01-21 22:06:14","579288"
"AUTYWXILTACCR","cs_wg_mon_int_pilot1","3IOEN3P9S7K2IZGAKI3Y6IJ08FV163","53","0","MAY","3","JUNE","11","1","1200",,,,,"0","2019-01-21 22:06:17","579289"
"AUTYWXILTACCR","cs_wg_mon_int_pilot1","3IOEN3P9S7K2IZGAKI3Y6IJ08FV163","54","0","JULY","12","MARCH","3","0","668",,,,,"0","2019-01-21 22:06:19","579290"
"AY5OS6NZWVX22","cs_wg_mon_int_pilot1","3LWJHTCVCCNMIWT26QWH1P4L9QPFQE","5","0","DECEMBER","11","SEPTEMBER","3","0","3200",,,,,"1","2019-01-21 22:06:20","579291"
"AUTYWXILTACCR","cs_wg_mon_int_pilot1","3IOEN3P9S7K2IZGAKI3Y6IJ08FV163","55","0","MARCH","3","JUNE","11","1","682",,,,,"0","2019-01-21 22:06:22","579292"
"AUTYWXILTACCR","cs_wg_mon_int_pilot1","3IOEN3P9S7K2IZGAKI3Y6IJ08FV163","56","0","SEPTEMBER","2","APRIL","10","1","1585",,,,,"0","2019-01-21 22:06:26","579293"
"AY5OS6NZWVX22","cs_wg_mon_int_pilot1","3LWJHTCVCCNMIWT26QWH1P4L9QPFQE","6","0","OCTOBER","10","JANUARY","1","0","5894",,,,,"1","2019-01-21 22:06:28","579294"
"AUTYWXILTACCR","cs_wg_mon_int_pilot1","3IOEN3P9S7K2IZGAKI3Y6IJ08FV163","57","0","NOVEMBER","3","JULY","12","1","879",,,,,"0","2019-01-21 22:06:28","579295"
"AUTYWXILTACCR","cs_wg_mon_int_pilot1","3IOEN3P9S7K2IZGAKI3Y6IJ08FV163","58","0","DECEMBER","1","APRIL","10","1","1621",,,,,"0","2019-01-21 22:06:32","579296"
"AY5OS6NZWVX22","cs_wg_mon_int_pilot1","3LWJHTCVCCNMIWT26QWH1P4L9QPFQE","7","0","SEPTEMBER","3","MAY","12","1","3933",,,,,"1","2019-01-21 22:06:35","579297"
"AUTYWXILTACCR","cs_wg_mon_int_pilot1","3IOEN3P9S7K2IZGAKI3Y6IJ08FV163","59","0","NOVEMBER","3","JULY","12","1","1038",,,,,"0","2019-01-21 22:06:35","579298"
"AUTYWXILTACCR","cs_wg_mon_int_pilot1","3IOEN3P9S7K2IZGAKI3Y6IJ08FV163","60","0","JUNE","11","FEBRUARY","10","0","1009",,,,,"0","2019-01-21 22:06:38","579299"
"AUTYWXILTACCR","cs_wg_mon_int_pilot1","3IOEN3P9S7K2IZGAKI3Y6IJ08FV163","61","0","APRIL","10","SEPTEMBER","2","0","1639",,,,,"0","2019-01-21 22:06:42","579300"
"AY5OS6NZWVX22","cs_wg_mon_int_pilot1","3LWJHTCVCCNMIWT26QWH1P4L9QPFQE","8","0","APRIL","10","FEBRUARY","2","0","4672",,,,,"1","2019-01-21 22:06:42","579301"
"AUTYWXILTACCR","cs_wg_mon_int_pilot1","3IOEN3P9S7K2IZGAKI3Y6IJ08FV163","62","0","DECEMBER","1","AUGUST","10","1","1012",,,,,"0","2019-01-21 22:06:44","579302"
"AUTYWXILTACCR","cs_wg_mon_int_pilot1","3IOEN3P9S7K2IZGAKI3Y6IJ08FV163","63","0","JANUARY","10","DECEMBER","1","0","1503",,,,,"0","2019-01-21 22:06:48","579303"
"AY5OS6NZWVX22","cs_wg_mon_int_pilot1","3LWJHTCVCCNMIWT26QWH1P4L9QPFQE","9","0","AUGUST","3","DECEMBER","11","1","3421",,,,,"1","2019-01-21 22:06:48","579304"
"AUTYWXILTACCR","cs_wg_mon_int_pilot1","3IOEN3P9S7K2IZGAKI3Y6IJ08FV163","64","0","JULY","12","MAY","3","0","514",,,,,"0","2019-01-21 22:06:52","579305"
"AY5OS6NZWVX22","cs_wg_mon_int_pilot1","3LWJHTCVCCNMIWT26QWH1P4L9QPFQE","10","0","JANUARY","1","OCTOBER","10","1","3136",,,,,"1","2019-01-21 22:06:54","579306"
"AUTYWXILTACCR","cs_wg_mon_int_pilot1","3IOEN3P9S7K2IZGAKI3Y6IJ08FV163","65","0","OCTOBER","3","JULY","12","1","2099",,,,,"0","2019-01-21 22:06:56","579307"
"AY5OS6NZWVX22","cs_wg_mon_int_pilot1","3LWJHTCVCCNMIWT26QWH1P4L9QPFQE","11","0","JANUARY","1","MARCH","10","1","2861",,,,,"1","2019-01-21 22:06:59","579308"
"AUTYWXILTACCR","cs_wg_mon_int_pilot1","3IOEN3P9S7K2IZGAKI3Y6IJ08FV163","66","0","DECEMBER","1","JANUARY","10","1","1450",,,,,"0","2019-01-21 22:06:59","579309"
"AUTYWXILTACCR","cs_wg_mon_int_pilot1","3IOEN3P9S7K2IZGAKI3Y6IJ08FV163","67","0","NOVEMBER","3","JUNE","11","1","1243",,,,,"0","2019-01-21 22:07:03","579310"
"AY5OS6NZWVX22","cs_wg_mon_int_pilot1","3LWJHTCVCCNMIWT26QWH1P4L9QPFQE","12","0","FEBRUARY","2","AUGUST","3","1","7087",,,,,"1","2019-01-21 22:07:08","579311"
"AUTYWXILTACCR","cs_wg_mon_int_pilot1","3IOEN3P9S7K2IZGAKI3Y6IJ08FV163","68","0","MARCH","3","JUNE","11","1","3757",,,,,"0","2019-01-21 22:07:09","579312"
"AY5OS6NZWVX22","cs_wg_mon_int_pilot1","3LWJHTCVCCNMIWT26QWH1P4L9QPFQE","13","0","MAY","12","OCTOBER","10","0","3730",,,,,"1","2019-01-21 22:07:14","579313"
"AY5OS6NZWVX22","cs_wg_mon_int_pilot1","3LWJHTCVCCNMIWT26QWH1P4L9QPFQE","14","0","MAY","12","MARCH","10","0","3469",,,,,"1","2019-01-21 22:07:20","579314"
"AY5OS6NZWVX22","cs_wg_mon_int_pilot1","3LWJHTCVCCNMIWT26QWH1P4L9QPFQE","15","0","MARCH","10","FEBRUARY","2","0","2817",,,,,"1","2019-01-21 22:07:25","579315"
"AY5OS6NZWVX22","cs_wg_mon_int_pilot1","3LWJHTCVCCNMIWT26QWH1P4L9QPFQE","16","0","MARCH","10","JANUARY","1","0","3351",,,,,"1","2019-01-21 22:07:31","579316"
"AY5OS6NZWVX22","cs_wg_mon_int_pilot1","3LWJHTCVCCNMIWT26QWH1P4L9QPFQE","17","0","MAY","12","SEPTEMBER","3","0","3545",,,,,"1","2019-01-21 22:07:37","579317"
"AY5OS6NZWVX22","cs_wg_mon_int_pilot1","3LWJHTCVCCNMIWT26QWH1P4L9QPFQE","18","0","OCTOBER","10","FEBRUARY","2","0","2687",,,,,"1","2019-01-21 22:07:42","579318"
"AY5OS6NZWVX22","cs_wg_mon_int_pilot1","3LWJHTCVCCNMIWT26QWH1P4L9QPFQE","19","0","JANUARY","1","AUGUST","3","1","4268",,,,,"1","2019-01-21 22:07:49","579319"
"AY5OS6NZWVX22","cs_wg_mon_int_pilot1","3LWJHTCVCCNMIWT26QWH1P4L9QPFQE","20","0","NOVEMBER","10","FEBRUARY","2","0","3817",,,,,"1","2019-01-21 22:07:54","579320"
"AY5OS6NZWVX22","cs_wg_mon_int_pilot1","3LWJHTCVCCNMIWT26QWH1P4L9QPFQE","21","0","DECEMBER","11","JUNE","3","0","2316",,,,,"1","2019-01-21 22:07:59","579321"
"AY5OS6NZWVX22","cs_wg_mon_int_pilot1","3LWJHTCVCCNMIWT26QWH1P4L9QPFQE","22","0","JANUARY","1","OCTOBER","10","1","2853",,,,,"1","2019-01-21 22:08:05","579322"
"AUTYWXILTACCR","cs_wg_mon_int_pilot1","3IOEN3P9S7K2IZGAKI3Y6IJ08FV163","69","0","NOVEMBER","3","JUNE","11","1","55094",,,,,"0","2019-01-21 22:08:07","579323"
"AY5OS6NZWVX22","cs_wg_mon_int_pilot1","3LWJHTCVCCNMIWT26QWH1P4L9QPFQE","23","0","NOVEMBER","10","MAY","12","1","3374",,,,,"1","2019-01-21 22:08:11","579324"
"AY5OS6NZWVX22","cs_wg_mon_int_pilot1","3LWJHTCVCCNMIWT26QWH1P4L9QPFQE","24","0","MARCH","10","FEBRUARY","2","0","1957",,,,,"1","2019-01-21 22:08:15","579325"
"AUTYWXILTACCR","cs_wg_mon_int_pilot1","3IOEN3P9S7K2IZGAKI3Y6IJ08FV163","70","0","DECEMBER","1","AUGUST","10","1","8022",,,,,"0","2019-01-21 22:08:18","579326"
"AY5OS6NZWVX22","cs_wg_mon_int_pilot1","3LWJHTCVCCNMIWT26QWH1P4L9QPFQE","25","0","FEBRUARY","2","OCTOBER","10","1","2662",,,,,"1","2019-01-21 22:08:20","579327"
"AY5OS6NZWVX22","cs_wg_mon_int_pilot1","3LWJHTCVCCNMIWT26QWH1P4L9QPFQE","26","0","APRIL","10","JANUARY","1","0","2645",,,,,"1","2019-01-21 22:08:25","579328"
"AY5OS6NZWVX22","cs_wg_mon_int_pilot1","3LWJHTCVCCNMIWT26QWH1P4L9QPFQE","27","0","APRIL","10","FEBRUARY","2","0","2932",,,,,"1","2019-01-21 22:08:30","579329"
"AY5OS6NZWVX22","cs_wg_mon_int_pilot1","3LWJHTCVCCNMIWT26QWH1P4L9QPFQE","28","0","AUGUST","3","JANUARY","1","0","3588",,,,,"1","2019-01-21 22:08:36","579330"
"AY5OS6NZWVX22","cs_wg_mon_int_pilot1","3LWJHTCVCCNMIWT26QWH1P4L9QPFQE","29","0","JUNE","3","FEBRUARY","2","0","8900",,,,,"1","2019-01-21 22:08:47","579331"
"AUTYWXILTACCR","cs_wg_mon_int_pilot1","3IOEN3P9S7K2IZGAKI3Y6IJ08FV163","71","0","OCTOBER","3","SEPTEMBER","2","0","27451",,,,,"0","2019-01-21 22:08:50","579332"
"AY5OS6NZWVX22","cs_wg_mon_int_pilot1","3LWJHTCVCCNMIWT26QWH1P4L9QPFQE","30","0","JANUARY","1","MARCH","10","1","2476",,,,,"1","2019-01-21 22:08:51","579333"
"AUTYWXILTACCR","cs_wg_mon_int_pilot1","3IOEN3P9S7K2IZGAKI3Y6IJ08FV163","72","0","MAY","3","JUNE","11","1","1250",,,,,"0","2019-01-21 22:08:54","579334"
"AY5OS6NZWVX22","cs_wg_mon_int_pilot1","3LWJHTCVCCNMIWT26QWH1P4L9QPFQE","31","0","DECEMBER","11","JULY","3","0","2303",,,,,"1","2019-01-21 22:08:56","579335"
"AUTYWXILTACCR","cs_wg_mon_int_pilot1","3IOEN3P9S7K2IZGAKI3Y6IJ08FV163","73","0","NOVEMBER","3","JULY","12","1","1354",,,,,"0","2019-01-21 22:08:58","579336"
"AY5OS6NZWVX22","cs_wg_mon_int_pilot1","3LWJHTCVCCNMIWT26QWH1P4L9QPFQE","32","0","OCTOBER","10","JANUARY","1","0","4749",,,,,"0","2019-01-21 22:09:04","579337"
"AUTYWXILTACCR","cs_wg_mon_int_pilot1","3IOEN3P9S7K2IZGAKI3Y6IJ08FV163","74","0","SEPTEMBER","2","FEBRUARY","10","1","5838",,,,,"0","2019-01-21 22:09:06","579338"
"AY5OS6NZWVX22","cs_wg_mon_int_pilot1","3LWJHTCVCCNMIWT26QWH1P4L9QPFQE","33","0","FEBRUARY","2","APRIL","10","1","3808",,,,,"0","2019-01-21 22:09:11","579339"
"AY5OS6NZWVX22","cs_wg_mon_int_pilot1","3LWJHTCVCCNMIWT26QWH1P4L9QPFQE","34","0","MAY","12","APRIL","10","0","1992",,,,,"0","2019-01-21 22:09:15","579340"
"AUTYWXILTACCR","cs_wg_mon_int_pilot1","3IOEN3P9S7K2IZGAKI3Y6IJ08FV163","75","0","MARCH","3","JULY","12","1","10087",,,,,"0","2019-01-21 22:09:20","579341"
"AY5OS6NZWVX22","cs_wg_mon_int_pilot1","3LWJHTCVCCNMIWT26QWH1P4L9QPFQE","35","0","DECEMBER","11","JULY","3","0","2472",,,,,"0","2019-01-21 22:09:20","579342"
"AY5OS6NZWVX22","cs_wg_mon_int_pilot1","3LWJHTCVCCNMIWT26QWH1P4L9QPFQE","36","0","APRIL","10","MAY","12","1","2718",,,,,"0","2019-01-21 22:09:26","579343"
"AUTYWXILTACCR","cs_wg_mon_int_pilot1","3IOEN3P9S7K2IZGAKI3Y6IJ08FV163","76","0","FEBRUARY","10","DECEMBER","1","0","6567",,,,,"0","2019-01-21 22:09:29","579344"
"AY5OS6NZWVX22","cs_wg_mon_int_pilot1","3LWJHTCVCCNMIWT26QWH1P4L9QPFQE","37","0","FEBRUARY","2","NOVEMBER","10","1","2937",,,,,"0","2019-01-21 22:09:31","579345"
"AUTYWXILTACCR","cs_wg_mon_int_pilot1","3IOEN3P9S7K2IZGAKI3Y6IJ08FV163","77","0","JUNE","11","NOVEMBER","3","0","1162",,,,,"0","2019-01-21 22:09:32","579346"
"AY5OS6NZWVX22","cs_wg_mon_int_pilot1","3LWJHTCVCCNMIWT26QWH1P4L9QPFQE","38","0","FEBRUARY","2","APRIL","10","1","2204",,,,,"0","2019-01-21 22:09:35","579347"
"AUTYWXILTACCR","cs_wg_mon_int_pilot1","3IOEN3P9S7K2IZGAKI3Y6IJ08FV163","78","0","DECEMBER","1","OCTOBER","3","1","1722",,,,,"0","2019-01-21 22:09:36","579348"
"AUTYWXILTACCR","cs_wg_mon_int_pilot1","3IOEN3P9S7K2IZGAKI3Y6IJ08FV163","79","0","FEBRUARY","10","SEPTEMBER","2","0","1254",,,,,"0","2019-01-21 22:09:39","579349"
"AY5OS6NZWVX22","cs_wg_mon_int_pilot1","3LWJHTCVCCNMIWT26QWH1P4L9QPFQE","39","0","JULY","3","DECEMBER","11","1","3689",,,,,"0","2019-01-21 22:09:41","579350"
"AUTYWXILTACCR","cs_wg_mon_int_pilot1","3IOEN3P9S7K2IZGAKI3Y6IJ08FV163","80","0","APRIL","10","SEPTEMBER","2","0","2717",,,,,"0","2019-01-21 22:09:44","579351"
"AY5OS6NZWVX22","cs_wg_mon_int_pilot1","3LWJHTCVCCNMIWT26QWH1P4L9QPFQE","40","0","DECEMBER","11","SEPTEMBER","3","0","4517",,,,,"0","2019-01-21 22:09:51","579352"
"AY5OS6NZWVX22","cs_wg_mon_int_pilot1","3LWJHTCVCCNMIWT26QWH1P4L9QPFQE","41","0","JANUARY","1","JUNE","3","1","4203",,,,,"0","2019-01-21 22:09:57","579353"
"AY5OS6NZWVX22","cs_wg_mon_int_pilot1","3LWJHTCVCCNMIWT26QWH1P4L9QPFQE","42","0","OCTOBER","10","DECEMBER","11","0","5481",,,,,"0","2019-01-21 22:10:05","579354"
"AUTYWXILTACCR","cs_wg_mon_int_pilot1","3IOEN3P9S7K2IZGAKI3Y6IJ08FV163","81","0","AUGUST","10","DECEMBER","1","0","20534",,,,,"0","2019-01-21 22:10:08","579355"
"AUTYWXILTACCR","cs_wg_mon_int_pilot1","3IOEN3P9S7K2IZGAKI3Y6IJ08FV163","82","0","OCTOBER","3","JUNE","11","1","1480",,,,,"0","2019-01-21 22:10:12","579356"
"AY5OS6NZWVX22","cs_wg_mon_int_pilot1","3LWJHTCVCCNMIWT26QWH1P4L9QPFQE","43","0","FEBRUARY","2","OCTOBER","10","1","6048",,,,,"0","2019-01-21 22:10:14","579357"
"AUTYWXILTACCR","cs_wg_mon_int_pilot1","3IOEN3P9S7K2IZGAKI3Y6IJ08FV163","83","0","JANUARY","10","SEPTEMBER","2","1","1609",,,,,"0","2019-01-21 22:10:16","579358"
"AY5OS6NZWVX22","cs_wg_mon_int_pilot1","3LWJHTCVCCNMIWT26QWH1P4L9QPFQE","44","0","JULY","3","FEBRUARY","2","0","4121",,,,,"0","2019-01-21 22:10:21","579359"
"AUTYWXILTACCR","cs_wg_mon_int_pilot1","3IOEN3P9S7K2IZGAKI3Y6IJ08FV163","84","0","SEPTEMBER","2","AUGUST","10","1","5781",,,,,"0","2019-01-21 22:10:24","579360"
"AY5OS6NZWVX22","cs_wg_mon_int_pilot1","3LWJHTCVCCNMIWT26QWH1P4L9QPFQE","45","0","AUGUST","3","MAY","12","1","2427",,,,,"0","2019-01-21 22:10:25","579361"
"AUTYWXILTACCR","cs_wg_mon_int_pilot1","3IOEN3P9S7K2IZGAKI3Y6IJ08FV163","85","0","AUGUST","10","JULY","12","0","1227",,,,,"0","2019-01-21 22:10:28","579362"
"AY5OS6NZWVX22","cs_wg_mon_int_pilot1","3LWJHTCVCCNMIWT26QWH1P4L9QPFQE","46","0","MAY","12","JUNE","3","0","1051",,,,,"0","2019-01-21 22:10:29","579363"
"AUTYWXILTACCR","cs_wg_mon_int_pilot1","3IOEN3P9S7K2IZGAKI3Y6IJ08FV163","86","0","APRIL","10","DECEMBER","1","0","1419",,,,,"0","2019-01-21 22:10:31","579364"
"AY5OS6NZWVX22","cs_wg_mon_int_pilot1","3LWJHTCVCCNMIWT26QWH1P4L9QPFQE","47","0","JANUARY","1","NOVEMBER","10","1","2531",,,,,"0","2019-01-21 22:10:34","579365"
"AY5OS6NZWVX22","cs_wg_mon_int_pilot1","3LWJHTCVCCNMIWT26QWH1P4L9QPFQE","48","0","NOVEMBER","10","FEBRUARY","2","0","2796",,,,,"0","2019-01-21 22:10:39","579366"
"AY5OS6NZWVX22","cs_wg_mon_int_pilot1","3LWJHTCVCCNMIWT26QWH1P4L9QPFQE","49","0","DECEMBER","11","MARCH","10","1","4034",,,,,"0","2019-01-21 22:10:45","579367"
"AUTYWXILTACCR","cs_wg_mon_int_pilot1","3IOEN3P9S7K2IZGAKI3Y6IJ08FV163","87","0","OCTOBER","3","JUNE","11","1","873",,,,,"0","2019-01-21 22:10:48","579368"
"AY5OS6NZWVX22","cs_wg_mon_int_pilot1","3LWJHTCVCCNMIWT26QWH1P4L9QPFQE","50","0","OCTOBER","10","JANUARY","1","0","2159",,,,,"0","2019-01-21 22:10:50","579369"
"AY5OS6NZWVX22","cs_wg_mon_int_pilot1","3LWJHTCVCCNMIWT26QWH1P4L9QPFQE","51","0","MAY","12","JULY","3","0","1622",,,,,"0","2019-01-21 22:10:54","579370"
"AUTYWXILTACCR","cs_wg_mon_int_pilot1","3IOEN3P9S7K2IZGAKI3Y6IJ08FV163","88","0","JUNE","11","MARCH","3","0","8364",,,,,"0","2019-01-21 22:11:00","579371"
"AY5OS6NZWVX22","cs_wg_mon_int_pilot1","3LWJHTCVCCNMIWT26QWH1P4L9QPFQE","52","0","APRIL","10","DECEMBER","11","1","4910",,,,,"0","2019-01-21 22:11:01","579372"
"AUTYWXILTACCR","cs_wg_mon_int_pilot1","3IOEN3P9S7K2IZGAKI3Y6IJ08FV163","89","0","SEPTEMBER","2","APRIL","10","1","1556",,,,,"0","2019-01-21 22:11:04","579373"
"AY5OS6NZWVX22","cs_wg_mon_int_pilot1","3LWJHTCVCCNMIWT26QWH1P4L9QPFQE","53","0","DECEMBER","11","OCTOBER","10","0","1091",,,,,"0","2019-01-21 22:11:04","579374"
"AY5OS6NZWVX22","cs_wg_mon_int_pilot1","3LWJHTCVCCNMIWT26QWH1P4L9QPFQE","54","0","MAY","12","AUGUST","3","0","991",,,,,"0","2019-01-21 22:11:07","579375"
"AUTYWXILTACCR","cs_wg_mon_int_pilot1","3IOEN3P9S7K2IZGAKI3Y6IJ08FV163","90","0","SEPTEMBER","2","MAY","3","0","2026",,,,,"0","2019-01-21 22:11:11","579376"
"AY5OS6NZWVX22","cs_wg_mon_int_pilot1","3LWJHTCVCCNMIWT26QWH1P4L9QPFQE","55","0","JULY","3","DECEMBER","11","1","4026",,,,,"0","2019-01-21 22:11:14","579377"
"AY5OS6NZWVX22","cs_wg_mon_int_pilot1","3LWJHTCVCCNMIWT26QWH1P4L9QPFQE","56","0","MAY","12","JUNE","3","0","1453",,,,,"0","2019-01-21 22:11:18","579378"
"AUTYWXILTACCR","cs_wg_mon_int_pilot1","3IOEN3P9S7K2IZGAKI3Y6IJ08FV163","91","0","JANUARY","10","DECEMBER","1","0","1769",,,,,"0","2019-01-21 22:11:18","579379"
"AY5OS6NZWVX22","cs_wg_mon_int_pilot1","3LWJHTCVCCNMIWT26QWH1P4L9QPFQE","57","0","DECEMBER","11","JUNE","3","0","1737",,,,,"0","2019-01-21 22:11:21","579380"
"AUTYWXILTACCR","cs_wg_mon_int_pilot1","3IOEN3P9S7K2IZGAKI3Y6IJ08FV163","92","0","FEBRUARY","10","SEPTEMBER","2","0","2964",,,,,"0","2019-01-21 22:11:24","579381"
"AY5OS6NZWVX22","cs_wg_mon_int_pilot1","3LWJHTCVCCNMIWT26QWH1P4L9QPFQE","58","0","FEBRUARY","2","APRIL","10","1","2657",,,,,"0","2019-01-21 22:11:27","579382"
"AUTYWXILTACCR","cs_wg_mon_int_pilot1","3IOEN3P9S7K2IZGAKI3Y6IJ08FV163","93","0","SEPTEMBER","2","NOVEMBER","3","1","3872",,,,,"0","2019-01-21 22:11:30","579383"
"AY5OS6NZWVX22","cs_wg_mon_int_pilot1","3LWJHTCVCCNMIWT26QWH1P4L9QPFQE","59","0","JANUARY","1","OCTOBER","10","1","4441",,,,,"0","2019-01-21 22:11:34","579384"
"AY5OS6NZWVX22","cs_wg_mon_int_pilot1","3LWJHTCVCCNMIWT26QWH1P4L9QPFQE","60","0","APRIL","10","JANUARY","1","0","2818",,,,,"0","2019-01-21 22:11:39","579385"
"AUTYWXILTACCR","cs_wg_mon_int_pilot1","3IOEN3P9S7K2IZGAKI3Y6IJ08FV163","94","0","JULY","12","JANUARY","10","0","9202",,,,,"0","2019-01-21 22:11:43","579386"
"AY5OS6NZWVX22","cs_wg_mon_int_pilot1","3LWJHTCVCCNMIWT26QWH1P4L9QPFQE","61","0","MAY","12","JULY","3","0","2225",,,,,"0","2019-01-21 22:11:45","579387"
"AUTYWXILTACCR","cs_wg_mon_int_pilot1","3IOEN3P9S7K2IZGAKI3Y6IJ08FV163","95","0","JULY","12","FEBRUARY","10","0","2124",,,,,"0","2019-01-21 22:11:48","579388"
"AY5OS6NZWVX22","cs_wg_mon_int_pilot1","3LWJHTCVCCNMIWT26QWH1P4L9QPFQE","62","0","AUGUST","3","DECEMBER","11","1","5780",,,,,"0","2019-01-21 22:11:53","579389"
"AUTYWXILTACCR","cs_wg_mon_int_pilot1","3IOEN3P9S7K2IZGAKI3Y6IJ08FV163","96","0","FEBRUARY","10","JUNE","11","1","2995",,,,,"0","2019-01-21 22:11:54","579390"
"AY5OS6NZWVX22","cs_wg_mon_int_pilot1","3LWJHTCVCCNMIWT26QWH1P4L9QPFQE","63","0","MAY","12","JULY","3","0","1976",,,,,"0","2019-01-21 22:11:57","579391"
"AUTYWXILTACCR","cs_wg_mon_int_pilot1","3IOEN3P9S7K2IZGAKI3Y6IJ08FV163","97","0","OCTOBER","3","JULY","12","1","1802",,,,,"0","2019-01-21 22:11:57","579392"
"AY5OS6NZWVX22","cs_wg_mon_int_pilot1","3LWJHTCVCCNMIWT26QWH1P4L9QPFQE","64","0","JUNE","3","JANUARY","1","0","2018",,,,,"0","2019-01-21 22:12:01","579393"
"AY5OS6NZWVX22","cs_wg_mon_int_pilot1","3LWJHTCVCCNMIWT26QWH1P4L9QPFQE","65","0","MAY","12","NOVEMBER","10","1","3301",,,,,"0","2019-01-21 22:12:08","579394"
"AY5OS6NZWVX22","cs_wg_mon_int_pilot1","3LWJHTCVCCNMIWT26QWH1P4L9QPFQE","66","0","MAY","12","JUNE","3","0","772",,,,,"0","2019-01-21 22:12:11","579395"
"AY5OS6NZWVX22","cs_wg_mon_int_pilot1","3LWJHTCVCCNMIWT26QWH1P4L9QPFQE","67","0","AUGUST","3","MAY","12","1","1475",,,,,"0","2019-01-21 22:12:14","579396"
"AUTYWXILTACCR","cs_wg_mon_int_pilot1","3IOEN3P9S7K2IZGAKI3Y6IJ08FV163","98","0","JULY","12","NOVEMBER","3","0","15053",,,,,"0","2019-01-21 22:12:16","579397"
"AY5OS6NZWVX22","cs_wg_mon_int_pilot1","3LWJHTCVCCNMIWT26QWH1P4L9QPFQE","68","0","DECEMBER","11","APRIL","10","0","2436",,,,,"0","2019-01-21 22:12:19","579398"
"AY5OS6NZWVX22","cs_wg_mon_int_pilot1","3LWJHTCVCCNMIWT26QWH1P4L9QPFQE","69","0","FEBRUARY","2","NOVEMBER","10","1","2426",,,,,"0","2019-01-21 22:12:23","579399"
"AY5OS6NZWVX22","cs_wg_mon_int_pilot1","3LWJHTCVCCNMIWT26QWH1P4L9QPFQE","70","0","JUNE","3","MAY","12","1","1968",,,,,"0","2019-01-21 22:12:27","579400"
"AY5OS6NZWVX22","cs_wg_mon_int_pilot1","3LWJHTCVCCNMIWT26QWH1P4L9QPFQE","71","0","NOVEMBER","10","JANUARY","1","0","1272",,,,,"0","2019-01-21 22:12:30","579401"
"AY5OS6NZWVX22","cs_wg_mon_int_pilot1","3LWJHTCVCCNMIWT26QWH1P4L9QPFQE","72","0","JUNE","3","DECEMBER","11","1","2709",,,,,"0","2019-01-21 22:12:35","579402"
"AUTYWXILTACCR","cs_wg_mon_int_pilot1","3IOEN3P9S7K2IZGAKI3Y6IJ08FV163","99","0","MAY","3","DECEMBER","1","0","16943",,,,,"0","2019-01-21 22:12:37","579403"
"AY5OS6NZWVX22","cs_wg_mon_int_pilot1","3LWJHTCVCCNMIWT26QWH1P4L9QPFQE","73","0","MAY","12","AUGUST","3","0","900",,,,,"0","2019-01-21 22:12:38","579404"
"AY5OS6NZWVX22","cs_wg_mon_int_pilot1","3LWJHTCVCCNMIWT26QWH1P4L9QPFQE","74","0","MARCH","10","FEBRUARY","2","0","1619",,,,,"0","2019-01-21 22:12:41","579405"
"AY5OS6NZWVX22","cs_wg_mon_int_pilot1","3LWJHTCVCCNMIWT26QWH1P4L9QPFQE","75","0","MAY","12","SEPTEMBER","3","0","1148",,,,,"0","2019-01-21 22:12:44","579406"
"AUTYWXILTACCR","cs_wg_mon_int_pilot1","3IOEN3P9S7K2IZGAKI3Y6IJ08FV163","100","0","DECEMBER","1","APRIL","10","1","6674",,,,,"0","2019-01-21 22:12:46","579407"
"AY5OS6NZWVX22","cs_wg_mon_int_pilot1","3LWJHTCVCCNMIWT26QWH1P4L9QPFQE","76","0","SEPTEMBER","3","DECEMBER","11","1","2361",,,,,"0","2019-01-21 22:12:49","579408"
"AY5OS6NZWVX22","cs_wg_mon_int_pilot1","3LWJHTCVCCNMIWT26QWH1P4L9QPFQE","77","0","AUGUST","3","FEBRUARY","2","0","2315",,,,,"0","2019-01-21 22:12:53","579409"
"AY5OS6NZWVX22","cs_wg_mon_int_pilot1","3LWJHTCVCCNMIWT26QWH1P4L9QPFQE","78","0","JANUARY","1","SEPTEMBER","3","1","3036",,,,,"0","2019-01-21 22:12:58","579410"
"AUTYWXILTACCR","cs_wg_mon_int_pilot1","3IOEN3P9S7K2IZGAKI3Y6IJ08FV163","101","0","JUNE","11","JANUARY","10","0","10878",,,,,"0","2019-01-21 22:12:59","579411"
"AUTYWXILTACCR","cs_wg_mon_int_pilot1","3IOEN3P9S7K2IZGAKI3Y6IJ08FV163","102","0","SEPTEMBER","2","APRIL","10","1","1667",,,,,"0","2019-01-21 22:13:03","579412"
"AY5OS6NZWVX22","cs_wg_mon_int_pilot1","3LWJHTCVCCNMIWT26QWH1P4L9QPFQE","79","0","NOVEMBER","10","JANUARY","1","0","4559",,,,,"0","2019-01-21 22:13:04","579413"
"AUTYWXILTACCR","cs_wg_mon_int_pilot1","3IOEN3P9S7K2IZGAKI3Y6IJ08FV163","103","0","MARCH","3","DECEMBER","1","0","2163",,,,,"0","2019-01-21 22:13:07","579414"
"AY5OS6NZWVX22","cs_wg_mon_int_pilot1","3LWJHTCVCCNMIWT26QWH1P4L9QPFQE","80","0","JULY","3","DECEMBER","11","1","2706",,,,,"0","2019-01-21 22:13:09","579415"
"AUTYWXILTACCR","cs_wg_mon_int_pilot1","3IOEN3P9S7K2IZGAKI3Y6IJ08FV163","104","0","SEPTEMBER","2","JANUARY","10","1","2611",,,,,"0","2019-01-21 22:13:12","579416"
"AUTYWXILTACCR","cs_wg_mon_int_pilot1","3IOEN3P9S7K2IZGAKI3Y6IJ08FV163","105","0","JULY","12","OCTOBER","3","0","1011",,,,,"0","2019-01-21 22:13:15","579417"
"AY5OS6NZWVX22","cs_wg_mon_int_pilot1","3LWJHTCVCCNMIWT26QWH1P4L9QPFQE","81","0","FEBRUARY","2","JULY","3","1","5228",,,,,"0","2019-01-21 22:13:17","579418"
"AUTYWXILTACCR","cs_wg_mon_int_pilot1","3IOEN3P9S7K2IZGAKI3Y6IJ08FV163","106","0","JUNE","11","MARCH","3","0","733",,,,,"0","2019-01-21 22:13:17","579419"
"AY5OS6NZWVX22","cs_wg_mon_int_pilot1","3LWJHTCVCCNMIWT26QWH1P4L9QPFQE","82","0","SEPTEMBER","3","DECEMBER","11","1","1843",,,,,"0","2019-01-21 22:13:21","579420"
"AUTYWXILTACCR","cs_wg_mon_int_pilot1","3IOEN3P9S7K2IZGAKI3Y6IJ08FV163","107","0","NOVEMBER","3","JUNE","11","1","2190",,,,,"0","2019-01-21 22:13:22","579421"
"AUTYWXILTACCR","cs_wg_mon_int_pilot1","3IOEN3P9S7K2IZGAKI3Y6IJ08FV163","108","0","OCTOBER","3","JULY","12","1","624",,,,,"0","2019-01-21 22:13:24","579422"
"AUTYWXILTACCR","cs_wg_mon_int_pilot1","3IOEN3P9S7K2IZGAKI3Y6IJ08FV163","109","0","DECEMBER","1","NOVEMBER","3","0","1064",,,,,"0","2019-01-21 22:13:27","579423"
"AY5OS6NZWVX22","cs_wg_mon_int_pilot1","3LWJHTCVCCNMIWT26QWH1P4L9QPFQE","83","0","SEPTEMBER","3","JANUARY","1","0","3182",,,,,"0","2019-01-21 22:13:30","579424"
"AUTYWXILTACCR","cs_wg_mon_int_pilot1","3IOEN3P9S7K2IZGAKI3Y6IJ08FV163","110","0","SEPTEMBER","2","AUGUST","10","1","780",,,,,"0","2019-01-21 22:13:30","579425"
"AUTYWXILTACCR","cs_wg_mon_int_pilot1","3IOEN3P9S7K2IZGAKI3Y6IJ08FV163","111","0","AUGUST","10","SEPTEMBER","2","0","749",,,,,"0","2019-01-21 22:13:33","579426"
"AY5OS6NZWVX22","cs_wg_mon_int_pilot1","3LWJHTCVCCNMIWT26QWH1P4L9QPFQE","84","0","DECEMBER","11","AUGUST","3","0","2672",,,,,"0","2019-01-21 22:13:34","579427"
"AUTYWXILTACCR","cs_wg_mon_int_pilot1","3IOEN3P9S7K2IZGAKI3Y6IJ08FV163","112","0","DECEMBER","1","AUGUST","10","1","1064",,,,,"0","2019-01-21 22:13:36","579428"
"AUTYWXILTACCR","cs_wg_mon_int_pilot1","3IOEN3P9S7K2IZGAKI3Y6IJ08FV163","113","0","JULY","12","OCTOBER","3","0","748",,,,,"0","2019-01-21 22:13:38","579429"
"AY5OS6NZWVX22","cs_wg_mon_int_pilot1","3LWJHTCVCCNMIWT26QWH1P4L9QPFQE","85","0","JANUARY","1","APRIL","10","1","1975",,,,,"0","2019-01-21 22:13:39","579430"
"AUTYWXILTACCR","cs_wg_mon_int_pilot1","3IOEN3P9S7K2IZGAKI3Y6IJ08FV163","114","0","FEBRUARY","10","JULY","12","1","646",,,,,"0","2019-01-21 22:13:41","579431"
"AY5OS6NZWVX22","cs_wg_mon_int_pilot1","3LWJHTCVCCNMIWT26QWH1P4L9QPFQE","86","0","FEBRUARY","2","MARCH","10","1","1451",,,,,"0","2019-01-21 22:13:43","579432"
"AUTYWXILTACCR","cs_wg_mon_int_pilot1","3IOEN3P9S7K2IZGAKI3Y6IJ08FV163","115","0","JULY","12","OCTOBER","3","1","687",,,,,"0","2019-01-21 22:13:44","579433"
"AY5OS6NZWVX22","cs_wg_mon_int_pilot1","3LWJHTCVCCNMIWT26QWH1P4L9QPFQE","87","0","APRIL","10","FEBRUARY","2","0","1730",,,,,"0","2019-01-21 22:13:46","579434"
"AUTYWXILTACCR","cs_wg_mon_int_pilot1","3IOEN3P9S7K2IZGAKI3Y6IJ08FV163","116","0","JANUARY","10","JUNE","11","1","1742",,,,,"0","2019-01-21 22:13:47","579435"
"AY5OS6NZWVX22","cs_wg_mon_int_pilot1","3LWJHTCVCCNMIWT26QWH1P4L9QPFQE","88","0","FEBRUARY","2","OCTOBER","10","1","1986",,,,,"0","2019-01-21 22:13:50","579436"
"AUTYWXILTACCR","cs_wg_mon_int_pilot1","3IOEN3P9S7K2IZGAKI3Y6IJ08FV163","117","0","SEPTEMBER","2","AUGUST","10","1","2377",,,,,"0","2019-01-21 22:13:52","579437"
"AY5OS6NZWVX22","cs_wg_mon_int_pilot1","3LWJHTCVCCNMIWT26QWH1P4L9QPFQE","89","0","DECEMBER","11","JULY","3","0","1647",,,,,"0","2019-01-21 22:13:53","579438"
"AY5OS6NZWVX22","cs_wg_mon_int_pilot1","3LWJHTCVCCNMIWT26QWH1P4L9QPFQE","90","0","AUGUST","3","MAY","12","1","1845",,,,,"0","2019-01-21 22:13:58","579439"
"AUTYWXILTACCR","cs_wg_mon_int_pilot1","3IOEN3P9S7K2IZGAKI3Y6IJ08FV163","118","0","JUNE","11","AUGUST","10","0","3462",,,,,"0","2019-01-21 22:13:59","579440"
"AY5OS6NZWVX22","cs_wg_mon_int_pilot1","3LWJHTCVCCNMIWT26QWH1P4L9QPFQE","91","0","JANUARY","1","APRIL","10","1","2652",,,,,"0","2019-01-21 22:14:02","579441"
"AY5OS6NZWVX22","cs_wg_mon_int_pilot1","3LWJHTCVCCNMIWT26QWH1P4L9QPFQE","92","0","DECEMBER","11","SEPTEMBER","3","0","4188",,,,,"0","2019-01-21 22:14:08","579442"
"AY5OS6NZWVX22","cs_wg_mon_int_pilot1","3LWJHTCVCCNMIWT26QWH1P4L9QPFQE","93","0","SEPTEMBER","3","DECEMBER","11","1","1572",,,,,"0","2019-01-21 22:14:12","579443"
"AY5OS6NZWVX22","cs_wg_mon_int_pilot1","3LWJHTCVCCNMIWT26QWH1P4L9QPFQE","94","0","MARCH","10","JANUARY","1","0","2218",,,,,"0","2019-01-21 22:14:16","579444"
"AUTYWXILTACCR","cs_wg_mon_int_pilot1","3IOEN3P9S7K2IZGAKI3Y6IJ08FV163","119","0","JANUARY","10","JULY","12","1","17164",,,,,"0","2019-01-21 22:14:18","579445"
"AY5OS6NZWVX22","cs_wg_mon_int_pilot1","3LWJHTCVCCNMIWT26QWH1P4L9QPFQE","95","0","JANUARY","1","JULY","3","1","2078",,,,,"0","2019-01-21 22:14:20","579446"
"AY5OS6NZWVX22","cs_wg_mon_int_pilot1","3LWJHTCVCCNMIWT26QWH1P4L9QPFQE","96","0","MAY","12","AUGUST","3","0","2554",,,,,"0","2019-01-21 22:14:25","579447"
"AY5OS6NZWVX22","cs_wg_mon_int_pilot1","3LWJHTCVCCNMIWT26QWH1P4L9QPFQE","97","0","FEBRUARY","2","MARCH","10","1","2023",,,,,"0","2019-01-21 22:14:31","579448"
"AY5OS6NZWVX22","cs_wg_mon_int_pilot1","3LWJHTCVCCNMIWT26QWH1P4L9QPFQE","98","0","DECEMBER","11","AUGUST","3","0","3118",,,,,"0","2019-01-21 22:14:36","579449"
"AY5OS6NZWVX22","cs_wg_mon_int_pilot1","3LWJHTCVCCNMIWT26QWH1P4L9QPFQE","99","0","MARCH","10","DECEMBER","11","1","2535",,,,,"0","2019-01-21 22:14:40","579450"
"AY5OS6NZWVX22","cs_wg_mon_int_pilot1","3LWJHTCVCCNMIWT26QWH1P4L9QPFQE","100","0","JULY","3","MAY","12","1","1672",,,,,"0","2019-01-21 22:14:45","579451"
"AY5OS6NZWVX22","cs_wg_mon_int_pilot1","3LWJHTCVCCNMIWT26QWH1P4L9QPFQE","101","0","DECEMBER","11","JUNE","3","0","3815",,,,,"0","2019-01-21 22:14:51","579452"
"AUTYWXILTACCR","cs_wg_mon_int_pilot1","3IOEN3P9S7K2IZGAKI3Y6IJ08FV163","120","0","JANUARY","10","SEPTEMBER","2","0","32941",,,,,"0","2019-01-21 22:14:55","579453"
"AY5OS6NZWVX22","cs_wg_mon_int_pilot1","3LWJHTCVCCNMIWT26QWH1P4L9QPFQE","102","0","JUNE","3","MAY","12","1","1839",,,,,"0","2019-01-21 22:14:56","579454"
"AY5OS6NZWVX22","cs_wg_mon_int_pilot1","3LWJHTCVCCNMIWT26QWH1P4L9QPFQE","103","0","JUNE","3","DECEMBER","11","1","1294",,,,,"0","2019-01-21 22:14:59","579455"
"AUTYWXILTACCR","cs_wg_mon_int_pilot1","3IOEN3P9S7K2IZGAKI3Y6IJ08FV163","121","0","JUNE","11","OCTOBER","3","0","1128",,,,,"0","2019-01-21 22:15:00","579456"
"AY5OS6NZWVX22","cs_wg_mon_int_pilot1","3LWJHTCVCCNMIWT26QWH1P4L9QPFQE","104","0","OCTOBER","10","MAY","12","1","1413",,,,,"0","2019-01-21 22:15:03","579457"
"AUTYWXILTACCR","cs_wg_mon_int_pilot1","3IOEN3P9S7K2IZGAKI3Y6IJ08FV163","122","0","MARCH","3","SEPTEMBER","2","1","2113",,,,,"0","2019-01-21 22:15:06","579458"
"AY5OS6NZWVX22","cs_wg_mon_int_pilot1","3LWJHTCVCCNMIWT26QWH1P4L9QPFQE","105","0","DECEMBER","11","AUGUST","3","0","1684",,,,,"0","2019-01-21 22:15:07","579459"
"AY5OS6NZWVX22","cs_wg_mon_int_pilot1","3LWJHTCVCCNMIWT26QWH1P4L9QPFQE","106","0","MAY","12","SEPTEMBER","3","0","1346",,,,,"0","2019-01-21 22:15:10","579460"
"AY5OS6NZWVX22","cs_wg_mon_int_pilot1","3LWJHTCVCCNMIWT26QWH1P4L9QPFQE","107","0","SEPTEMBER","3","FEBRUARY","2","0","1751",,,,,"0","2019-01-21 22:15:14","579461"
"AUTYWXILTACCR","cs_wg_mon_int_pilot1","3IOEN3P9S7K2IZGAKI3Y6IJ08FV163","123","0","JUNE","11","MAY","3","0","6890",,,,,"0","2019-01-21 22:15:15","579462"
"AY5OS6NZWVX22","cs_wg_mon_int_pilot1","3LWJHTCVCCNMIWT26QWH1P4L9QPFQE","108","0","NOVEMBER","10","JANUARY","1","0","1514",,,,,"0","2019-01-21 22:15:17","579463"
"AY5OS6NZWVX22","cs_wg_mon_int_pilot1","3LWJHTCVCCNMIWT26QWH1P4L9QPFQE","109","0","NOVEMBER","10","FEBRUARY","2","0","1406",,,,,"0","2019-01-21 22:15:20","579464"
"AY5OS6NZWVX22","cs_wg_mon_int_pilot1","3LWJHTCVCCNMIWT26QWH1P4L9QPFQE","110","0","MARCH","10","MAY","12","1","1719",,,,,"0","2019-01-21 22:15:26","579465"
"AY5OS6NZWVX22","cs_wg_mon_int_pilot1","3LWJHTCVCCNMIWT26QWH1P4L9QPFQE","111","0","SEPTEMBER","3","MAY","12","1","2600",,,,,"0","2019-01-21 22:15:31","579466"
"AUTYWXILTACCR","cs_wg_mon_int_pilot1","3IOEN3P9S7K2IZGAKI3Y6IJ08FV163","124","0","FEBRUARY","10","DECEMBER","1","0","11951",,,,,"0","2019-01-21 22:15:31","579467"
"AY5OS6NZWVX22","cs_wg_mon_int_pilot1","3LWJHTCVCCNMIWT26QWH1P4L9QPFQE","112","0","SEPTEMBER","3","MAY","12","1","1127",,,,,"0","2019-01-21 22:15:33","579468"
"AY5OS6NZWVX22","cs_wg_mon_int_pilot1","3LWJHTCVCCNMIWT26QWH1P4L9QPFQE","113","0","JANUARY","1","NOVEMBER","10","1","1775",,,,,"0","2019-01-21 22:15:37","579469"
"AY5OS6NZWVX22","cs_wg_mon_int_pilot1","3LWJHTCVCCNMIWT26QWH1P4L9QPFQE","114","0","JANUARY","1","MARCH","10","1","2007",,,,,"0","2019-01-21 22:15:41","579470"
"AY5OS6NZWVX22","cs_wg_mon_int_pilot1","3LWJHTCVCCNMIWT26QWH1P4L9QPFQE","115","0","JULY","3","MAY","12","1","1612",,,,,"0","2019-01-21 22:15:45","579471"
"AUTYWXILTACCR","cs_wg_mon_int_pilot1","3IOEN3P9S7K2IZGAKI3Y6IJ08FV163","125","0","APRIL","10","DECEMBER","1","0","9087",,,,,"0","2019-01-21 22:15:45","579472"
"AY5OS6NZWVX22","cs_wg_mon_int_pilot1","3LWJHTCVCCNMIWT26QWH1P4L9QPFQE","116","0","JULY","3","MAY","12","1","1927",,,,,"0","2019-01-21 22:15:49","579473"
"AY5OS6NZWVX22","cs_wg_mon_int_pilot1","3LWJHTCVCCNMIWT26QWH1P4L9QPFQE","117","0","FEBRUARY","2","JUNE","3","1","3272",,,,,"0","2019-01-21 22:15:56","579474"
"AY5OS6NZWVX22","cs_wg_mon_int_pilot1","3LWJHTCVCCNMIWT26QWH1P4L9QPFQE","118","0","OCTOBER","10","FEBRUARY","2","0","1795",,,,,"0","2019-01-21 22:16:00","579475"
"AY5OS6NZWVX22","cs_wg_mon_int_pilot1","3LWJHTCVCCNMIWT26QWH1P4L9QPFQE","119","0","JUNE","3","DECEMBER","11","1","2316",,,,,"0","2019-01-21 22:16:04","579476"
"AUTYWXILTACCR","cs_wg_mon_int_pilot1","3IOEN3P9S7K2IZGAKI3Y6IJ08FV163","126","0","MARCH","3","JULY","12","1","17990",,,,,"0","2019-01-21 22:16:06","579477"
"AY5OS6NZWVX22","cs_wg_mon_int_pilot1","3LWJHTCVCCNMIWT26QWH1P4L9QPFQE","120","0","JANUARY","1","APRIL","10","1","2677",,,,,"0","2019-01-21 22:16:09","579478"
"AUTYWXILTACCR","cs_wg_mon_int_pilot1","3IOEN3P9S7K2IZGAKI3Y6IJ08FV163","127","0","APRIL","10","DECEMBER","1","0","1146",,,,,"0","2019-01-21 22:16:09","579479"
"AY5OS6NZWVX22","cs_wg_mon_int_pilot1","3LWJHTCVCCNMIWT26QWH1P4L9QPFQE","121","0","JUNE","3","MAY","12","1","2316",,,,,"0","2019-01-21 22:16:14","579480"
"AY5OS6NZWVX22","cs_wg_mon_int_pilot1","3LWJHTCVCCNMIWT26QWH1P4L9QPFQE","122","0","FEBRUARY","2","SEPTEMBER","3","1","3229",,,,,"0","2019-01-21 22:16:20","579481"
"AY5OS6NZWVX22","cs_wg_mon_int_pilot1","3LWJHTCVCCNMIWT26QWH1P4L9QPFQE","123","0","MARCH","10","JANUARY","1","0","2378",,,,,"0","2019-01-21 22:16:24","579482"
"AY5OS6NZWVX22","cs_wg_mon_int_pilot1","3LWJHTCVCCNMIWT26QWH1P4L9QPFQE","124","0","FEBRUARY","2","NOVEMBER","10","1","2279",,,,,"0","2019-01-21 22:16:29","579483"
"AY5OS6NZWVX22","cs_wg_mon_int_pilot1","3LWJHTCVCCNMIWT26QWH1P4L9QPFQE","125","0","JULY","3","JANUARY","1","0","1734",,,,,"0","2019-01-21 22:16:33","579484"
"AY5OS6NZWVX22","cs_wg_mon_int_pilot1","3LWJHTCVCCNMIWT26QWH1P4L9QPFQE","126","0","OCTOBER","10","FEBRUARY","2","0","2281",,,,,"0","2019-01-21 22:16:38","579485"
"AY5OS6NZWVX22","cs_wg_mon_int_pilot1","3LWJHTCVCCNMIWT26QWH1P4L9QPFQE","127","0","APRIL","10","JANUARY","1","0","4203",,,,,"0","2019-01-21 22:16:45","579486"
"A3T1AU8XOEZZXY","cs_wg_mon_int_pilot1","3FFJ6VRIL1PI4UQTQ08NPGQVCE6I0X","0","0","MARCH","12","AUGUST","3","0","11595",,,,,"1","2019-01-21 22:33:32","579487"
"A3T1AU8XOEZZXY","cs_wg_mon_int_pilot1","3FFJ6VRIL1PI4UQTQ08NPGQVCE6I0X","1","0","JUNE","3","MARCH","12","1","8555",,,,,"1","2019-01-21 22:33:43","579488"
"A3T1AU8XOEZZXY","cs_wg_mon_int_pilot1","3FFJ6VRIL1PI4UQTQ08NPGQVCE6I0X","2","0","APRIL","2","JANUARY","10","1","4502",,,,,"1","2019-01-21 22:33:51","579489"
"A3T1AU8XOEZZXY","cs_wg_mon_int_pilot1","3FFJ6VRIL1PI4UQTQ08NPGQVCE6I0X","3","0","MAY","1","NOVEMBER","10","1","3432",,,,,"1","2019-01-21 22:34:00","579490"
"A3T1AU8XOEZZXY","cs_wg_mon_int_pilot1","3FFJ6VRIL1PI4UQTQ08NPGQVCE6I0X","4","0","MAY","1","NOVEMBER","10","1","5063",,,,,"0","2019-01-21 22:34:10","579491"
"A3T1AU8XOEZZXY","cs_wg_mon_int_pilot1","3FFJ6VRIL1PI4UQTQ08NPGQVCE6I0X","5","0","SEPTEMBER","11","NOVEMBER","10","1","3687",,,,,"0","2019-01-21 22:34:18","579492"
"A3T1AU8XOEZZXY","cs_wg_mon_int_pilot1","3FFJ6VRIL1PI4UQTQ08NPGQVCE6I0X","6","0","JANUARY","10","MAY","1","0","18329",,,,,"1","2019-01-21 22:34:40","579493"
"A3T1AU8XOEZZXY","cs_wg_mon_int_pilot1","3FFJ6VRIL1PI4UQTQ08NPGQVCE6I0X","7","0","JULY","10","APRIL","2","0","26597",,,,,"1","2019-01-21 22:35:09","579494"
"A3T1AU8XOEZZXY","cs_wg_mon_int_pilot1","3FFJ6VRIL1PI4UQTQ08NPGQVCE6I0X","8","0","SEPTEMBER","11","OCTOBER","3","0","16054",,,,,"0","2019-01-21 22:35:29","579495"
"A3T1AU8XOEZZXY","cs_wg_mon_int_pilot1","3FFJ6VRIL1PI4UQTQ08NPGQVCE6I0X","9","0","SEPTEMBER","11","JUNE","3","0","14044",,,,,"1","2019-01-21 22:35:50","579496"
"A3T1AU8XOEZZXY","cs_wg_mon_int_pilot1","3FFJ6VRIL1PI4UQTQ08NPGQVCE6I0X","10","0","APRIL","2","JULY","10","1","10224",,,,,"1","2019-01-21 22:36:51","579497"
"A3T1AU8XOEZZXY","cs_wg_mon_int_pilot1","3FFJ6VRIL1PI4UQTQ08NPGQVCE6I0X","11","0","FEBRUARY","3","SEPTEMBER","11","1","3350",,,,,"0","2019-01-21 22:37:06","579498"
"A3T1AU8XOEZZXY","cs_wg_mon_int_pilot1","3FFJ6VRIL1PI4UQTQ08NPGQVCE6I0X","12","0","JULY","10","MAY","1","0","12110",,,,,"0","2019-01-21 22:37:22","579499"
"A3T1AU8XOEZZXY","cs_wg_mon_int_pilot1","3FFJ6VRIL1PI4UQTQ08NPGQVCE6I0X","13","0","JANUARY","10","APRIL","2","0","2519",,,,,"0","2019-01-21 22:37:27","579500"
"A3T1AU8XOEZZXY","cs_wg_mon_int_pilot1","3FFJ6VRIL1PI4UQTQ08NPGQVCE6I0X","14","0","JULY","10","MAY","1","0","1601",,,,,"0","2019-01-21 22:37:31","579501"
"A3T1AU8XOEZZXY","cs_wg_mon_int_pilot1","3FFJ6VRIL1PI4UQTQ08NPGQVCE6I0X","15","0","JANUARY","10","APRIL","2","0","1376",,,,,"0","2019-01-21 22:37:34","579502"
"A3T1AU8XOEZZXY","cs_wg_mon_int_pilot1","3FFJ6VRIL1PI4UQTQ08NPGQVCE6I0X","16","0","JANUARY","10","MAY","1","0","986",,,,,"0","2019-01-21 22:37:37","579503"
"A3T1AU8XOEZZXY","cs_wg_mon_int_pilot1","3FFJ6VRIL1PI4UQTQ08NPGQVCE6I0X","17","0","MAY","1","DECEMBER","10","1","4989",,,,,"0","2019-01-21 22:37:46","579504"
"A3T1AU8XOEZZXY","cs_wg_mon_int_pilot1","3FFJ6VRIL1PI4UQTQ08NPGQVCE6I0X","18","0","MAY","1","DECEMBER","10","1","1829",,,,,"0","2019-01-21 22:37:50","579505"
"A3T1AU8XOEZZXY","cs_wg_mon_int_pilot1","3FFJ6VRIL1PI4UQTQ08NPGQVCE6I0X","19","0","DECEMBER","10","MAY","1","0","2516",,,,,"0","2019-01-21 22:37:55","579506"
"A3T1AU8XOEZZXY","cs_wg_mon_int_pilot1","3FFJ6VRIL1PI4UQTQ08NPGQVCE6I0X","20","0","OCTOBER","3","APRIL","2","0","1725",,,,,"0","2019-01-21 22:38:00","579507"
"A3T1AU8XOEZZXY","cs_wg_mon_int_pilot1","3FFJ6VRIL1PI4UQTQ08NPGQVCE6I0X","21","0","SEPTEMBER","11","OCTOBER","3","0","1574",,,,,"0","2019-01-21 22:38:03","579508"
"A3T1AU8XOEZZXY","cs_wg_mon_int_pilot1","3FFJ6VRIL1PI4UQTQ08NPGQVCE6I0X","22","0","FEBRUARY","3","MARCH","12","0","4177",,,,,"0","2019-01-21 22:38:10","579509"
"A3T1AU8XOEZZXY","cs_wg_mon_int_pilot1","3FFJ6VRIL1PI4UQTQ08NPGQVCE6I0X","23","0","JUNE","3","SEPTEMBER","11","1","2546",,,,,"0","2019-01-21 22:38:14","579510"
"A3T1AU8XOEZZXY","cs_wg_mon_int_pilot1","3FFJ6VRIL1PI4UQTQ08NPGQVCE6I0X","24","0","DECEMBER","10","MAY","1","0","5304",,,,,"0","2019-01-21 22:38:22","579511"
"A3T1AU8XOEZZXY","cs_wg_mon_int_pilot1","3FFJ6VRIL1PI4UQTQ08NPGQVCE6I0X","25","0","MAY","1","OCTOBER","3","1","2703",,,,,"0","2019-01-21 22:38:28","579512"
"A3T1AU8XOEZZXY","cs_wg_mon_int_pilot1","3FFJ6VRIL1PI4UQTQ08NPGQVCE6I0X","26","0","JUNE","3","SEPTEMBER","11","1","1289",,,,,"0","2019-01-21 22:38:31","579513"
"A3T1AU8XOEZZXY","cs_wg_mon_int_pilot1","3FFJ6VRIL1PI4UQTQ08NPGQVCE6I0X","27","0","JUNE","3","MAY","1","0","3422",,,,,"0","2019-01-21 22:38:37","579514"
"A3T1AU8XOEZZXY","cs_wg_mon_int_pilot1","3FFJ6VRIL1PI4UQTQ08NPGQVCE6I0X","28","0","MARCH","12","DECEMBER","10","1","2755",,,,,"0","2019-01-21 22:38:49","579515"
"A3T1AU8XOEZZXY","cs_wg_mon_int_pilot1","3FFJ6VRIL1PI4UQTQ08NPGQVCE6I0X","29","0","OCTOBER","3","SEPTEMBER","11","1","3584",,,,,"0","2019-01-21 22:38:54","579516"
"A3T1AU8XOEZZXY","cs_wg_mon_int_pilot1","3FFJ6VRIL1PI4UQTQ08NPGQVCE6I0X","30","0","MARCH","12","AUGUST","3","0","3983",,,,,"0","2019-01-21 22:39:01","579517"
"A3T1AU8XOEZZXY","cs_wg_mon_int_pilot1","3FFJ6VRIL1PI4UQTQ08NPGQVCE6I0X","31","0","SEPTEMBER","11","JUNE","3","0","1899",,,,,"0","2019-01-21 22:39:05","579518"
"A3T1AU8XOEZZXY","cs_wg_mon_int_pilot1","3FFJ6VRIL1PI4UQTQ08NPGQVCE6I0X","32","0","FEBRUARY","3","SEPTEMBER","11","1","4826",,,,,"0","2019-01-21 22:39:12","579519"
"A3T1AU8XOEZZXY","cs_wg_mon_int_pilot1","3FFJ6VRIL1PI4UQTQ08NPGQVCE6I0X","33","0","APRIL","2","DECEMBER","10","1","2430",,,,,"0","2019-01-21 22:39:16","579520"
"A3T1AU8XOEZZXY","cs_wg_mon_int_pilot1","3FFJ6VRIL1PI4UQTQ08NPGQVCE6I0X","34","0","NOVEMBER","10","MAY","1","0","2604",,,,,"0","2019-01-21 22:39:21","579521"
"A3T1AU8XOEZZXY","cs_wg_mon_int_pilot1","3FFJ6VRIL1PI4UQTQ08NPGQVCE6I0X","35","0","MARCH","12","FEBRUARY","3","0","2538",,,,,"0","2019-01-21 22:39:25","579522"
"A3T1AU8XOEZZXY","cs_wg_mon_int_pilot1","3FFJ6VRIL1PI4UQTQ08NPGQVCE6I0X","36","0","MARCH","12","OCTOBER","3","0","1208",,,,,"0","2019-01-21 22:39:28","579523"
"A3T1AU8XOEZZXY","cs_wg_mon_int_pilot1","3FFJ6VRIL1PI4UQTQ08NPGQVCE6I0X","37","0","APRIL","2","OCTOBER","3","1","6304",,,,,"0","2019-01-21 22:39:38","579524"
"A3T1AU8XOEZZXY","cs_wg_mon_int_pilot1","3FFJ6VRIL1PI4UQTQ08NPGQVCE6I0X","38","0","JUNE","3","MARCH","12","1","3564",,,,,"0","2019-01-21 22:39:43","579525"
"A3T1AU8XOEZZXY","cs_wg_mon_int_pilot1","3FFJ6VRIL1PI4UQTQ08NPGQVCE6I0X","39","0","MARCH","12","FEBRUARY","3","0","1622",,,,,"0","2019-01-21 22:39:47","579526"
"A3T1AU8XOEZZXY","cs_wg_mon_int_pilot1","3FFJ6VRIL1PI4UQTQ08NPGQVCE6I0X","40","0","JANUARY","10","MARCH","12","1","5126",,,,,"0","2019-01-21 22:39:56","579527"
"A3T1AU8XOEZZXY","cs_wg_mon_int_pilot1","3FFJ6VRIL1PI4UQTQ08NPGQVCE6I0X","41","0","JANUARY","10","APRIL","2","0","2100",,,,,"0","2019-01-21 22:39:59","579528"
"A3T1AU8XOEZZXY","cs_wg_mon_int_pilot1","3FFJ6VRIL1PI4UQTQ08NPGQVCE6I0X","42","0","MARCH","12","JUNE","3","0","1457",,,,,"0","2019-01-21 22:40:03","579529"
"A3T1AU8XOEZZXY","cs_wg_mon_int_pilot1","3FFJ6VRIL1PI4UQTQ08NPGQVCE6I0X","43","0","MARCH","12","JANUARY","10","0","2145",,,,,"0","2019-01-21 22:40:07","579530"
"A3T1AU8XOEZZXY","cs_wg_mon_int_pilot1","3FFJ6VRIL1PI4UQTQ08NPGQVCE6I0X","44","0","JULY","10","APRIL","2","0","2345",,,,,"0","2019-01-21 22:40:11","579531"
"A3T1AU8XOEZZXY","cs_wg_mon_int_pilot1","3FFJ6VRIL1PI4UQTQ08NPGQVCE6I0X","45","0","SEPTEMBER","11","AUGUST","3","0","2224",,,,,"0","2019-01-21 22:40:15","579532"
"A3T1AU8XOEZZXY","cs_wg_mon_int_pilot1","3FFJ6VRIL1PI4UQTQ08NPGQVCE6I0X","46","0","APRIL","2","NOVEMBER","10","1","3558",,,,,"0","2019-01-21 22:40:20","579533"
"A3T1AU8XOEZZXY","cs_wg_mon_int_pilot1","3FFJ6VRIL1PI4UQTQ08NPGQVCE6I0X","47","0","SEPTEMBER","11","AUGUST","3","0","3018",,,,,"0","2019-01-21 22:40:25","579534"
"A3T1AU8XOEZZXY","cs_wg_mon_int_pilot1","3FFJ6VRIL1PI4UQTQ08NPGQVCE6I0X","48","0","MARCH","12","NOVEMBER","10","0","1653",,,,,"0","2019-01-21 22:40:28","579535"
"A3T1AU8XOEZZXY","cs_wg_mon_int_pilot1","3FFJ6VRIL1PI4UQTQ08NPGQVCE6I0X","49","0","APRIL","2","FEBRUARY","3","0","2909",,,,,"0","2019-01-21 22:40:34","579536"
"A3T1AU8XOEZZXY","cs_wg_mon_int_pilot1","3FFJ6VRIL1PI4UQTQ08NPGQVCE6I0X","50","0","FEBRUARY","3","MARCH","12","1","3068",,,,,"0","2019-01-21 22:40:39","579537"
"A3T1AU8XOEZZXY","cs_wg_mon_int_pilot1","3FFJ6VRIL1PI4UQTQ08NPGQVCE6I0X","51","0","SEPTEMBER","11","JULY","10","0","3990",,,,,"0","2019-01-21 22:40:45","579538"
"A3T1AU8XOEZZXY","cs_wg_mon_int_pilot1","3FFJ6VRIL1PI4UQTQ08NPGQVCE6I0X","52","0","AUGUST","3","SEPTEMBER","11","1","3019",,,,,"0","2019-01-21 22:40:50","579539"
"A3T1AU8XOEZZXY","cs_wg_mon_int_pilot1","3FFJ6VRIL1PI4UQTQ08NPGQVCE6I0X","53","0","DECEMBER","10","SEPTEMBER","11","0","3073",,,,,"0","2019-01-21 22:40:56","579540"
"A3T1AU8XOEZZXY","cs_wg_mon_int_pilot1","3FFJ6VRIL1PI4UQTQ08NPGQVCE6I0X","54","0","APRIL","2","JULY","10","1","4001",,,,,"0","2019-01-21 22:41:02","579541"
"A3T1AU8XOEZZXY","cs_wg_mon_int_pilot1","3FFJ6VRIL1PI4UQTQ08NPGQVCE6I0X","55","0","AUGUST","3","MARCH","12","1","4961",,,,,"0","2019-01-21 22:41:09","579542"
"A3T1AU8XOEZZXY","cs_wg_mon_int_pilot1","3FFJ6VRIL1PI4UQTQ08NPGQVCE6I0X","56","0","NOVEMBER","10","SEPTEMBER","11","1","4093",,,,,"0","2019-01-21 22:41:15","579543"
"A3T1AU8XOEZZXY","cs_wg_mon_int_pilot1","3FFJ6VRIL1PI4UQTQ08NPGQVCE6I0X","57","0","FEBRUARY","3","SEPTEMBER","11","1","3898",,,,,"0","2019-01-21 22:41:20","579544"
"A3T1AU8XOEZZXY","cs_wg_mon_int_pilot1","3FFJ6VRIL1PI4UQTQ08NPGQVCE6I0X","58","0","JUNE","3","SEPTEMBER","11","1","1875",,,,,"0","2019-01-21 22:41:24","579545"
"A3T1AU8XOEZZXY","cs_wg_mon_int_pilot1","3FFJ6VRIL1PI4UQTQ08NPGQVCE6I0X","59","0","APRIL","2","AUGUST","3","1","4474",,,,,"0","2019-01-21 22:41:31","579546"
"A3T1AU8XOEZZXY","cs_wg_mon_int_pilot1","3FFJ6VRIL1PI4UQTQ08NPGQVCE6I0X","60","0","SEPTEMBER","11","FEBRUARY","3","0","2443",,,,,"0","2019-01-21 22:41:36","579547"
"A3T1AU8XOEZZXY","cs_wg_mon_int_pilot1","3FFJ6VRIL1PI4UQTQ08NPGQVCE6I0X","61","0","OCTOBER","3","SEPTEMBER","11","1","2384",,,,,"0","2019-01-21 22:41:40","579548"
"A3T1AU8XOEZZXY","cs_wg_mon_int_pilot1","3FFJ6VRIL1PI4UQTQ08NPGQVCE6I0X","62","0","JANUARY","10","SEPTEMBER","11","1","1860",,,,,"0","2019-01-21 22:41:44","579549"
"A3T1AU8XOEZZXY","cs_wg_mon_int_pilot1","3FFJ6VRIL1PI4UQTQ08NPGQVCE6I0X","63","0","AUGUST","3","MARCH","12","1","4821",,,,,"0","2019-01-21 22:41:52","579550"
"A3T1AU8XOEZZXY","cs_wg_mon_int_pilot1","3FFJ6VRIL1PI4UQTQ08NPGQVCE6I0X","64","0","JUNE","3","MARCH","12","1","1970",,,,,"0","2019-01-21 22:41:56","579551"
"A3T1AU8XOEZZXY","cs_wg_mon_int_pilot1","3FFJ6VRIL1PI4UQTQ08NPGQVCE6I0X","65","0","JUNE","3","APRIL","2","0","6133",,,,,"0","2019-01-21 22:42:05","579552"
"A3T1AU8XOEZZXY","cs_wg_mon_int_pilot1","3FFJ6VRIL1PI4UQTQ08NPGQVCE6I0X","66","0","APRIL","2","JANUARY","10","1","2870",,,,,"0","2019-01-21 22:42:09","579553"
"A3T1AU8XOEZZXY","cs_wg_mon_int_pilot1","3FFJ6VRIL1PI4UQTQ08NPGQVCE6I0X","67","0","JULY","10","APRIL","2","0","5980",,,,,"0","2019-01-21 22:42:17","579554"
"A3T1AU8XOEZZXY","cs_wg_mon_int_pilot1","3FFJ6VRIL1PI4UQTQ08NPGQVCE6I0X","68","0","APRIL","2","JULY","10","1","2185",,,,,"0","2019-01-21 22:42:22","579555"
"A3T1AU8XOEZZXY","cs_wg_mon_int_pilot1","3FFJ6VRIL1PI4UQTQ08NPGQVCE6I0X","69","0","NOVEMBER","10","APRIL","2","0","3550",,,,,"0","2019-01-21 22:42:28","579556"
"A3T1AU8XOEZZXY","cs_wg_mon_int_pilot1","3FFJ6VRIL1PI4UQTQ08NPGQVCE6I0X","70","0","SEPTEMBER","11","FEBRUARY","3","0","1525",,,,,"0","2019-01-21 22:42:31","579557"
"A3T1AU8XOEZZXY","cs_wg_mon_int_pilot1","3FFJ6VRIL1PI4UQTQ08NPGQVCE6I0X","71","0","SEPTEMBER","11","FEBRUARY","3","0","2861",,,,,"0","2019-01-21 22:42:36","579558"
"A3T1AU8XOEZZXY","cs_wg_mon_int_pilot1","3FFJ6VRIL1PI4UQTQ08NPGQVCE6I0X","72","0","MARCH","12","OCTOBER","3","0","2217",,,,,"0","2019-01-21 22:42:40","579559"
"A3T1AU8XOEZZXY","cs_wg_mon_int_pilot1","3FFJ6VRIL1PI4UQTQ08NPGQVCE6I0X","73","0","APRIL","2","NOVEMBER","10","1","2530",,,,,"0","2019-01-21 22:42:44","579560"
"A3T1AU8XOEZZXY","cs_wg_mon_int_pilot1","3FFJ6VRIL1PI4UQTQ08NPGQVCE6I0X","74","0","AUGUST","3","SEPTEMBER","11","1","2349",,,,,"0","2019-01-21 22:42:48","579561"
"A3T1AU8XOEZZXY","cs_wg_mon_int_pilot1","3FFJ6VRIL1PI4UQTQ08NPGQVCE6I0X","75","0","DECEMBER","10","MAY","1","0","4126",,,,,"0","2019-01-21 22:42:54","579562"
"A3T1AU8XOEZZXY","cs_wg_mon_int_pilot1","3FFJ6VRIL1PI4UQTQ08NPGQVCE6I0X","76","0","MAY","1","JANUARY","10","1","4653",,,,,"0","2019-01-21 22:43:00","579563"
"A3T1AU8XOEZZXY","cs_wg_mon_int_pilot1","3FFJ6VRIL1PI4UQTQ08NPGQVCE6I0X","77","0","MARCH","12","JULY","10","0","1175",,,,,"0","2019-01-21 22:43:03","579564"
"A3T1AU8XOEZZXY","cs_wg_mon_int_pilot1","3FFJ6VRIL1PI4UQTQ08NPGQVCE6I0X","78","0","FEBRUARY","3","APRIL","2","1","9427",,,,,"0","2019-01-21 22:43:15","579565"
"A3T1AU8XOEZZXY","cs_wg_mon_int_pilot1","3FFJ6VRIL1PI4UQTQ08NPGQVCE6I0X","79","0","APRIL","2","DECEMBER","10","1","2036",,,,,"0","2019-01-21 22:43:18","579566"
"A3T1AU8XOEZZXY","cs_wg_mon_int_pilot1","3FFJ6VRIL1PI4UQTQ08NPGQVCE6I0X","80","0","AUGUST","3","MAY","1","0","5420",,,,,"0","2019-01-21 22:43:26","579567"
"A3T1AU8XOEZZXY","cs_wg_mon_int_pilot1","3FFJ6VRIL1PI4UQTQ08NPGQVCE6I0X","81","0","SEPTEMBER","11","JUNE","3","0","3202",,,,,"0","2019-01-21 22:43:31","579568"
"A3T1AU8XOEZZXY","cs_wg_mon_int_pilot1","3FFJ6VRIL1PI4UQTQ08NPGQVCE6I0X","82","0","SEPTEMBER","11","DECEMBER","10","0","1496",,,,,"0","2019-01-21 22:43:34","579569"
"A3T1AU8XOEZZXY","cs_wg_mon_int_pilot1","3FFJ6VRIL1PI4UQTQ08NPGQVCE6I0X","83","0","DECEMBER","10","MARCH","12","1","2379",,,,,"0","2019-01-21 22:43:38","579570"
"A3T1AU8XOEZZXY","cs_wg_mon_int_pilot1","3FFJ6VRIL1PI4UQTQ08NPGQVCE6I0X","84","0","AUGUST","3","APRIL","2","0","3253",,,,,"0","2019-01-21 22:43:44","579571"
"A3T1AU8XOEZZXY","cs_wg_mon_int_pilot1","3FFJ6VRIL1PI4UQTQ08NPGQVCE6I0X","85","0","SEPTEMBER","11","OCTOBER","3","0","1262",,,,,"0","2019-01-21 22:43:46","579572"
"A3T1AU8XOEZZXY","cs_wg_mon_int_pilot1","3FFJ6VRIL1PI4UQTQ08NPGQVCE6I0X","86","0","MAY","1","DECEMBER","10","1","2065",,,,,"0","2019-01-21 22:43:50","579573"
"A3T1AU8XOEZZXY","cs_wg_mon_int_pilot1","3FFJ6VRIL1PI4UQTQ08NPGQVCE6I0X","87","0","MARCH","12","JUNE","3","0","1355",,,,,"0","2019-01-21 22:43:53","579574"
"A3T1AU8XOEZZXY","cs_wg_mon_int_pilot1","3FFJ6VRIL1PI4UQTQ08NPGQVCE6I0X","88","0","JULY","10","MAY","1","0","2124",,,,,"0","2019-01-21 22:43:57","579575"
"A3T1AU8XOEZZXY","cs_wg_mon_int_pilot1","3FFJ6VRIL1PI4UQTQ08NPGQVCE6I0X","89","0","DECEMBER","10","APRIL","2","0","2442",,,,,"0","2019-01-21 22:44:01","579576"
"A3T1AU8XOEZZXY","cs_wg_mon_int_pilot1","3FFJ6VRIL1PI4UQTQ08NPGQVCE6I0X","90","0","MAY","1","JUNE","3","1","4613",,,,,"0","2019-01-21 22:44:07","579577"
"A3T1AU8XOEZZXY","cs_wg_mon_int_pilot1","3FFJ6VRIL1PI4UQTQ08NPGQVCE6I0X","91","0","NOVEMBER","10","MARCH","12","1","2822",,,,,"0","2019-01-21 22:44:12","579578"
"A3T1AU8XOEZZXY","cs_wg_mon_int_pilot1","3FFJ6VRIL1PI4UQTQ08NPGQVCE6I0X","92","0","OCTOBER","3","MAY","1","0","2992",,,,,"0","2019-01-21 22:44:17","579579"
"A3T1AU8XOEZZXY","cs_wg_mon_int_pilot1","3FFJ6VRIL1PI4UQTQ08NPGQVCE6I0X","93","0","NOVEMBER","10","APRIL","2","0","1685",,,,,"0","2019-01-21 22:44:20","579580"
"A3T1AU8XOEZZXY","cs_wg_mon_int_pilot1","3FFJ6VRIL1PI4UQTQ08NPGQVCE6I0X","94","0","NOVEMBER","10","MAY","1","0","1527",,,,,"0","2019-01-21 22:44:23","579581"
"A3T1AU8XOEZZXY","cs_wg_mon_int_pilot1","3FFJ6VRIL1PI4UQTQ08NPGQVCE6I0X","95","0","FEBRUARY","3","MAY","1","0","2999",,,,,"0","2019-01-21 22:44:28","579582"
"A3T1AU8XOEZZXY","cs_wg_mon_int_pilot1","3FFJ6VRIL1PI4UQTQ08NPGQVCE6I0X","96","0","APRIL","2","JANUARY","10","1","3262",,,,,"0","2019-01-21 22:44:33","579583"
"A3T1AU8XOEZZXY","cs_wg_mon_int_pilot1","3FFJ6VRIL1PI4UQTQ08NPGQVCE6I0X","97","0","DECEMBER","10","APRIL","2","0","2320",,,,,"0","2019-01-21 22:44:37","579584"
"A3T1AU8XOEZZXY","cs_wg_mon_int_pilot1","3FFJ6VRIL1PI4UQTQ08NPGQVCE6I0X","98","0","MAY","1","JULY","10","1","1891",,,,,"0","2019-01-21 22:44:41","579585"
"A3T1AU8XOEZZXY","cs_wg_mon_int_pilot1","3FFJ6VRIL1PI4UQTQ08NPGQVCE6I0X","99","0","SEPTEMBER","11","JANUARY","10","0","2777",,,,,"0","2019-01-21 22:44:46","579586"
"A3T1AU8XOEZZXY","cs_wg_mon_int_pilot1","3FFJ6VRIL1PI4UQTQ08NPGQVCE6I0X","100","0","FEBRUARY","3","MARCH","12","1","1998",,,,,"0","2019-01-21 22:44:49","579587"
"A3T1AU8XOEZZXY","cs_wg_mon_int_pilot1","3FFJ6VRIL1PI4UQTQ08NPGQVCE6I0X","101","0","NOVEMBER","10","MAY","1","0","3513",,,,,"0","2019-01-21 22:44:55","579588"
"A3T1AU8XOEZZXY","cs_wg_mon_int_pilot1","3FFJ6VRIL1PI4UQTQ08NPGQVCE6I0X","102","0","MARCH","12","JUNE","3","0","1495",,,,,"0","2019-01-21 22:44:58","579589"
"A3T1AU8XOEZZXY","cs_wg_mon_int_pilot1","3FFJ6VRIL1PI4UQTQ08NPGQVCE6I0X","103","0","MAY","1","JULY","10","1","2261",,,,,"0","2019-01-21 22:45:02","579590"
"A3T1AU8XOEZZXY","cs_wg_mon_int_pilot1","3FFJ6VRIL1PI4UQTQ08NPGQVCE6I0X","104","0","APRIL","2","JUNE","3","0","2904",,,,,"0","2019-01-21 22:45:07","579591"
"A3T1AU8XOEZZXY","cs_wg_mon_int_pilot1","3FFJ6VRIL1PI4UQTQ08NPGQVCE6I0X","105","0","MARCH","12","AUGUST","3","0","1930",,,,,"0","2019-01-21 22:45:10","579592"
"A3T1AU8XOEZZXY","cs_wg_mon_int_pilot1","3FFJ6VRIL1PI4UQTQ08NPGQVCE6I0X","106","0","JULY","10","SEPTEMBER","11","1","2714",,,,,"0","2019-01-21 22:45:15","579593"
"A3T1AU8XOEZZXY","cs_wg_mon_int_pilot1","3FFJ6VRIL1PI4UQTQ08NPGQVCE6I0X","107","0","MAY","1","JULY","10","1","2493",,,,,"0","2019-01-21 22:45:19","579594"
"A3T1AU8XOEZZXY","cs_wg_mon_int_pilot1","3FFJ6VRIL1PI4UQTQ08NPGQVCE6I0X","108","0","APRIL","2","DECEMBER","10","1","5538",,,,,"0","2019-01-21 22:45:26","579595"
"A3T1AU8XOEZZXY","cs_wg_mon_int_pilot1","3FFJ6VRIL1PI4UQTQ08NPGQVCE6I0X","109","0","SEPTEMBER","11","AUGUST","3","0","1337",,,,,"0","2019-01-21 22:45:30","579596"
"A3T1AU8XOEZZXY","cs_wg_mon_int_pilot1","3FFJ6VRIL1PI4UQTQ08NPGQVCE6I0X","110","0","OCTOBER","3","MARCH","12","1","2068",,,,,"0","2019-01-21 22:45:35","579597"
"A3T1AU8XOEZZXY","cs_wg_mon_int_pilot1","3FFJ6VRIL1PI4UQTQ08NPGQVCE6I0X","111","0","MAY","1","FEBRUARY","3","1","2834",,,,,"0","2019-01-21 22:45:40","579598"
"A3T1AU8XOEZZXY","cs_wg_mon_int_pilot1","3FFJ6VRIL1PI4UQTQ08NPGQVCE6I0X","112","0","OCTOBER","3","SEPTEMBER","11","1","2394",,,,,"0","2019-01-21 22:45:44","579599"
"A3T1AU8XOEZZXY","cs_wg_mon_int_pilot1","3FFJ6VRIL1PI4UQTQ08NPGQVCE6I0X","113","0","APRIL","2","NOVEMBER","10","1","5260",,,,,"0","2019-01-21 22:45:51","579600"
"A3T1AU8XOEZZXY","cs_wg_mon_int_pilot1","3FFJ6VRIL1PI4UQTQ08NPGQVCE6I0X","114","0","JANUARY","10","MAY","1","0","1620",,,,,"0","2019-01-21 22:45:54","579601"
"A3T1AU8XOEZZXY","cs_wg_mon_int_pilot1","3FFJ6VRIL1PI4UQTQ08NPGQVCE6I0X","115","0","MARCH","12","FEBRUARY","3","0","1418",,,,,"0","2019-01-21 22:45:57","579602"
"A3T1AU8XOEZZXY","cs_wg_mon_int_pilot1","3FFJ6VRIL1PI4UQTQ08NPGQVCE6I0X","116","0","OCTOBER","3","MARCH","12","1","1798",,,,,"0","2019-01-21 22:46:01","579603"
"A3T1AU8XOEZZXY","cs_wg_mon_int_pilot1","3FFJ6VRIL1PI4UQTQ08NPGQVCE6I0X","117","0","MAY","1","JANUARY","10","1","1847",,,,,"0","2019-01-21 22:46:04","579604"
"A3T1AU8XOEZZXY","cs_wg_mon_int_pilot1","3FFJ6VRIL1PI4UQTQ08NPGQVCE6I0X","118","0","MAY","1","NOVEMBER","10","1","2473",,,,,"0","2019-01-21 22:46:09","579605"
"A3T1AU8XOEZZXY","cs_wg_mon_int_pilot1","3FFJ6VRIL1PI4UQTQ08NPGQVCE6I0X","119","0","AUGUST","3","MARCH","12","1","2171",,,,,"0","2019-01-21 22:46:12","579606"
"A3T1AU8XOEZZXY","cs_wg_mon_int_pilot1","3FFJ6VRIL1PI4UQTQ08NPGQVCE6I0X","120","0","DECEMBER","10","APRIL","2","0","1799",,,,,"0","2019-01-21 22:46:16","579607"
"A3T1AU8XOEZZXY","cs_wg_mon_int_pilot1","3FFJ6VRIL1PI4UQTQ08NPGQVCE6I0X","121","0","AUGUST","3","SEPTEMBER","11","1","2214",,,,,"0","2019-01-21 22:46:20","579608"
"A3T1AU8XOEZZXY","cs_wg_mon_int_pilot1","3FFJ6VRIL1PI4UQTQ08NPGQVCE6I0X","122","0","OCTOBER","3","MARCH","12","1","1805",,,,,"0","2019-01-21 22:46:23","579609"
"A3T1AU8XOEZZXY","cs_wg_mon_int_pilot1","3FFJ6VRIL1PI4UQTQ08NPGQVCE6I0X","123","0","MAY","1","AUGUST","3","1","1881",,,,,"0","2019-01-21 22:46:27","579610"
"A3T1AU8XOEZZXY","cs_wg_mon_int_pilot1","3FFJ6VRIL1PI4UQTQ08NPGQVCE6I0X","124","0","MARCH","12","OCTOBER","3","0","919",,,,,"0","2019-01-21 22:46:29","579611"
"A3T1AU8XOEZZXY","cs_wg_mon_int_pilot1","3FFJ6VRIL1PI4UQTQ08NPGQVCE6I0X","125","0","NOVEMBER","10","APRIL","2","0","1617",,,,,"0","2019-01-21 22:46:33","579612"
"A3T1AU8XOEZZXY","cs_wg_mon_int_pilot1","3FFJ6VRIL1PI4UQTQ08NPGQVCE6I0X","126","0","JULY","10","MARCH","12","1","2113",,,,,"0","2019-01-21 22:46:37","579613"
"A3T1AU8XOEZZXY","cs_wg_mon_int_pilot1","3FFJ6VRIL1PI4UQTQ08NPGQVCE6I0X","127","0","MAY","1","JANUARY","10","1","2355",,,,,"0","2019-01-21 22:46:43","579614"
"A2FZFVZYY4DJ7X","cs_wg_mon_int_pilot1","3SKRO2GZ71S9HE1ZMMXZG1OI9BKK1Y","0","0","APRIL","10","FEBRUARY","11","1","3799",,,,,"0","2019-01-21 22:49:46","579615"
"A2FZFVZYY4DJ7X","cs_wg_mon_int_pilot1","3SKRO2GZ71S9HE1ZMMXZG1OI9BKK1Y","1","0","JANUARY","1","MARCH","10","0","3644",,,,,"0","2019-01-21 22:49:55","579616"
"A2FZFVZYY4DJ7X","cs_wg_mon_int_pilot1","3SKRO2GZ71S9HE1ZMMXZG1OI9BKK1Y","2","0","SEPTEMBER","3","MAY","2","0","4537",,,,,"0","2019-01-21 22:50:03","579617"
"A2FZFVZYY4DJ7X","cs_wg_mon_int_pilot1","3SKRO2GZ71S9HE1ZMMXZG1OI9BKK1Y","3","0","APRIL","10","AUGUST","12","1","5760",,,,,"1","2019-01-21 22:50:11","579618"
"A2FZFVZYY4DJ7X","cs_wg_mon_int_pilot1","3SKRO2GZ71S9HE1ZMMXZG1OI9BKK1Y","4","0","MARCH","10","MAY","2","0","2791",,,,,"0","2019-01-21 22:50:17","579619"
"A2FZFVZYY4DJ7X","cs_wg_mon_int_pilot1","3SKRO2GZ71S9HE1ZMMXZG1OI9BKK1Y","5","0","FEBRUARY","11","APRIL","10","1","3862",,,,,"0","2019-01-21 22:50:26","579620"
"A2FZFVZYY4DJ7X","cs_wg_mon_int_pilot1","3SKRO2GZ71S9HE1ZMMXZG1OI9BKK1Y","6","0","NOVEMBER","10","FEBRUARY","11","1","2199",,,,,"0","2019-01-21 22:50:30","579621"
"A2FZFVZYY4DJ7X","cs_wg_mon_int_pilot1","3SKRO2GZ71S9HE1ZMMXZG1OI9BKK1Y","7","0","AUGUST","12","JULY","3","0","4484",,,,,"1","2019-01-21 22:50:37","579622"
"A2FZFVZYY4DJ7X","cs_wg_mon_int_pilot1","3SKRO2GZ71S9HE1ZMMXZG1OI9BKK1Y","8","0","JANUARY","1","MARCH","10","1","2720",,,,,"0","2019-01-21 22:50:42","579623"
"A2FZFVZYY4DJ7X","cs_wg_mon_int_pilot1","3SKRO2GZ71S9HE1ZMMXZG1OI9BKK1Y","9","0","FEBRUARY","11","SEPTEMBER","3","0","1959",,,,,"0","2019-01-21 22:50:47","579624"
"A2FZFVZYY4DJ7X","cs_wg_mon_int_pilot1","3SKRO2GZ71S9HE1ZMMXZG1OI9BKK1Y","10","0","NOVEMBER","10","MAY","2","1","1956",,,,,"0","2019-01-21 22:50:51","579625"
"A2FZFVZYY4DJ7X","cs_wg_mon_int_pilot1","3SKRO2GZ71S9HE1ZMMXZG1OI9BKK1Y","11","0","AUGUST","12","APRIL","10","0","2074",,,,,"0","2019-01-21 22:50:55","579626"
"A2FZFVZYY4DJ7X","cs_wg_mon_int_pilot1","3SKRO2GZ71S9HE1ZMMXZG1OI9BKK1Y","12","0","OCTOBER","3","FEBRUARY","11","1","1415",,,,,"0","2019-01-21 22:50:59","579627"
"A2FZFVZYY4DJ7X","cs_wg_mon_int_pilot1","3SKRO2GZ71S9HE1ZMMXZG1OI9BKK1Y","13","0","JANUARY","1","JUNE","10","0","3882",,,,,"0","2019-01-21 22:51:06","579628"
"A2FZFVZYY4DJ7X","cs_wg_mon_int_pilot1","3SKRO2GZ71S9HE1ZMMXZG1OI9BKK1Y","14","0","JANUARY","1","OCTOBER","3","1","2017",,,,,"0","2019-01-21 22:51:12","579629"
"A2FZFVZYY4DJ7X","cs_wg_mon_int_pilot1","3SKRO2GZ71S9HE1ZMMXZG1OI9BKK1Y","15","0","SEPTEMBER","3","FEBRUARY","11","1","1603",,,,,"0","2019-01-21 22:51:17","579630"
"A2FZFVZYY4DJ7X","cs_wg_mon_int_pilot1","3SKRO2GZ71S9HE1ZMMXZG1OI9BKK1Y","16","0","JANUARY","1","DECEMBER","3","1","1498",,,,,"0","2019-01-21 22:51:20","579631"
"A2FZFVZYY4DJ7X","cs_wg_mon_int_pilot1","3SKRO2GZ71S9HE1ZMMXZG1OI9BKK1Y","17","0","FEBRUARY","11","JULY","3","0","1353",,,,,"0","2019-01-21 22:51:24","579632"
"A2FZFVZYY4DJ7X","cs_wg_mon_int_pilot1","3SKRO2GZ71S9HE1ZMMXZG1OI9BKK1Y","18","0","DECEMBER","3","AUGUST","12","0","2154",,,,,"0","2019-01-21 22:51:29","579633"
"A2FZFVZYY4DJ7X","cs_wg_mon_int_pilot1","3SKRO2GZ71S9HE1ZMMXZG1OI9BKK1Y","19","0","FEBRUARY","11","JULY","3","0","1131",,,,,"0","2019-01-21 22:51:35","579634"
"A2FZFVZYY4DJ7X","cs_wg_mon_int_pilot1","3SKRO2GZ71S9HE1ZMMXZG1OI9BKK1Y","20","0","JUNE","10","FEBRUARY","11","1","1567",,,,,"0","2019-01-21 22:51:38","579635"
"A2FZFVZYY4DJ7X","cs_wg_mon_int_pilot1","3SKRO2GZ71S9HE1ZMMXZG1OI9BKK1Y","21","0","SEPTEMBER","3","FEBRUARY","11","1","646",,,,,"0","2019-01-21 22:51:40","579636"
"A2FZFVZYY4DJ7X","cs_wg_mon_int_pilot1","3SKRO2GZ71S9HE1ZMMXZG1OI9BKK1Y","22","0","AUGUST","12","OCTOBER","3","0","1708",,,,,"0","2019-01-21 22:51:44","579637"
"A2FZFVZYY4DJ7X","cs_wg_mon_int_pilot1","3SKRO2GZ71S9HE1ZMMXZG1OI9BKK1Y","23","0","FEBRUARY","11","JUNE","10","0","912",,,,,"0","2019-01-21 22:51:47","579638"
"A2FZFVZYY4DJ7X","cs_wg_mon_int_pilot1","3SKRO2GZ71S9HE1ZMMXZG1OI9BKK1Y","24","0","NOVEMBER","10","MAY","2","0","5779",,,,,"1","2019-01-21 22:51:55","579639"
"A2FZFVZYY4DJ7X","cs_wg_mon_int_pilot1","3SKRO2GZ71S9HE1ZMMXZG1OI9BKK1Y","25","0","MARCH","10","FEBRUARY","11","1","1493",,,,,"0","2019-01-21 22:51:58","579640"
"A2FZFVZYY4DJ7X","cs_wg_mon_int_pilot1","3SKRO2GZ71S9HE1ZMMXZG1OI9BKK1Y","26","0","OCTOBER","3","AUGUST","12","1","3927",,,,,"0","2019-01-21 22:52:04","579641"
"A2FZFVZYY4DJ7X","cs_wg_mon_int_pilot1","3SKRO2GZ71S9HE1ZMMXZG1OI9BKK1Y","27","0","FEBRUARY","11","OCTOBER","3","0","1201",,,,,"0","2019-01-21 22:52:07","579642"
"A2FZFVZYY4DJ7X","cs_wg_mon_int_pilot1","3SKRO2GZ71S9HE1ZMMXZG1OI9BKK1Y","28","0","NOVEMBER","10","JANUARY","1","0","2803",,,,,"0","2019-01-21 22:52:11","579643"
"A2FZFVZYY4DJ7X","cs_wg_mon_int_pilot1","3SKRO2GZ71S9HE1ZMMXZG1OI9BKK1Y","29","0","FEBRUARY","11","DECEMBER","3","0","1176",,,,,"0","2019-01-21 22:52:15","579644"
"A2FZFVZYY4DJ7X","cs_wg_mon_int_pilot1","3SKRO2GZ71S9HE1ZMMXZG1OI9BKK1Y","30","0","JANUARY","1","JUNE","10","1","1705",,,,,"0","2019-01-21 22:52:18","579645"
"A2FZFVZYY4DJ7X","cs_wg_mon_int_pilot1","3SKRO2GZ71S9HE1ZMMXZG1OI9BKK1Y","31","0","APRIL","10","JANUARY","1","0","1455",,,,,"0","2019-01-21 22:52:21","579646"
"A2FZFVZYY4DJ7X","cs_wg_mon_int_pilot1","3SKRO2GZ71S9HE1ZMMXZG1OI9BKK1Y","32","0","JANUARY","1","NOVEMBER","10","1","1700",,,,,"0","2019-01-21 22:52:25","579647"
"A2FZFVZYY4DJ7X","cs_wg_mon_int_pilot1","3SKRO2GZ71S9HE1ZMMXZG1OI9BKK1Y","33","0","DECEMBER","3","JANUARY","1","0","1481",,,,,"0","2019-01-21 22:52:28","579648"
"A2FZFVZYY4DJ7X","cs_wg_mon_int_pilot1","3SKRO2GZ71S9HE1ZMMXZG1OI9BKK1Y","34","0","JANUARY","1","JULY","3","1","1585",,,,,"0","2019-01-21 22:52:32","579649"
"A2FZFVZYY4DJ7X","cs_wg_mon_int_pilot1","3SKRO2GZ71S9HE1ZMMXZG1OI9BKK1Y","35","0","NOVEMBER","10","JANUARY","1","0","1658",,,,,"0","2019-01-21 22:52:35","579650"
"A2FZFVZYY4DJ7X","cs_wg_mon_int_pilot1","3SKRO2GZ71S9HE1ZMMXZG1OI9BKK1Y","36","0","AUGUST","12","SEPTEMBER","3","0","1428",,,,,"0","2019-01-21 22:52:38","579651"
"A2FZFVZYY4DJ7X","cs_wg_mon_int_pilot1","3SKRO2GZ71S9HE1ZMMXZG1OI9BKK1Y","37","0","FEBRUARY","11","MARCH","10","0","1259",,,,,"0","2019-01-21 22:52:41","579652"
"A2FZFVZYY4DJ7X","cs_wg_mon_int_pilot1","3SKRO2GZ71S9HE1ZMMXZG1OI9BKK1Y","38","0","APRIL","10","JANUARY","1","0","3380",,,,,"0","2019-01-21 22:52:47","579653"
"A2FZFVZYY4DJ7X","cs_wg_mon_int_pilot1","3SKRO2GZ71S9HE1ZMMXZG1OI9BKK1Y","39","0","MAY","2","NOVEMBER","10","1","5194",,,,,"0","2019-01-21 22:52:54","579654"
"A2FZFVZYY4DJ7X","cs_wg_mon_int_pilot1","3SKRO2GZ71S9HE1ZMMXZG1OI9BKK1Y","40","0","JUNE","10","JANUARY","1","0","1824",,,,,"0","2019-01-21 22:52:58","579655"
"A2FZFVZYY4DJ7X","cs_wg_mon_int_pilot1","3SKRO2GZ71S9HE1ZMMXZG1OI9BKK1Y","41","0","AUGUST","12","NOVEMBER","10","1","1359",,,,,"0","2019-01-21 22:53:02","579656"
"A2FZFVZYY4DJ7X","cs_wg_mon_int_pilot1","3SKRO2GZ71S9HE1ZMMXZG1OI9BKK1Y","42","0","DECEMBER","3","FEBRUARY","11","1","1702",,,,,"0","2019-01-21 22:53:05","579657"
"A2FZFVZYY4DJ7X","cs_wg_mon_int_pilot1","3SKRO2GZ71S9HE1ZMMXZG1OI9BKK1Y","43","0","JUNE","10","MAY","2","0","2081",,,,,"0","2019-01-21 22:53:09","579658"
"A2FZFVZYY4DJ7X","cs_wg_mon_int_pilot1","3SKRO2GZ71S9HE1ZMMXZG1OI9BKK1Y","44","0","OCTOBER","3","FEBRUARY","11","1","1433",,,,,"0","2019-01-21 22:53:13","579659"
"A2FZFVZYY4DJ7X","cs_wg_mon_int_pilot1","3SKRO2GZ71S9HE1ZMMXZG1OI9BKK1Y","45","0","MAY","2","APRIL","10","1","2086",,,,,"0","2019-01-21 22:53:18","579660"
"A2FZFVZYY4DJ7X","cs_wg_mon_int_pilot1","3SKRO2GZ71S9HE1ZMMXZG1OI9BKK1Y","46","0","DECEMBER","3","AUGUST","12","1","3484",,,,,"0","2019-01-21 22:53:23","579661"
"A2FZFVZYY4DJ7X","cs_wg_mon_int_pilot1","3SKRO2GZ71S9HE1ZMMXZG1OI9BKK1Y","47","0","APRIL","10","JANUARY","1","0","2095",,,,,"0","2019-01-21 22:53:27","579662"
"A2FZFVZYY4DJ7X","cs_wg_mon_int_pilot1","3SKRO2GZ71S9HE1ZMMXZG1OI9BKK1Y","48","0","NOVEMBER","10","AUGUST","12","1","1814",,,,,"0","2019-01-21 22:53:30","579663"
"A2FZFVZYY4DJ7X","cs_wg_mon_int_pilot1","3SKRO2GZ71S9HE1ZMMXZG1OI9BKK1Y","49","0","JUNE","10","JANUARY","1","0","1576",,,,,"0","2019-01-21 22:53:33","579664"
"A2FZFVZYY4DJ7X","cs_wg_mon_int_pilot1","3SKRO2GZ71S9HE1ZMMXZG1OI9BKK1Y","50","0","AUGUST","12","MARCH","10","0","1056",,,,,"0","2019-01-21 22:53:36","579665"
"A2FZFVZYY4DJ7X","cs_wg_mon_int_pilot1","3SKRO2GZ71S9HE1ZMMXZG1OI9BKK1Y","51","0","AUGUST","12","SEPTEMBER","3","0","643",,,,,"0","2019-01-21 22:53:38","579666"
"A2FZFVZYY4DJ7X","cs_wg_mon_int_pilot1","3SKRO2GZ71S9HE1ZMMXZG1OI9BKK1Y","52","0","MAY","2","DECEMBER","3","0","2037",,,,,"0","2019-01-21 22:53:43","579667"
"A2FZFVZYY4DJ7X","cs_wg_mon_int_pilot1","3SKRO2GZ71S9HE1ZMMXZG1OI9BKK1Y","53","0","JANUARY","1","SEPTEMBER","3","1","1596",,,,,"0","2019-01-21 22:53:46","579668"
"A2FZFVZYY4DJ7X","cs_wg_mon_int_pilot1","3SKRO2GZ71S9HE1ZMMXZG1OI9BKK1Y","54","0","AUGUST","12","DECEMBER","3","0","1462",,,,,"0","2019-01-21 22:53:49","579669"
"A2FZFVZYY4DJ7X","cs_wg_mon_int_pilot1","3SKRO2GZ71S9HE1ZMMXZG1OI9BKK1Y","55","0","APRIL","10","MAY","2","1","3071",,,,,"0","2019-01-21 22:53:54","579670"
"A2FZFVZYY4DJ7X","cs_wg_mon_int_pilot1","3SKRO2GZ71S9HE1ZMMXZG1OI9BKK1Y","56","0","JANUARY","1","APRIL","10","1","1418",,,,,"0","2019-01-21 22:53:57","579671"
"A2FZFVZYY4DJ7X","cs_wg_mon_int_pilot1","3SKRO2GZ71S9HE1ZMMXZG1OI9BKK1Y","57","0","AUGUST","12","DECEMBER","3","0","1979",,,,,"0","2019-01-21 22:54:01","579672"
"A2FZFVZYY4DJ7X","cs_wg_mon_int_pilot1","3SKRO2GZ71S9HE1ZMMXZG1OI9BKK1Y","58","0","JANUARY","1","MARCH","10","1","1459",,,,,"0","2019-01-21 22:54:03","579673"
"A2FZFVZYY4DJ7X","cs_wg_mon_int_pilot1","3SKRO2GZ71S9HE1ZMMXZG1OI9BKK1Y","59","0","OCTOBER","3","AUGUST","12","1","1718",,,,,"0","2019-01-21 22:54:07","579674"
"A2FZFVZYY4DJ7X","cs_wg_mon_int_pilot1","3SKRO2GZ71S9HE1ZMMXZG1OI9BKK1Y","60","0","FEBRUARY","11","JULY","3","0","1924",,,,,"0","2019-01-21 22:54:11","579675"
"A2FZFVZYY4DJ7X","cs_wg_mon_int_pilot1","3SKRO2GZ71S9HE1ZMMXZG1OI9BKK1Y","61","0","MAY","2","SEPTEMBER","3","0","2790",,,,,"0","2019-01-21 22:54:15","579676"
"A2FZFVZYY4DJ7X","cs_wg_mon_int_pilot1","3SKRO2GZ71S9HE1ZMMXZG1OI9BKK1Y","62","0","OCTOBER","3","JANUARY","1","0","1715",,,,,"0","2019-01-21 22:54:19","579677"
"A2FZFVZYY4DJ7X","cs_wg_mon_int_pilot1","3SKRO2GZ71S9HE1ZMMXZG1OI9BKK1Y","63","0","FEBRUARY","11","DECEMBER","3","0","940",,,,,"0","2019-01-21 22:54:22","579678"
"A2FZFVZYY4DJ7X","cs_wg_mon_int_pilot1","3SKRO2GZ71S9HE1ZMMXZG1OI9BKK1Y","64","0","JULY","3","FEBRUARY","11","1","1847",,,,,"0","2019-01-21 22:54:25","579679"
"A2FZFVZYY4DJ7X","cs_wg_mon_int_pilot1","3SKRO2GZ71S9HE1ZMMXZG1OI9BKK1Y","65","0","JULY","3","FEBRUARY","11","1","1166",,,,,"0","2019-01-21 22:54:28","579680"
"A2FZFVZYY4DJ7X","cs_wg_mon_int_pilot1","3SKRO2GZ71S9HE1ZMMXZG1OI9BKK1Y","66","0","MARCH","10","JANUARY","1","0","1413",,,,,"0","2019-01-21 22:54:31","579681"
"A2FZFVZYY4DJ7X","cs_wg_mon_int_pilot1","3SKRO2GZ71S9HE1ZMMXZG1OI9BKK1Y","67","0","JUNE","10","MAY","2","0","3213",,,,,"0","2019-01-21 22:54:36","579682"
"A2FZFVZYY4DJ7X","cs_wg_mon_int_pilot1","3SKRO2GZ71S9HE1ZMMXZG1OI9BKK1Y","68","0","MARCH","10","AUGUST","12","1","1259",,,,,"0","2019-01-21 22:54:39","579683"
"A2FZFVZYY4DJ7X","cs_wg_mon_int_pilot1","3SKRO2GZ71S9HE1ZMMXZG1OI9BKK1Y","69","0","NOVEMBER","10","JANUARY","1","0","1474",,,,,"0","2019-01-21 22:54:43","579684"
"A2FZFVZYY4DJ7X","cs_wg_mon_int_pilot1","3SKRO2GZ71S9HE1ZMMXZG1OI9BKK1Y","70","0","JANUARY","1","NOVEMBER","10","1","1606",,,,,"0","2019-01-21 22:54:46","579685"
"A2FZFVZYY4DJ7X","cs_wg_mon_int_pilot1","3SKRO2GZ71S9HE1ZMMXZG1OI9BKK1Y","71","0","MAY","2","MARCH","10","0","2841",,,,,"0","2019-01-21 22:54:51","579686"
"A2FZFVZYY4DJ7X","cs_wg_mon_int_pilot1","3SKRO2GZ71S9HE1ZMMXZG1OI9BKK1Y","72","0","JANUARY","1","APRIL","10","1","1253",,,,,"0","2019-01-21 22:54:54","579687"
"A2FZFVZYY4DJ7X","cs_wg_mon_int_pilot1","3SKRO2GZ71S9HE1ZMMXZG1OI9BKK1Y","73","0","APRIL","10","MAY","2","0","1596",,,,,"0","2019-01-21 22:54:57","579688"
"A2FZFVZYY4DJ7X","cs_wg_mon_int_pilot1","3SKRO2GZ71S9HE1ZMMXZG1OI9BKK1Y","74","0","MAY","2","NOVEMBER","10","1","3024",,,,,"0","2019-01-21 22:55:02","579689"
"A2FZFVZYY4DJ7X","cs_wg_mon_int_pilot1","3SKRO2GZ71S9HE1ZMMXZG1OI9BKK1Y","75","0","SEPTEMBER","3","AUGUST","12","1","2930",,,,,"0","2019-01-21 22:55:07","579690"
"A2FZFVZYY4DJ7X","cs_wg_mon_int_pilot1","3SKRO2GZ71S9HE1ZMMXZG1OI9BKK1Y","76","0","JULY","3","AUGUST","12","1","1062",,,,,"0","2019-01-21 22:55:10","579691"
"A2FZFVZYY4DJ7X","cs_wg_mon_int_pilot1","3SKRO2GZ71S9HE1ZMMXZG1OI9BKK1Y","77","0","MARCH","10","MAY","2","0","1795",,,,,"0","2019-01-21 22:55:13","579692"
"A2FZFVZYY4DJ7X","cs_wg_mon_int_pilot1","3SKRO2GZ71S9HE1ZMMXZG1OI9BKK1Y","78","0","FEBRUARY","11","SEPTEMBER","3","0","1201",,,,,"0","2019-01-21 22:55:16","579693"
"A2FZFVZYY4DJ7X","cs_wg_mon_int_pilot1","3SKRO2GZ71S9HE1ZMMXZG1OI9BKK1Y","79","0","AUGUST","12","JULY","3","0","2652",,,,,"0","2019-01-21 22:55:21","579694"
"A2FZFVZYY4DJ7X","cs_wg_mon_int_pilot1","3SKRO2GZ71S9HE1ZMMXZG1OI9BKK1Y","80","0","MAY","2","JUNE","10","1","2345",,,,,"0","2019-01-21 22:55:25","579695"
"A2FZFVZYY4DJ7X","cs_wg_mon_int_pilot1","3SKRO2GZ71S9HE1ZMMXZG1OI9BKK1Y","81","0","SEPTEMBER","3","FEBRUARY","11","1","976",,,,,"0","2019-01-21 22:55:27","579696"
"A2FZFVZYY4DJ7X","cs_wg_mon_int_pilot1","3SKRO2GZ71S9HE1ZMMXZG1OI9BKK1Y","82","0","JULY","3","AUGUST","12","1","3163",,,,,"0","2019-01-21 22:55:32","579697"
"A2FZFVZYY4DJ7X","cs_wg_mon_int_pilot1","3SKRO2GZ71S9HE1ZMMXZG1OI9BKK1Y","83","0","FEBRUARY","11","OCTOBER","3","0","1190",,,,,"0","2019-01-21 22:55:34","579698"
"A2FZFVZYY4DJ7X","cs_wg_mon_int_pilot1","3SKRO2GZ71S9HE1ZMMXZG1OI9BKK1Y","84","0","FEBRUARY","11","DECEMBER","3","0","580",,,,,"0","2019-01-21 22:55:37","579699"
"A2FZFVZYY4DJ7X","cs_wg_mon_int_pilot1","3SKRO2GZ71S9HE1ZMMXZG1OI9BKK1Y","85","0","OCTOBER","3","MAY","2","1","2487",,,,,"0","2019-01-21 22:55:41","579700"
"A2FZFVZYY4DJ7X","cs_wg_mon_int_pilot1","3SKRO2GZ71S9HE1ZMMXZG1OI9BKK1Y","86","0","MAY","2","JUNE","10","1","964",,,,,"0","2019-01-21 22:55:44","579701"
"A2FZFVZYY4DJ7X","cs_wg_mon_int_pilot1","3SKRO2GZ71S9HE1ZMMXZG1OI9BKK1Y","87","0","MAY","2","MARCH","10","1","1014",,,,,"0","2019-01-21 22:55:46","579702"
"A2FZFVZYY4DJ7X","cs_wg_mon_int_pilot1","3SKRO2GZ71S9HE1ZMMXZG1OI9BKK1Y","88","0","AUGUST","12","SEPTEMBER","3","0","1255",,,,,"0","2019-01-21 22:55:49","579703"
"A2FZFVZYY4DJ7X","cs_wg_mon_int_pilot1","3SKRO2GZ71S9HE1ZMMXZG1OI9BKK1Y","89","0","JULY","3","JANUARY","1","0","1658",,,,,"0","2019-01-21 22:55:53","579704"
"A2FZFVZYY4DJ7X","cs_wg_mon_int_pilot1","3SKRO2GZ71S9HE1ZMMXZG1OI9BKK1Y","90","0","AUGUST","12","OCTOBER","3","0","1418",,,,,"0","2019-01-21 22:55:56","579705"
"A2FZFVZYY4DJ7X","cs_wg_mon_int_pilot1","3SKRO2GZ71S9HE1ZMMXZG1OI9BKK1Y","91","0","MARCH","10","JANUARY","1","0","1035",,,,,"0","2019-01-21 22:55:58","579706"
"A2FZFVZYY4DJ7X","cs_wg_mon_int_pilot1","3SKRO2GZ71S9HE1ZMMXZG1OI9BKK1Y","92","0","AUGUST","12","DECEMBER","3","0","1613",,,,,"0","2019-01-21 22:56:01","579707"
"A2FZFVZYY4DJ7X","cs_wg_mon_int_pilot1","3SKRO2GZ71S9HE1ZMMXZG1OI9BKK1Y","93","0","SEPTEMBER","3","AUGUST","12","1","1288",,,,,"0","2019-01-21 22:56:04","579708"
"A2FZFVZYY4DJ7X","cs_wg_mon_int_pilot1","3SKRO2GZ71S9HE1ZMMXZG1OI9BKK1Y","94","0","SEPTEMBER","3","JANUARY","1","0","1281",,,,,"0","2019-01-21 22:56:07","579709"
"A2FZFVZYY4DJ7X","cs_wg_mon_int_pilot1","3SKRO2GZ71S9HE1ZMMXZG1OI9BKK1Y","95","0","APRIL","10","MAY","2","0","1593",,,,,"0","2019-01-21 22:56:11","579710"
"A2FZFVZYY4DJ7X","cs_wg_mon_int_pilot1","3SKRO2GZ71S9HE1ZMMXZG1OI9BKK1Y","96","0","JULY","3","AUGUST","12","1","1363",,,,,"0","2019-01-21 22:56:14","579711"
"A2FZFVZYY4DJ7X","cs_wg_mon_int_pilot1","3SKRO2GZ71S9HE1ZMMXZG1OI9BKK1Y","97","0","MAY","2","NOVEMBER","10","1","1811",,,,,"0","2019-01-21 22:56:17","579712"
"A2FZFVZYY4DJ7X","cs_wg_mon_int_pilot1","3SKRO2GZ71S9HE1ZMMXZG1OI9BKK1Y","98","0","JANUARY","1","JUNE","10","1","1059",,,,,"0","2019-01-21 22:56:20","579713"
"A2FZFVZYY4DJ7X","cs_wg_mon_int_pilot1","3SKRO2GZ71S9HE1ZMMXZG1OI9BKK1Y","99","0","DECEMBER","3","AUGUST","12","1","1690",,,,,"0","2019-01-21 22:56:23","579714"
"A2FZFVZYY4DJ7X","cs_wg_mon_int_pilot1","3SKRO2GZ71S9HE1ZMMXZG1OI9BKK1Y","100","0","AUGUST","12","JULY","3","0","1128",,,,,"0","2019-01-21 22:56:25","579715"
"A2FZFVZYY4DJ7X","cs_wg_mon_int_pilot1","3SKRO2GZ71S9HE1ZMMXZG1OI9BKK1Y","101","0","JANUARY","1","APRIL","10","1","1288",,,,,"0","2019-01-21 22:56:28","579716"
"A2FZFVZYY4DJ7X","cs_wg_mon_int_pilot1","3SKRO2GZ71S9HE1ZMMXZG1OI9BKK1Y","102","0","DECEMBER","3","MAY","2","1","1210",,,,,"0","2019-01-21 22:56:31","579717"
"A2FZFVZYY4DJ7X","cs_wg_mon_int_pilot1","3SKRO2GZ71S9HE1ZMMXZG1OI9BKK1Y","103","0","MAY","2","OCTOBER","3","1","2711",,,,,"0","2019-01-21 22:56:36","579718"
"A2FZFVZYY4DJ7X","cs_wg_mon_int_pilot1","3SKRO2GZ71S9HE1ZMMXZG1OI9BKK1Y","104","0","FEBRUARY","11","SEPTEMBER","3","0","1384",,,,,"0","2019-01-21 22:56:39","579719"
"A2FZFVZYY4DJ7X","cs_wg_mon_int_pilot1","3SKRO2GZ71S9HE1ZMMXZG1OI9BKK1Y","105","0","JUNE","10","JANUARY","1","0","1179",,,,,"0","2019-01-21 22:56:42","579720"
"A2FZFVZYY4DJ7X","cs_wg_mon_int_pilot1","3SKRO2GZ71S9HE1ZMMXZG1OI9BKK1Y","106","0","MAY","2","JUNE","10","1","1277",,,,,"0","2019-01-21 22:56:45","579721"
"A2FZFVZYY4DJ7X","cs_wg_mon_int_pilot1","3SKRO2GZ71S9HE1ZMMXZG1OI9BKK1Y","107","0","MAY","2","APRIL","10","1","1763",,,,,"0","2019-01-21 22:56:48","579722"
"A2FZFVZYY4DJ7X","cs_wg_mon_int_pilot1","3SKRO2GZ71S9HE1ZMMXZG1OI9BKK1Y","108","0","MARCH","10","JANUARY","1","0","1240",,,,,"0","2019-01-21 22:56:51","579723"
"A2FZFVZYY4DJ7X","cs_wg_mon_int_pilot1","3SKRO2GZ71S9HE1ZMMXZG1OI9BKK1Y","109","0","JUNE","10","MAY","2","0","932",,,,,"0","2019-01-21 22:56:53","579724"
"A2FZFVZYY4DJ7X","cs_wg_mon_int_pilot1","3SKRO2GZ71S9HE1ZMMXZG1OI9BKK1Y","110","0","DECEMBER","3","FEBRUARY","11","1","1469",,,,,"0","2019-01-21 22:56:57","579725"
"A2FZFVZYY4DJ7X","cs_wg_mon_int_pilot1","3SKRO2GZ71S9HE1ZMMXZG1OI9BKK1Y","111","0","MAY","2","JULY","3","1","2144",,,,,"0","2019-01-21 22:57:01","579726"
"A2FZFVZYY4DJ7X","cs_wg_mon_int_pilot1","3SKRO2GZ71S9HE1ZMMXZG1OI9BKK1Y","112","0","MAY","2","APRIL","10","1","1567",,,,,"0","2019-01-21 22:57:04","579727"
"A2FZFVZYY4DJ7X","cs_wg_mon_int_pilot1","3SKRO2GZ71S9HE1ZMMXZG1OI9BKK1Y","113","0","NOVEMBER","10","MAY","2","0","1335",,,,,"0","2019-01-21 22:57:07","579728"
"A2FZFVZYY4DJ7X","cs_wg_mon_int_pilot1","3SKRO2GZ71S9HE1ZMMXZG1OI9BKK1Y","114","0","AUGUST","12","JUNE","10","0","1048",,,,,"0","2019-01-21 22:57:10","579729"
"A2FZFVZYY4DJ7X","cs_wg_mon_int_pilot1","3SKRO2GZ71S9HE1ZMMXZG1OI9BKK1Y","115","0","JULY","3","MAY","2","0","2546",,,,,"0","2019-01-21 22:57:14","579730"
