"subject","version","assignmentId","trial","trial_type","word","value","alt","value2","choice","rt","resp","resp2","resp3","resp4","used_hint","stamp","id"
"A1WTUFTRMUN5IR","cs_wg_rev_mem_real1","3ZDAD0O1T1EGAYCFNOWYC1FEBUPTXY","0","0","BLANKET","5","DONKEY","3","0","7179",,,,,"0","2018-10-04 16:09:19","244145"
"A1WTUFTRMUN5IR","cs_wg_rev_mem_real1","3ZDAD0O1T1EGAYCFNOWYC1FEBUPTXY","1","0","CRICKET","5","ROCKET","4","0","3690",,,,,"0","2018-10-04 16:09:25","244146"
"A2MK7JYJLKWSIH","cs_wg_rev_mem_real1","3IXEICO792K3RJSJM1N8CO2UEQR6TI","0","0","VOLCANO","4","PERFUME","4","0","22689",,,,,"0","2018-10-04 16:09:26","244147"
"A1WTUFTRMUN5IR","cs_wg_rev_mem_real1","3ZDAD0O1T1EGAYCFNOWYC1FEBUPTXY","2","0","PENGUIN","4","PALACE","3","0","2943",,,,,"0","2018-10-04 16:09:30","244148"
"A1WTUFTRMUN5IR","cs_wg_rev_mem_real1","3ZDAD0O1T1EGAYCFNOWYC1FEBUPTXY","3","0","PENGUIN","4","BLANKET","5","1","1508",,,,,"0","2018-10-04 16:09:33","244149"
"A1WTUFTRMUN5IR","cs_wg_rev_mem_real1","3ZDAD0O1T1EGAYCFNOWYC1FEBUPTXY","4","0","ADULT","3","PENGUIN","4","1","1663",,,,,"0","2018-10-04 16:09:36","244150"
"A2MK7JYJLKWSIH","cs_wg_rev_mem_real1","3IXEICO792K3RJSJM1N8CO2UEQR6TI","1","0","CHICKEN","5","NAPKIN","4","0","7018",,,,,"0","2018-10-04 16:09:41","244151"
"A1WTUFTRMUN5IR","cs_wg_rev_mem_real1","3ZDAD0O1T1EGAYCFNOWYC1FEBUPTXY","5","0","PALACE","3","CRICKET","5","1","2416",,,,,"0","2018-10-04 16:09:41","244152"
"A2S54MTAZWS3IZ","cs_wg_rev_mem_real1","36W0OB37HWFFAKLZOC3UV3S180UHZB","0","0","BICYCLE","4","MOUTH","3","0","13981",,,,,"0","2018-10-04 16:09:42","244153"
"A2GYIYSU8ZXJP3","cs_wg_rev_mem_real1","3UXUOQ9OKEYHGN7FZB1JNXCYLCQ7AX","0","0","SPATULA","4","SMOKER","4","0","18254",,,,,"0","2018-10-04 16:09:45","244154"
"A1WTUFTRMUN5IR","cs_wg_rev_mem_real1","3ZDAD0O1T1EGAYCFNOWYC1FEBUPTXY","6","0","ROCKET","4","ADULT","3","0","4238",,,,,"0","2018-10-04 16:09:47","244155"
"A2MK7JYJLKWSIH","cs_wg_rev_mem_real1","3IXEICO792K3RJSJM1N8CO2UEQR6TI","2","0","WHISKER","5","BAMBOO","3","0","6894",,,,,"0","2018-10-04 16:09:50","244156"
"A2GYIYSU8ZXJP3","cs_wg_rev_mem_real1","3UXUOQ9OKEYHGN7FZB1JNXCYLCQ7AX","1","0","MOUSE","2","GRENADE","4","1","3497",,,,,"0","2018-10-04 16:09:52","244157"
"A1WTUFTRMUN5IR","cs_wg_rev_mem_real1","3ZDAD0O1T1EGAYCFNOWYC1FEBUPTXY","7","0","ADULT","3","PALACE","3","1","5656",,,,,"0","2018-10-04 16:09:54","244158"
"A2S54MTAZWS3IZ","cs_wg_rev_mem_real1","36W0OB37HWFFAKLZOC3UV3S180UHZB","1","0","SAUCE","2","MOUTH","3","1","10900",,,,,"0","2018-10-04 16:09:56","244159"
"A2MK7JYJLKWSIH","cs_wg_rev_mem_real1","3IXEICO792K3RJSJM1N8CO2UEQR6TI","3","0","LETTUCE","4","WHISKER","5","1","6197",,,,,"0","2018-10-04 16:09:59","244160"
"A2GYIYSU8ZXJP3","cs_wg_rev_mem_real1","3UXUOQ9OKEYHGN7FZB1JNXCYLCQ7AX","2","0","SQUARE","3","BUCKET","4","1","4072",,,,,"0","2018-10-04 16:10:00","244161"
"A1WTUFTRMUN5IR","cs_wg_rev_mem_real1","3ZDAD0O1T1EGAYCFNOWYC1FEBUPTXY","8","0","PENGUIN","4","ROCKET","4","0","4575",,,,,"0","2018-10-04 16:10:00","244162"
"A18EYTQN3BKVOR","cs_wg_rev_mem_real1","374TNBHA8BWSINAXBGO5QAB0TTLYQW","0","0","PERFUME","4","WHISKER","5","1","6918",,,,,"0","2018-10-04 16:10:00","244163"
"AMVBVRHSEZGZY","cs_wg_rev_mem_real1","3IAEQB9FMELU49BSRT0X5EJLZ6WWDQ","0","0","POTATO","3","LETTUCE","4","1","5364",,,,,"0","2018-10-04 16:10:03","244164"
"A18EYTQN3BKVOR","cs_wg_rev_mem_real1","374TNBHA8BWSINAXBGO5QAB0TTLYQW","1","0","CANCER","4","WHISKER","5","1","1647",,,,,"0","2018-10-04 16:10:05","244165"
"A1WTUFTRMUN5IR","cs_wg_rev_mem_real1","3ZDAD0O1T1EGAYCFNOWYC1FEBUPTXY","9","0","COLUMN","4","CRICKET","5","1","3477",,,,,"0","2018-10-04 16:10:05","244166"
"A3KHKFLJZN00QI","cs_wg_rev_mem_real1","3U5JL4WY5KAWTDXP8NVQ4T3MVV94XE","0","0","BANANA","3","BAKER","3","0","3136",,,,,"0","2018-10-04 16:10:06","244167"
"A2S54MTAZWS3IZ","cs_wg_rev_mem_real1","36W0OB37HWFFAKLZOC3UV3S180UHZB","2","0","PALACE","3","SAUCE","2","0","8852",,,,,"0","2018-10-04 16:10:07","244168"
"A2GYIYSU8ZXJP3","cs_wg_rev_mem_real1","3UXUOQ9OKEYHGN7FZB1JNXCYLCQ7AX","3","0","ADULT","3","MOUSE","2","0","4232",,,,,"0","2018-10-04 16:10:07","244169"
"A2MK7JYJLKWSIH","cs_wg_rev_mem_real1","3IXEICO792K3RJSJM1N8CO2UEQR6TI","4","0","VOLCANO","4","AIRBAG","3","0","6017",,,,,"0","2018-10-04 16:10:07","244170"
"A21SDT0AHZO52X","cs_wg_rev_mem_real1","3GNCZX450IO6MTBFVXV0NJ3JL6WPAM","0","0","AIRBAG","3","SCUBA","3","0","5198",,,,,"0","2018-10-04 16:10:09","244171"
"A1WTUFTRMUN5IR","cs_wg_rev_mem_real1","3ZDAD0O1T1EGAYCFNOWYC1FEBUPTXY","10","0","COLUMN","4","ADULT","3","0","2338",,,,,"0","2018-10-04 16:10:09","244172"
"A2R1TM9CS8OAL","cs_wg_rev_mem_real1","3QAVNHZ3EM5GV8WH352T62UZGWVLAK","0","0","MARKET","4","NAPKIN","4","0","10009",,,,,"0","2018-10-04 16:10:09","244173"
"A18EYTQN3BKVOR","cs_wg_rev_mem_real1","374TNBHA8BWSINAXBGO5QAB0TTLYQW","2","0","THUMB","4","BAKER","3","0","2164",,,,,"0","2018-10-04 16:10:10","244174"
"AMVBVRHSEZGZY","cs_wg_rev_mem_real1","3IAEQB9FMELU49BSRT0X5EJLZ6WWDQ","1","0","GARBAGE","4","THUMB","4","0","3755",,,,,"0","2018-10-04 16:10:10","244175"
"A21SDT0AHZO52X","cs_wg_rev_mem_real1","3GNCZX450IO6MTBFVXV0NJ3JL6WPAM","1","0","ISLAND","4","SQUID","3","0","2708",,,,,"0","2018-10-04 16:10:13","244176"
"A3KHKFLJZN00QI","cs_wg_rev_mem_real1","3U5JL4WY5KAWTDXP8NVQ4T3MVV94XE","1","0","BANANA","3","MOUSE","2","0","4110",,,,,"0","2018-10-04 16:10:13","244177"
"A1WTUFTRMUN5IR","cs_wg_rev_mem_real1","3ZDAD0O1T1EGAYCFNOWYC1FEBUPTXY","11","0","PALACE","3","RABBIT","4","1","3021",,,,,"0","2018-10-04 16:10:14","244178"
"A18EYTQN3BKVOR","cs_wg_rev_mem_real1","374TNBHA8BWSINAXBGO5QAB0TTLYQW","3","0","BAKER","3","COLUMN","4","1","1903",,,,,"0","2018-10-04 16:10:14","244179"
"A2MK7JYJLKWSIH","cs_wg_rev_mem_real1","3IXEICO792K3RJSJM1N8CO2UEQR6TI","5","0","COWBOY","3","GROUND","4","0","5859",,,,,"0","2018-10-04 16:10:15","244180"
"A2GYIYSU8ZXJP3","cs_wg_rev_mem_real1","3UXUOQ9OKEYHGN7FZB1JNXCYLCQ7AX","4","0","VULTURE","4","PELICAN","4","1","7716",,,,,"0","2018-10-04 16:10:18","244181"
"A3KHKFLJZN00QI","cs_wg_rev_mem_real1","3U5JL4WY5KAWTDXP8NVQ4T3MVV94XE","2","0","BICYCLE","4","JACKET","4","1","1632",,,,,"0","2018-10-04 16:10:18","244182"
"A2S54MTAZWS3IZ","cs_wg_rev_mem_real1","36W0OB37HWFFAKLZOC3UV3S180UHZB","3","0","PUMPKIN","5","ACROBAT","4","0","10195",,,,,"0","2018-10-04 16:10:19","244183"
"A21SDT0AHZO52X","cs_wg_rev_mem_real1","3GNCZX450IO6MTBFVXV0NJ3JL6WPAM","2","0","SCUBA","3","JACKET","4","1","4180",,,,,"0","2018-10-04 16:10:20","244184"
"A1WTUFTRMUN5IR","cs_wg_rev_mem_real1","3ZDAD0O1T1EGAYCFNOWYC1FEBUPTXY","12","0","RABBIT","4","PENGUIN","4","0","5123",,,,,"0","2018-10-04 16:10:20","244185"
"A3KHKFLJZN00QI","cs_wg_rev_mem_real1","3U5JL4WY5KAWTDXP8NVQ4T3MVV94XE","3","0","BASKET","4","MARKET","4","0","518",,,,,"0","2018-10-04 16:10:22","244186"
"A18EYTQN3BKVOR","cs_wg_rev_mem_real1","374TNBHA8BWSINAXBGO5QAB0TTLYQW","4","0","PERFUME","4","SQUARE","3","0","5227",,,,,"0","2018-10-04 16:10:22","244187"
"A2GYIYSU8ZXJP3","cs_wg_rev_mem_real1","3UXUOQ9OKEYHGN7FZB1JNXCYLCQ7AX","5","0","GRENADE","4","ADULT","3","1","3279",,,,,"0","2018-10-04 16:10:23","244188"
"A21SDT0AHZO52X","cs_wg_rev_mem_real1","3GNCZX450IO6MTBFVXV0NJ3JL6WPAM","3","0","BAKER","3","SAUCE","2","0","1506",,,,,"0","2018-10-04 16:10:23","244189"
"A1WTUFTRMUN5IR","cs_wg_rev_mem_real1","3ZDAD0O1T1EGAYCFNOWYC1FEBUPTXY","13","0","LIZARD","4","BLANKET","5","1","2936",,,,,"0","2018-10-04 16:10:25","244190"
"A3KHKFLJZN00QI","cs_wg_rev_mem_real1","3U5JL4WY5KAWTDXP8NVQ4T3MVV94XE","4","0","BICYCLE","4","SKUNK","4","1","687",,,,,"0","2018-10-04 16:10:25","244191"
"A2MK7JYJLKWSIH","cs_wg_rev_mem_real1","3IXEICO792K3RJSJM1N8CO2UEQR6TI","6","0","CHICKEN","5","MOUTH","3","0","8278",,,,,"0","2018-10-04 16:10:26","244192"
"A2R1TM9CS8OAL","cs_wg_rev_mem_real1","3QAVNHZ3EM5GV8WH352T62UZGWVLAK","1","0","SQUID","3","TURKEY","3","1","11332",,,,,"0","2018-10-04 16:10:26","244193"
"A3KHKFLJZN00QI","cs_wg_rev_mem_real1","3U5JL4WY5KAWTDXP8NVQ4T3MVV94XE","5","0","BANANA","3","COLUMN","4","0","711",,,,,"0","2018-10-04 16:10:27","244194"
"A21SDT0AHZO52X","cs_wg_rev_mem_real1","3GNCZX450IO6MTBFVXV0NJ3JL6WPAM","4","0","GROUND","4","BAKER","3","0","2451",,,,,"0","2018-10-04 16:10:27","244195"
"A1WTUFTRMUN5IR","cs_wg_rev_mem_real1","3ZDAD0O1T1EGAYCFNOWYC1FEBUPTXY","14","0","LIZARD","4","ADULT","3","0","1174",,,,,"0","2018-10-04 16:10:28","244196"
"A18EYTQN3BKVOR","cs_wg_rev_mem_real1","374TNBHA8BWSINAXBGO5QAB0TTLYQW","5","0","AVOCADO","3","COLUMN","4","1","2968",,,,,"0","2018-10-04 16:10:29","244197"
"A2S54MTAZWS3IZ","cs_wg_rev_mem_real1","36W0OB37HWFFAKLZOC3UV3S180UHZB","4","0","LIZARD","4","COOKIE","2","0","7149",,,,,"0","2018-10-04 16:10:29","244198"
"A2MK7JYJLKWSIH","cs_wg_rev_mem_real1","3IXEICO792K3RJSJM1N8CO2UEQR6TI","7","0","CHICKEN","5","BAMBOO","3","0","3576",,,,,"0","2018-10-04 16:10:31","244199"
"A3KHKFLJZN00QI","cs_wg_rev_mem_real1","3U5JL4WY5KAWTDXP8NVQ4T3MVV94XE","6","0","BICYCLE","4","WIZARD","4","1","887",,,,,"0","2018-10-04 16:10:31","244200"
"A2GYIYSU8ZXJP3","cs_wg_rev_mem_real1","3UXUOQ9OKEYHGN7FZB1JNXCYLCQ7AX","6","0","ADULT","3","SPATULA","4","0","4785",,,,,"0","2018-10-04 16:10:32","244201"
"A1WTUFTRMUN5IR","cs_wg_rev_mem_real1","3ZDAD0O1T1EGAYCFNOWYC1FEBUPTXY","15","0","DONKEY","3","BANANA","3","0","3178",,,,,"0","2018-10-04 16:10:33","244202"
"A18EYTQN3BKVOR","cs_wg_rev_mem_real1","374TNBHA8BWSINAXBGO5QAB0TTLYQW","6","0","JACKET","4","CANCER","4","0","1167",,,,,"0","2018-10-04 16:10:35","244203"
"A3KHKFLJZN00QI","cs_wg_rev_mem_real1","3U5JL4WY5KAWTDXP8NVQ4T3MVV94XE","7","0","JACKET","4","MARKET","4","1","1292",,,,,"0","2018-10-04 16:10:35","244204"
"A2S54MTAZWS3IZ","cs_wg_rev_mem_real1","36W0OB37HWFFAKLZOC3UV3S180UHZB","5","0","MOUTH","3","COOKIE","2","0","5661",,,,,"0","2018-10-04 16:10:37","244205"
"A1WTUFTRMUN5IR","cs_wg_rev_mem_real1","3ZDAD0O1T1EGAYCFNOWYC1FEBUPTXY","16","0","ROCKET","4","PENGUIN","4","1","3401",,,,,"0","2018-10-04 16:10:37","244206"
"A2MK7JYJLKWSIH","cs_wg_rev_mem_real1","3IXEICO792K3RJSJM1N8CO2UEQR6TI","8","0","LETTUCE","4","NAPKIN","4","0","5444",,,,,"0","2018-10-04 16:10:39","244207"
"A2GYIYSU8ZXJP3","cs_wg_rev_mem_real1","3UXUOQ9OKEYHGN7FZB1JNXCYLCQ7AX","7","0","COOKIE","2","SQUARE","3","1","4301",,,,,"0","2018-10-04 16:10:39","244208"
"A3KHKFLJZN00QI","cs_wg_rev_mem_real1","3U5JL4WY5KAWTDXP8NVQ4T3MVV94XE","8","0","SPATULA","4","COLUMN","4","0","2160",,,,,"0","2018-10-04 16:10:39","244209"
"A1WTUFTRMUN5IR","cs_wg_rev_mem_real1","3ZDAD0O1T1EGAYCFNOWYC1FEBUPTXY","17","0","BLANKET","5","RABBIT","4","1","1453",,,,,"0","2018-10-04 16:10:40","244210"
"A18EYTQN3BKVOR","cs_wg_rev_mem_real1","374TNBHA8BWSINAXBGO5QAB0TTLYQW","7","0","WHISKER","5","PICTURE","4","1","4056",,,,,"0","2018-10-04 16:10:42","244211"
"A3KHKFLJZN00QI","cs_wg_rev_mem_real1","3U5JL4WY5KAWTDXP8NVQ4T3MVV94XE","9","0","BASKET","4","WIZARD","4","1","1281",,,,,"0","2018-10-04 16:10:43","244212"
"A2R1TM9CS8OAL","cs_wg_rev_mem_real1","3QAVNHZ3EM5GV8WH352T62UZGWVLAK","2","0","MARKET","4","ISLAND","4","1","13165",,,,,"0","2018-10-04 16:10:43","244213"
"AMVBVRHSEZGZY","cs_wg_rev_mem_real1","3IAEQB9FMELU49BSRT0X5EJLZ6WWDQ","2","0","SQUARE","3","LETTUCE","4","1","2301",,,,,"0","2018-10-04 16:10:43","244214"
"A2S54MTAZWS3IZ","cs_wg_rev_mem_real1","36W0OB37HWFFAKLZOC3UV3S180UHZB","6","0","PUMPKIN","5","THUMB","4","0","5590",,,,,"0","2018-10-04 16:10:44","244215"
"A3KHKFLJZN00QI","cs_wg_rev_mem_real1","3U5JL4WY5KAWTDXP8NVQ4T3MVV94XE","10","0","SKUNK","4","BICYCLE","4","1","861",,,,,"0","2018-10-04 16:10:45","244216"
"A2GYIYSU8ZXJP3","cs_wg_rev_mem_real1","3UXUOQ9OKEYHGN7FZB1JNXCYLCQ7AX","8","0","GRENADE","4","MOUSE","2","0","3960",,,,,"0","2018-10-04 16:10:45","244217"
"A1WTUFTRMUN5IR","cs_wg_rev_mem_real1","3ZDAD0O1T1EGAYCFNOWYC1FEBUPTXY","18","0","PALACE","3","ADULT","3","0","4393",,,,,"0","2018-10-04 16:10:46","244218"
"A18EYTQN3BKVOR","cs_wg_rev_mem_real1","374TNBHA8BWSINAXBGO5QAB0TTLYQW","8","0","SQUARE","3","JACKET","4","1","3131",,,,,"0","2018-10-04 16:10:48","244219"
"A2MK7JYJLKWSIH","cs_wg_rev_mem_real1","3IXEICO792K3RJSJM1N8CO2UEQR6TI","9","0","COWBOY","3","NAPKIN","4","0","7558",,,,,"0","2018-10-04 16:10:48","244220"
"A3KHKFLJZN00QI","cs_wg_rev_mem_real1","3U5JL4WY5KAWTDXP8NVQ4T3MVV94XE","11","0","SKUNK","4","MOUSE","2","1","1074",,,,,"0","2018-10-04 16:10:48","244221"
"AMVBVRHSEZGZY","cs_wg_rev_mem_real1","3IAEQB9FMELU49BSRT0X5EJLZ6WWDQ","3","0","BICYCLE","4","POTATO","3","0","2308",,,,,"0","2018-10-04 16:10:50","244222"
"A3KHKFLJZN00QI","cs_wg_rev_mem_real1","3U5JL4WY5KAWTDXP8NVQ4T3MVV94XE","12","0","COWBOY","3","MOUSE","2","0","1020",,,,,"0","2018-10-04 16:10:51","244223"
"A1WTUFTRMUN5IR","cs_wg_rev_mem_real1","3ZDAD0O1T1EGAYCFNOWYC1FEBUPTXY","19","0","ADULT","3","LIZARD","4","1","3179",,,,,"0","2018-10-04 16:10:51","244224"
"A2GYIYSU8ZXJP3","cs_wg_rev_mem_real1","3UXUOQ9OKEYHGN7FZB1JNXCYLCQ7AX","9","0","SQUARE","3","SMOKER","4","1","5236",,,,,"0","2018-10-04 16:10:53","244225"
"A18EYTQN3BKVOR","cs_wg_rev_mem_real1","374TNBHA8BWSINAXBGO5QAB0TTLYQW","9","0","PALACE","3","COLUMN","4","1","2258",,,,,"0","2018-10-04 16:10:54","244226"
"A2MK7JYJLKWSIH","cs_wg_rev_mem_real1","3IXEICO792K3RJSJM1N8CO2UEQR6TI","10","0","BUCKET","4","MOUTH","3","0","4621",,,,,"0","2018-10-04 16:10:54","244227"
"A3KHKFLJZN00QI","cs_wg_rev_mem_real1","3U5JL4WY5KAWTDXP8NVQ4T3MVV94XE","13","0","BASKET","4","BANANA","3","1","1000",,,,,"0","2018-10-04 16:10:54","244228"
"A2S54MTAZWS3IZ","cs_wg_rev_mem_real1","36W0OB37HWFFAKLZOC3UV3S180UHZB","7","0","SAUCE","2","ACROBAT","4","1","8484",,,,,"0","2018-10-04 16:10:55","244229"
"A1WTUFTRMUN5IR","cs_wg_rev_mem_real1","3ZDAD0O1T1EGAYCFNOWYC1FEBUPTXY","20","0","PENGUIN","4","BANANA","3","0","2075",,,,,"0","2018-10-04 16:10:55","244230"
"A3KHKFLJZN00QI","cs_wg_rev_mem_real1","3U5JL4WY5KAWTDXP8NVQ4T3MVV94XE","14","0","COLUMN","4","BANANA","3","0","599",,,,,"0","2018-10-04 16:10:57","244231"
"A18EYTQN3BKVOR","cs_wg_rev_mem_real1","374TNBHA8BWSINAXBGO5QAB0TTLYQW","10","0","AVOCADO","3","BLANKET","5","1","1140",,,,,"0","2018-10-04 16:10:57","244232"
"A31X1FW485DON4","cs_wg_rev_mem_real1","3GNA64GUZE5UGZ0D0EJ8FDD7YOI5QO","0","0","COMPANY","4","BICYCLE","4","0","15903",,,,,"0","2018-10-04 16:10:57","244233"
"A1WTUFTRMUN5IR","cs_wg_rev_mem_real1","3ZDAD0O1T1EGAYCFNOWYC1FEBUPTXY","21","0","ADULT","3","CRICKET","5","1","1403",,,,,"0","2018-10-04 16:10:57","244234"
"AMVBVRHSEZGZY","cs_wg_rev_mem_real1","3IAEQB9FMELU49BSRT0X5EJLZ6WWDQ","4","0","ANKLE","3","THUMB","4","0","2398",,,,,"0","2018-10-04 16:10:58","244235"
"A2R1TM9CS8OAL","cs_wg_rev_mem_real1","3QAVNHZ3EM5GV8WH352T62UZGWVLAK","3","0","COMPANY","4","PUMPKIN","5","1","11677",,,,,"0","2018-10-04 16:10:58","244236"
"A3KHKFLJZN00QI","cs_wg_rev_mem_real1","3U5JL4WY5KAWTDXP8NVQ4T3MVV94XE","15","0","SKUNK","4","MARKET","4","1","1165",,,,,"0","2018-10-04 16:11:00","244237"
"A2S54MTAZWS3IZ","cs_wg_rev_mem_real1","36W0OB37HWFFAKLZOC3UV3S180UHZB","8","0","BAKER","3","PUMPKIN","5","1","4892",,,,,"0","2018-10-04 16:11:02","244238"
"A2MK7JYJLKWSIH","cs_wg_rev_mem_real1","3IXEICO792K3RJSJM1N8CO2UEQR6TI","11","0","CHICKEN","5","BUCKET","4","0","5770",,,,,"0","2018-10-04 16:11:02","244239"
"A1WTUFTRMUN5IR","cs_wg_rev_mem_real1","3ZDAD0O1T1EGAYCFNOWYC1FEBUPTXY","22","0","COLUMN","4","BANANA","3","0","2896",,,,,"0","2018-10-04 16:11:02","244240"
"A3KHKFLJZN00QI","cs_wg_rev_mem_real1","3U5JL4WY5KAWTDXP8NVQ4T3MVV94XE","16","0","MOUSE","2","BICYCLE","4","1","333",,,,,"0","2018-10-04 16:11:03","244241"
"A18EYTQN3BKVOR","cs_wg_rev_mem_real1","374TNBHA8BWSINAXBGO5QAB0TTLYQW","11","0","THUMB","4","PICTURE","4","0","3232",,,,,"0","2018-10-04 16:11:03","244242"
"A3KHKFLJZN00QI","cs_wg_rev_mem_real1","3U5JL4WY5KAWTDXP8NVQ4T3MVV94XE","17","0","MARKET","4","BAKER","3","0","392",,,,,"0","2018-10-04 16:11:05","244243"
"AMVBVRHSEZGZY","cs_wg_rev_mem_real1","3IAEQB9FMELU49BSRT0X5EJLZ6WWDQ","5","0","POTATO","3","BICYCLE","4","1","3824",,,,,"0","2018-10-04 16:11:05","244244"
"A3KHKFLJZN00QI","cs_wg_rev_mem_real1","3U5JL4WY5KAWTDXP8NVQ4T3MVV94XE","18","0","MOUSE","2","SPATULA","4","1","286",,,,,"0","2018-10-04 16:11:07","244245"
"A2R1TM9CS8OAL","cs_wg_rev_mem_real1","3QAVNHZ3EM5GV8WH352T62UZGWVLAK","4","0","PELICAN","4","NAPKIN","4","0","6435",,,,,"0","2018-10-04 16:11:07","244246"
"A1WTUFTRMUN5IR","cs_wg_rev_mem_real1","3ZDAD0O1T1EGAYCFNOWYC1FEBUPTXY","23","0","COLUMN","4","BLANKET","5","1","2848",,,,,"0","2018-10-04 16:11:07","244247"
"A18EYTQN3BKVOR","cs_wg_rev_mem_real1","374TNBHA8BWSINAXBGO5QAB0TTLYQW","12","0","BLANKET","5","AVOCADO","3","0","1532",,,,,"0","2018-10-04 16:11:07","244248"
"A2MK7JYJLKWSIH","cs_wg_rev_mem_real1","3IXEICO792K3RJSJM1N8CO2UEQR6TI","12","0","PERFUME","4","BUCKET","4","0","4701",,,,,"0","2018-10-04 16:11:08","244249"
"A3KHKFLJZN00QI","cs_wg_rev_mem_real1","3U5JL4WY5KAWTDXP8NVQ4T3MVV94XE","19","0","BAKER","3","MARKET","4","0","615",,,,,"0","2018-10-04 16:11:10","244250"
"AMVBVRHSEZGZY","cs_wg_rev_mem_real1","3IAEQB9FMELU49BSRT0X5EJLZ6WWDQ","6","0","JACKET","4","LETTUCE","4","0","2406",,,,,"0","2018-10-04 16:11:10","244251"
"A31X1FW485DON4","cs_wg_rev_mem_real1","3GNA64GUZE5UGZ0D0EJ8FDD7YOI5QO","1","0","SEAGULL","4","WHISKER","5","1","8967",,,,,"0","2018-10-04 16:11:10","244252"
"A18EYTQN3BKVOR","cs_wg_rev_mem_real1","374TNBHA8BWSINAXBGO5QAB0TTLYQW","13","0","PICTURE","4","AVOCADO","3","0","1301",,,,,"0","2018-10-04 16:11:11","244253"
"A3KHKFLJZN00QI","cs_wg_rev_mem_real1","3U5JL4WY5KAWTDXP8NVQ4T3MVV94XE","20","0","SPATULA","4","JACKET","4","1","270",,,,,"0","2018-10-04 16:11:12","244254"
"A1WTUFTRMUN5IR","cs_wg_rev_mem_real1","3ZDAD0O1T1EGAYCFNOWYC1FEBUPTXY","24","0","DONKEY","3","BLANKET","5","1","2897",,,,,"0","2018-10-04 16:11:12","244255"
"A3KHKFLJZN00QI","cs_wg_rev_mem_real1","3U5JL4WY5KAWTDXP8NVQ4T3MVV94XE","21","0","MOUSE","2","BASKET","4","0","308",,,,,"0","2018-10-04 16:11:14","244256"
"AMVBVRHSEZGZY","cs_wg_rev_mem_real1","3IAEQB9FMELU49BSRT0X5EJLZ6WWDQ","7","0","COLUMN","4","JACKET","4","1","2344",,,,,"0","2018-10-04 16:11:15","244257"
"A3KHKFLJZN00QI","cs_wg_rev_mem_real1","3U5JL4WY5KAWTDXP8NVQ4T3MVV94XE","22","0","SKUNK","4","WIZARD","4","1","529",,,,,"0","2018-10-04 16:11:16","244258"
"A18EYTQN3BKVOR","cs_wg_rev_mem_real1","374TNBHA8BWSINAXBGO5QAB0TTLYQW","14","0","BLANKET","5","PERFUME","4","1","1786",,,,,"0","2018-10-04 16:11:16","244259"
"A31X1FW485DON4","cs_wg_rev_mem_real1","3GNA64GUZE5UGZ0D0EJ8FDD7YOI5QO","2","0","POTATO","3","BICYCLE","4","1","4050",,,,,"0","2018-10-04 16:11:17","244260"
"A2GYIYSU8ZXJP3","cs_wg_rev_mem_real1","3UXUOQ9OKEYHGN7FZB1JNXCYLCQ7AX","10","0","PELICAN","4","SQUARE","3","0","10277",,,,,"0","2018-10-04 16:11:17","244261"
"A2MK7JYJLKWSIH","cs_wg_rev_mem_real1","3IXEICO792K3RJSJM1N8CO2UEQR6TI","13","0","BAMBOO","3","COWBOY","3","0","7569",,,,,"0","2018-10-04 16:11:18","244262"
"A2R1TM9CS8OAL","cs_wg_rev_mem_real1","3QAVNHZ3EM5GV8WH352T62UZGWVLAK","5","0","SEAGULL","4","COSTUME","4","0","8362",,,,,"0","2018-10-04 16:11:18","244263"
"A2S54MTAZWS3IZ","cs_wg_rev_mem_real1","36W0OB37HWFFAKLZOC3UV3S180UHZB","9","0","BLOUSE","3","PALACE","3","1","13444",,,,,"0","2018-10-04 16:11:18","244264"
"A3KHKFLJZN00QI","cs_wg_rev_mem_real1","3U5JL4WY5KAWTDXP8NVQ4T3MVV94XE","23","0","COWBOY","3","MARKET","4","1","1043",,,,,"0","2018-10-04 16:11:18","244265"
"AMVBVRHSEZGZY","cs_wg_rev_mem_real1","3IAEQB9FMELU49BSRT0X5EJLZ6WWDQ","8","0","THUMB","4","CRICKET","5","1","2140",,,,,"0","2018-10-04 16:11:19","244266"
"A3KHKFLJZN00QI","cs_wg_rev_mem_real1","3U5JL4WY5KAWTDXP8NVQ4T3MVV94XE","24","0","MARKET","4","BANANA","3","0","286",,,,,"0","2018-10-04 16:11:20","244267"
"A3KHKFLJZN00QI","cs_wg_rev_mem_real1","3U5JL4WY5KAWTDXP8NVQ4T3MVV94XE","25","0","JACKET","4","SPATULA","4","1","322",,,,,"0","2018-10-04 16:11:22","244268"
"A18EYTQN3BKVOR","cs_wg_rev_mem_real1","374TNBHA8BWSINAXBGO5QAB0TTLYQW","15","0","JACKET","4","PERFUME","4","1","3291",,,,,"0","2018-10-04 16:11:22","244269"
"AMVBVRHSEZGZY","cs_wg_rev_mem_real1","3IAEQB9FMELU49BSRT0X5EJLZ6WWDQ","9","0","CRICKET","5","ADULT","3","0","844",,,,,"0","2018-10-04 16:11:22","244270"
"A2R1TM9CS8OAL","cs_wg_rev_mem_real1","3QAVNHZ3EM5GV8WH352T62UZGWVLAK","6","0","BANANA","3","PUMPKIN","5","1","2019",,,,,"0","2018-10-04 16:11:22","244271"
"A31X1FW485DON4","cs_wg_rev_mem_real1","3GNA64GUZE5UGZ0D0EJ8FDD7YOI5QO","3","0","BAKER","3","COMPANY","4","1","4057",,,,,"0","2018-10-04 16:11:23","244272"
"A3KHKFLJZN00QI","cs_wg_rev_mem_real1","3U5JL4WY5KAWTDXP8NVQ4T3MVV94XE","26","0","BAKER","3","JACKET","4","0","373",,,,,"0","2018-10-04 16:11:23","244273"
"A2S54MTAZWS3IZ","cs_wg_rev_mem_real1","36W0OB37HWFFAKLZOC3UV3S180UHZB","10","0","PUMPKIN","5","LIZARD","4","0","4180",,,,,"0","2018-10-04 16:11:25","244274"
"A2MK7JYJLKWSIH","cs_wg_rev_mem_real1","3IXEICO792K3RJSJM1N8CO2UEQR6TI","14","0","VOLCANO","4","LETTUCE","4","0","5060",,,,,"0","2018-10-04 16:11:25","244275"
"A3KHKFLJZN00QI","cs_wg_rev_mem_real1","3U5JL4WY5KAWTDXP8NVQ4T3MVV94XE","27","0","MARKET","4","MOUSE","2","0","354",,,,,"0","2018-10-04 16:11:25","244276"
"A2GYIYSU8ZXJP3","cs_wg_rev_mem_real1","3UXUOQ9OKEYHGN7FZB1JNXCYLCQ7AX","11","0","SQUARE","3","GRENADE","4","1","6049",,,,,"0","2018-10-04 16:11:25","244277"
"AMVBVRHSEZGZY","cs_wg_rev_mem_real1","3IAEQB9FMELU49BSRT0X5EJLZ6WWDQ","10","0","THUMB","4","BICYCLE","4","1","1823",,,,,"0","2018-10-04 16:11:26","244278"
"A18EYTQN3BKVOR","cs_wg_rev_mem_real1","374TNBHA8BWSINAXBGO5QAB0TTLYQW","16","0","SQUARE","3","CANCER","4","1","1618",,,,,"0","2018-10-04 16:11:28","244279"
"A3KHKFLJZN00QI","cs_wg_rev_mem_real1","3U5JL4WY5KAWTDXP8NVQ4T3MVV94XE","28","0","SKUNK","4","COWBOY","3","0","969",,,,,"0","2018-10-04 16:11:28","244280"
"A2R1TM9CS8OAL","cs_wg_rev_mem_real1","3QAVNHZ3EM5GV8WH352T62UZGWVLAK","7","0","TURKEY","3","SQUID","3","0","3437",,,,,"0","2018-10-04 16:11:28","244281"
"A31X1FW485DON4","cs_wg_rev_mem_real1","3GNA64GUZE5UGZ0D0EJ8FDD7YOI5QO","4","0","BAKER","3","NAPKIN","4","1","3756",,,,,"0","2018-10-04 16:11:30","244282"
"AMVBVRHSEZGZY","cs_wg_rev_mem_real1","3IAEQB9FMELU49BSRT0X5EJLZ6WWDQ","11","0","GARBAGE","4","SQUARE","3","0","2023",,,,,"0","2018-10-04 16:11:30","244283"
"A2S54MTAZWS3IZ","cs_wg_rev_mem_real1","36W0OB37HWFFAKLZOC3UV3S180UHZB","11","0","MOUTH","3","BAKER","3","0","3740",,,,,"0","2018-10-04 16:11:30","244284"
"A2GYIYSU8ZXJP3","cs_wg_rev_mem_real1","3UXUOQ9OKEYHGN7FZB1JNXCYLCQ7AX","12","0","COOKIE","2","VULTURE","4","1","3763",,,,,"0","2018-10-04 16:11:31","244285"
"A3KHKFLJZN00QI","cs_wg_rev_mem_real1","3U5JL4WY5KAWTDXP8NVQ4T3MVV94XE","29","0","SPATULA","4","SKUNK","4","0","1031",,,,,"0","2018-10-04 16:11:31","244286"
"A2MK7JYJLKWSIH","cs_wg_rev_mem_real1","3IXEICO792K3RJSJM1N8CO2UEQR6TI","15","0","AIRBAG","3","LETTUCE","4","0","5724",,,,,"0","2018-10-04 16:11:33","244287"
"A1WTUFTRMUN5IR","cs_wg_rev_mem_real1","3ZDAD0O1T1EGAYCFNOWYC1FEBUPTXY","25","0","BLANKET","5","ADULT","3","0","17485",,,,,"0","2018-10-04 16:11:33","244288"
"A3KHKFLJZN00QI","cs_wg_rev_mem_real1","3U5JL4WY5KAWTDXP8NVQ4T3MVV94XE","30","0","BICYCLE","4","BASKET","4","1","371",,,,,"0","2018-10-04 16:11:33","244289"
"A18EYTQN3BKVOR","cs_wg_rev_mem_real1","374TNBHA8BWSINAXBGO5QAB0TTLYQW","17","0","BLANKET","5","CANCER","4","0","3332",,,,,"0","2018-10-04 16:11:33","244290"
"AMVBVRHSEZGZY","cs_wg_rev_mem_real1","3IAEQB9FMELU49BSRT0X5EJLZ6WWDQ","12","0","BLANKET","5","POTATO","3","0","1115",,,,,"0","2018-10-04 16:11:33","244291"
"A2S54MTAZWS3IZ","cs_wg_rev_mem_real1","36W0OB37HWFFAKLZOC3UV3S180UHZB","12","0","THUMB","4","BAKER","3","0","1548",,,,,"0","2018-10-04 16:11:34","244292"
"A3KHKFLJZN00QI","cs_wg_rev_mem_real1","3U5JL4WY5KAWTDXP8NVQ4T3MVV94XE","31","0","COWBOY","3","BAKER","3","0","701",,,,,"0","2018-10-04 16:11:36","244293"
"A31X1FW485DON4","cs_wg_rev_mem_real1","3GNA64GUZE5UGZ0D0EJ8FDD7YOI5QO","5","0","POTATO","3","SEAGULL","4","1","4639",,,,,"0","2018-10-04 16:11:36","244294"
"AMVBVRHSEZGZY","cs_wg_rev_mem_real1","3IAEQB9FMELU49BSRT0X5EJLZ6WWDQ","13","0","CRICKET","5","BLANKET","5","1","1094",,,,,"0","2018-10-04 16:11:36","244295"
"A18EYTQN3BKVOR","cs_wg_rev_mem_real1","374TNBHA8BWSINAXBGO5QAB0TTLYQW","18","0","CANCER","4","PICTURE","4","1","1091",,,,,"0","2018-10-04 16:11:37","244296"
"A2GYIYSU8ZXJP3","cs_wg_rev_mem_real1","3UXUOQ9OKEYHGN7FZB1JNXCYLCQ7AX","13","0","MOUSE","2","SMOKER","4","1","4149",,,,,"0","2018-10-04 16:11:38","244297"
"A3KHKFLJZN00QI","cs_wg_rev_mem_real1","3U5JL4WY5KAWTDXP8NVQ4T3MVV94XE","32","0","SKUNK","4","SPATULA","4","0","549",,,,,"0","2018-10-04 16:11:38","244298"
"A1WTUFTRMUN5IR","cs_wg_rev_mem_real1","3ZDAD0O1T1EGAYCFNOWYC1FEBUPTXY","26","0","PENGUIN","4","DONKEY","3","0","3193",,,,,"0","2018-10-04 16:11:38","244299"
"AW4V84DRTH6R2","cs_wg_rev_mem_real1","3F6KKYWMNB24HF2EZS9A9V6U6UUNDS","0","0","GROUND","4","PICKLE","4","0","19557",,,,,"0","2018-10-04 16:11:38","244300"
"A2MK7JYJLKWSIH","cs_wg_rev_mem_real1","3IXEICO792K3RJSJM1N8CO2UEQR6TI","16","0","PERFUME","4","COWBOY","3","0","4758",,,,,"0","2018-10-04 16:11:39","244301"
"AMVBVRHSEZGZY","cs_wg_rev_mem_real1","3IAEQB9FMELU49BSRT0X5EJLZ6WWDQ","14","0","LETTUCE","4","CRICKET","5","1","1096",,,,,"0","2018-10-04 16:11:39","244302"
"A2R1TM9CS8OAL","cs_wg_rev_mem_real1","3QAVNHZ3EM5GV8WH352T62UZGWVLAK","8","0","PELICAN","4","MARKET","4","1","8775",,,,,"0","2018-10-04 16:11:40","244303"
"A3KHKFLJZN00QI","cs_wg_rev_mem_real1","3U5JL4WY5KAWTDXP8NVQ4T3MVV94XE","33","0","WIZARD","4","JACKET","4","0","972",,,,,"0","2018-10-04 16:11:40","244304"
"A3KHKFLJZN00QI","cs_wg_rev_mem_real1","3U5JL4WY5KAWTDXP8NVQ4T3MVV94XE","34","0","MARKET","4","JACKET","4","1","361",,,,,"0","2018-10-04 16:11:42","244305"
"AMVBVRHSEZGZY","cs_wg_rev_mem_real1","3IAEQB9FMELU49BSRT0X5EJLZ6WWDQ","15","0","SQUARE","3","JACKET","4","1","779",,,,,"0","2018-10-04 16:11:42","244306"
"A2S54MTAZWS3IZ","cs_wg_rev_mem_real1","36W0OB37HWFFAKLZOC3UV3S180UHZB","13","0","LIZARD","4","PUMPKIN","5","1","5981",,,,,"0","2018-10-04 16:11:42","244307"
"A18EYTQN3BKVOR","cs_wg_rev_mem_real1","374TNBHA8BWSINAXBGO5QAB0TTLYQW","19","0","BLANKET","5","JACKET","4","0","3555",,,,,"0","2018-10-04 16:11:43","244308"
"A1WTUFTRMUN5IR","cs_wg_rev_mem_real1","3ZDAD0O1T1EGAYCFNOWYC1FEBUPTXY","27","0","LIZARD","4","ROCKET","4","0","2159",,,,,"0","2018-10-04 16:11:43","244309"
"A31X1FW485DON4","cs_wg_rev_mem_real1","3GNA64GUZE5UGZ0D0EJ8FDD7YOI5QO","6","0","WHISKER","5","COLUMN","4","0","5583",,,,,"0","2018-10-04 16:11:43","244310"
"A3KHKFLJZN00QI","cs_wg_rev_mem_real1","3U5JL4WY5KAWTDXP8NVQ4T3MVV94XE","35","0","COLUMN","4","JACKET","4","0","405",,,,,"0","2018-10-04 16:11:44","244311"
"AMVBVRHSEZGZY","cs_wg_rev_mem_real1","3IAEQB9FMELU49BSRT0X5EJLZ6WWDQ","16","0","JACKET","4","THUMB","4","0","790",,,,,"0","2018-10-04 16:11:45","244312"
"A3KHKFLJZN00QI","cs_wg_rev_mem_real1","3U5JL4WY5KAWTDXP8NVQ4T3MVV94XE","36","0","JACKET","4","BICYCLE","4","1","424",,,,,"0","2018-10-04 16:11:46","244313"
"A18EYTQN3BKVOR","cs_wg_rev_mem_real1","374TNBHA8BWSINAXBGO5QAB0TTLYQW","20","0","WHISKER","5","BAKER","3","0","1322",,,,,"0","2018-10-04 16:11:46","244314"
"A2R1TM9CS8OAL","cs_wg_rev_mem_real1","3QAVNHZ3EM5GV8WH352T62UZGWVLAK","9","0","COSTUME","4","BANQUET","4","1","3633",,,,,"0","2018-10-04 16:11:46","244315"
"A2S54MTAZWS3IZ","cs_wg_rev_mem_real1","36W0OB37HWFFAKLZOC3UV3S180UHZB","14","0","PUMPKIN","5","BAKER","3","0","2692",,,,,"0","2018-10-04 16:11:47","244316"
"AW4V84DRTH6R2","cs_wg_rev_mem_real1","3F6KKYWMNB24HF2EZS9A9V6U6UUNDS","1","0","GROUND","4","JACKET","4","0","5331",,,,,"0","2018-10-04 16:11:47","244317"
"A1WTUFTRMUN5IR","cs_wg_rev_mem_real1","3ZDAD0O1T1EGAYCFNOWYC1FEBUPTXY","28","0","RABBIT","4","GROUND","4","0","2405",,,,,"0","2018-10-04 16:11:47","244318"
"A2MK7JYJLKWSIH","cs_wg_rev_mem_real1","3IXEICO792K3RJSJM1N8CO2UEQR6TI","17","0","MOUTH","3","PERFUME","4","1","5478",,,,,"0","2018-10-04 16:11:48","244319"
"A3KHKFLJZN00QI","cs_wg_rev_mem_real1","3U5JL4WY5KAWTDXP8NVQ4T3MVV94XE","37","0","BASKET","4","SPATULA","4","0","330",,,,,"0","2018-10-04 16:11:48","244320"
"AMVBVRHSEZGZY","cs_wg_rev_mem_real1","3IAEQB9FMELU49BSRT0X5EJLZ6WWDQ","17","0","LETTUCE","4","THUMB","4","0","925",,,,,"0","2018-10-04 16:11:48","244321"
"A3KHKFLJZN00QI","cs_wg_rev_mem_real1","3U5JL4WY5KAWTDXP8NVQ4T3MVV94XE","38","0","COWBOY","3","SKUNK","4","0","815",,,,,"0","2018-10-04 16:11:50","244322"
"A18EYTQN3BKVOR","cs_wg_rev_mem_real1","374TNBHA8BWSINAXBGO5QAB0TTLYQW","21","0","AVOCADO","3","PICTURE","4","1","1178",,,,,"0","2018-10-04 16:11:50","244323"
"A1WTUFTRMUN5IR","cs_wg_rev_mem_real1","3ZDAD0O1T1EGAYCFNOWYC1FEBUPTXY","29","0","GROUND","4","BANANA","3","0","1571",,,,,"0","2018-10-04 16:11:50","244324"
"AMVBVRHSEZGZY","cs_wg_rev_mem_real1","3IAEQB9FMELU49BSRT0X5EJLZ6WWDQ","18","0","LETTUCE","4","ANKLE","3","0","1771",,,,,"0","2018-10-04 16:11:52","244325"
"A31X1FW485DON4","cs_wg_rev_mem_real1","3GNA64GUZE5UGZ0D0EJ8FDD7YOI5QO","7","0","AVOCADO","3","SEAGULL","4","1","6333",,,,,"0","2018-10-04 16:11:52","244326"
"A2R1TM9CS8OAL","cs_wg_rev_mem_real1","3QAVNHZ3EM5GV8WH352T62UZGWVLAK","10","0","PELICAN","4","BANQUET","4","1","3756",,,,,"0","2018-10-04 16:11:53","244327"
"A3KHKFLJZN00QI","cs_wg_rev_mem_real1","3U5JL4WY5KAWTDXP8NVQ4T3MVV94XE","39","0","COLUMN","4","BASKET","4","0","1438",,,,,"0","2018-10-04 16:11:53","244328"
"AW4V84DRTH6R2","cs_wg_rev_mem_real1","3F6KKYWMNB24HF2EZS9A9V6U6UUNDS","2","0","SPATULA","4","BANANA","3","0","2838",,,,,"0","2018-10-04 16:11:53","244329"
"A2S54MTAZWS3IZ","cs_wg_rev_mem_real1","36W0OB37HWFFAKLZOC3UV3S180UHZB","15","0","MOUTH","3","PALACE","3","1","4293",,,,,"0","2018-10-04 16:11:53","244330"
"A1WTUFTRMUN5IR","cs_wg_rev_mem_real1","3ZDAD0O1T1EGAYCFNOWYC1FEBUPTXY","30","0","GROUND","4","ADULT","3","0","1750",,,,,"0","2018-10-04 16:11:54","244331"
"A2RT2DT17HMQ2M","cs_wg_rev_mem_real1","33FBRBDW6O099G9WTUPG7SYHWZHC8R","0","0","HOUSE","2","BAKER","3","1","11821",,,,,"0","2018-10-04 16:11:54","244332"
"A2GYIYSU8ZXJP3","cs_wg_rev_mem_real1","3UXUOQ9OKEYHGN7FZB1JNXCYLCQ7AX","14","0","SMOKER","4","SPATULA","4","1","13759",,,,,"0","2018-10-04 16:11:54","244333"
"A2MK7JYJLKWSIH","cs_wg_rev_mem_real1","3IXEICO792K3RJSJM1N8CO2UEQR6TI","18","0","MOUTH","3","AIRBAG","3","0","5455",,,,,"0","2018-10-04 16:11:55","244334"
"A18EYTQN3BKVOR","cs_wg_rev_mem_real1","374TNBHA8BWSINAXBGO5QAB0TTLYQW","22","0","PALACE","3","JACKET","4","1","2862",,,,,"0","2018-10-04 16:11:55","244335"
"A3KHKFLJZN00QI","cs_wg_rev_mem_real1","3U5JL4WY5KAWTDXP8NVQ4T3MVV94XE","40","0","BANANA","3","BICYCLE","4","0","1009",,,,,"0","2018-10-04 16:11:55","244336"
"AMVBVRHSEZGZY","cs_wg_rev_mem_real1","3IAEQB9FMELU49BSRT0X5EJLZ6WWDQ","19","0","BLANKET","5","GARBAGE","4","1","1901",,,,,"0","2018-10-04 16:11:56","244337"
"A31X1FW485DON4","cs_wg_rev_mem_real1","3GNA64GUZE5UGZ0D0EJ8FDD7YOI5QO","8","0","WHISKER","5","POTATO","3","0","3152",,,,,"0","2018-10-04 16:11:57","244338"
"A8DRISONUZB1M","cs_wg_rev_mem_real1","35LDD5557A56D3NOF8GX0TCKLDEMK1","0","0","VOLCANO","4","SQUARE","3","0","13926",,,,,"0","2018-10-04 16:11:57","244339"
"AW4V84DRTH6R2","cs_wg_rev_mem_real1","3F6KKYWMNB24HF2EZS9A9V6U6UUNDS","3","0","JACKET","4","COSTUME","4","0","1582",,,,,"0","2018-10-04 16:11:57","244340"
"A2R1TM9CS8OAL","cs_wg_rev_mem_real1","3QAVNHZ3EM5GV8WH352T62UZGWVLAK","11","0","SEAGULL","4","COMPANY","4","1","2330",,,,,"0","2018-10-04 16:11:57","244341"
"A2S54MTAZWS3IZ","cs_wg_rev_mem_real1","36W0OB37HWFFAKLZOC3UV3S180UHZB","16","0","THUMB","4","COOKIE","2","0","2197",,,,,"0","2018-10-04 16:11:57","244342"
"A3KHKFLJZN00QI","cs_wg_rev_mem_real1","3U5JL4WY5KAWTDXP8NVQ4T3MVV94XE","41","0","BASKET","4","MOUSE","2","0","721",,,,,"0","2018-10-04 16:11:58","244343"
"A18EYTQN3BKVOR","cs_wg_rev_mem_real1","374TNBHA8BWSINAXBGO5QAB0TTLYQW","23","0","SQUARE","3","COLUMN","4","1","978",,,,,"0","2018-10-04 16:11:58","244344"
"A3KHKFLJZN00QI","cs_wg_rev_mem_real1","3U5JL4WY5KAWTDXP8NVQ4T3MVV94XE","42","0","COLUMN","4","BAKER","3","0","295",,,,,"0","2018-10-04 16:11:59","244345"
"A1WTUFTRMUN5IR","cs_wg_rev_mem_real1","3ZDAD0O1T1EGAYCFNOWYC1FEBUPTXY","31","0","DONKEY","3","PALACE","3","0","4330",,,,,"0","2018-10-04 16:11:59","244346"
"AMVBVRHSEZGZY","cs_wg_rev_mem_real1","3IAEQB9FMELU49BSRT0X5EJLZ6WWDQ","20","0","BLANKET","5","BICYCLE","4","0","1616",,,,,"0","2018-10-04 16:11:59","244347"
"A2MK7JYJLKWSIH","cs_wg_rev_mem_real1","3IXEICO792K3RJSJM1N8CO2UEQR6TI","19","0","AIRBAG","3","MOUTH","3","0","2946",,,,,"0","2018-10-04 16:12:00","244348"
"A2GYIYSU8ZXJP3","cs_wg_rev_mem_real1","3UXUOQ9OKEYHGN7FZB1JNXCYLCQ7AX","15","0","PELICAN","4","BASKET","4","1","3427",,,,,"0","2018-10-04 16:12:00","244349"
"AW4V84DRTH6R2","cs_wg_rev_mem_real1","3F6KKYWMNB24HF2EZS9A9V6U6UUNDS","4","0","PEBBLE","4","ADULT","3","0","900",,,,,"0","2018-10-04 16:12:00","244350"
"A3KHKFLJZN00QI","cs_wg_rev_mem_real1","3U5JL4WY5KAWTDXP8NVQ4T3MVV94XE","43","0","MOUSE","2","SKUNK","4","0","415",,,,,"0","2018-10-04 16:12:01","244351"
"A31X1FW485DON4","cs_wg_rev_mem_real1","3GNA64GUZE5UGZ0D0EJ8FDD7YOI5QO","9","0","NAPKIN","4","WHISKER","5","1","2509",,,,,"0","2018-10-04 16:12:01","244352"
"AMVBVRHSEZGZY","cs_wg_rev_mem_real1","3IAEQB9FMELU49BSRT0X5EJLZ6WWDQ","21","0","GARBAGE","4","POTATO","3","0","1144",,,,,"0","2018-10-04 16:12:03","244353"
"A1WTUFTRMUN5IR","cs_wg_rev_mem_real1","3ZDAD0O1T1EGAYCFNOWYC1FEBUPTXY","32","0","PENGUIN","4","CRICKET","5","0","803",,,,,"0","2018-10-04 16:12:03","244354"
"A2S54MTAZWS3IZ","cs_wg_rev_mem_real1","36W0OB37HWFFAKLZOC3UV3S180UHZB","17","0","BICYCLE","4","ACROBAT","4","0","3950",,,,,"0","2018-10-04 16:12:03","244355"
"AW4V84DRTH6R2","cs_wg_rev_mem_real1","3F6KKYWMNB24HF2EZS9A9V6U6UUNDS","5","0","JACKET","4","SPATULA","4","0","1462",,,,,"0","2018-10-04 16:12:04","244356"
"A2R1TM9CS8OAL","cs_wg_rev_mem_real1","3QAVNHZ3EM5GV8WH352T62UZGWVLAK","12","0","TURKEY","3","SEAGULL","4","1","4089",,,,,"0","2018-10-04 16:12:04","244357"
"A2GYIYSU8ZXJP3","cs_wg_rev_mem_real1","3UXUOQ9OKEYHGN7FZB1JNXCYLCQ7AX","16","0","COOKIE","2","SMOKER","4","1","1974",,,,,"0","2018-10-04 16:12:04","244358"
"A3KHKFLJZN00QI","cs_wg_rev_mem_real1","3U5JL4WY5KAWTDXP8NVQ4T3MVV94XE","44","0","MOUSE","2","BANANA","3","0","889",,,,,"0","2018-10-04 16:12:05","244359"
"A18EYTQN3BKVOR","cs_wg_rev_mem_real1","374TNBHA8BWSINAXBGO5QAB0TTLYQW","24","0","PICTURE","4","CANCER","4","1","4481",,,,,"0","2018-10-04 16:12:05","244360"
"A8DRISONUZB1M","cs_wg_rev_mem_real1","35LDD5557A56D3NOF8GX0TCKLDEMK1","1","0","BASKET","4","PELICAN","4","1","4665",,,,,"0","2018-10-04 16:12:06","244361"
"A1WTUFTRMUN5IR","cs_wg_rev_mem_real1","3ZDAD0O1T1EGAYCFNOWYC1FEBUPTXY","33","0","CRICKET","5","ADULT","3","0","1538",,,,,"0","2018-10-04 16:12:06","244362"
"AMVBVRHSEZGZY","cs_wg_rev_mem_real1","3IAEQB9FMELU49BSRT0X5EJLZ6WWDQ","22","0","LETTUCE","4","JACKET","4","0","1382",,,,,"0","2018-10-04 16:12:06","244363"
"A3KHKFLJZN00QI","cs_wg_rev_mem_real1","3U5JL4WY5KAWTDXP8NVQ4T3MVV94XE","45","0","BICYCLE","4","MARKET","4","0","352",,,,,"0","2018-10-04 16:12:07","244364"
"A2RT2DT17HMQ2M","cs_wg_rev_mem_real1","33FBRBDW6O099G9WTUPG7SYHWZHC8R","1","0","CANCER","4","HOUSE","2","0","9703",,,,,"0","2018-10-04 16:12:07","244365"
"A2S54MTAZWS3IZ","cs_wg_rev_mem_real1","36W0OB37HWFFAKLZOC3UV3S180UHZB","18","0","SAUCE","2","BAKER","3","1","2933",,,,,"0","2018-10-04 16:12:08","244366"
"A3KHKFLJZN00QI","cs_wg_rev_mem_real1","3U5JL4WY5KAWTDXP8NVQ4T3MVV94XE","46","0","WIZARD","4","BASKET","4","1","24",,,,,"0","2018-10-04 16:12:08","244367"
"AW4V84DRTH6R2","cs_wg_rev_mem_real1","3F6KKYWMNB24HF2EZS9A9V6U6UUNDS","6","0","BLANKET","5","LIZARD","4","0","1719",,,,,"0","2018-10-04 16:12:08","244368"
"A18EYTQN3BKVOR","cs_wg_rev_mem_real1","374TNBHA8BWSINAXBGO5QAB0TTLYQW","25","0","THUMB","4","PERFUME","4","1","1093",,,,,"0","2018-10-04 16:12:09","244369"
"A31X1FW485DON4","cs_wg_rev_mem_real1","3GNA64GUZE5UGZ0D0EJ8FDD7YOI5QO","10","0","BICYCLE","4","AVOCADO","3","0","5530",,,,,"0","2018-10-04 16:12:09","244370"
"A2R1TM9CS8OAL","cs_wg_rev_mem_real1","3QAVNHZ3EM5GV8WH352T62UZGWVLAK","13","0","COSTUME","4","SQUID","3","0","2677",,,,,"0","2018-10-04 16:12:09","244371"
"A1WTUFTRMUN5IR","cs_wg_rev_mem_real1","3ZDAD0O1T1EGAYCFNOWYC1FEBUPTXY","34","0","GROUND","4","RABBIT","4","1","1530",,,,,"0","2018-10-04 16:12:09","244372"
"A3KHKFLJZN00QI","cs_wg_rev_mem_real1","3U5JL4WY5KAWTDXP8NVQ4T3MVV94XE","47","0","JACKET","4","COLUMN","4","0","48",,,,,"0","2018-10-04 16:12:10","244373"
"A3KHKFLJZN00QI","cs_wg_rev_mem_real1","3U5JL4WY5KAWTDXP8NVQ4T3MVV94XE","48","0","WIZARD","4","BANANA","3","1","42",,,,,"0","2018-10-04 16:12:11","244374"
"A2MK7JYJLKWSIH","cs_wg_rev_mem_real1","3IXEICO792K3RJSJM1N8CO2UEQR6TI","20","0","BUCKET","4","COWBOY","3","0","9808",,,,,"0","2018-10-04 16:12:11","244375"
"AMVBVRHSEZGZY","cs_wg_rev_mem_real1","3IAEQB9FMELU49BSRT0X5EJLZ6WWDQ","23","0","GARBAGE","4","JACKET","4","0","3358",,,,,"0","2018-10-04 16:12:11","244376"
"A1WTUFTRMUN5IR","cs_wg_rev_mem_real1","3ZDAD0O1T1EGAYCFNOWYC1FEBUPTXY","35","0","PALACE","3","GROUND","4","1","1159",,,,,"0","2018-10-04 16:12:12","244377"
"AW4V84DRTH6R2","cs_wg_rev_mem_real1","3F6KKYWMNB24HF2EZS9A9V6U6UUNDS","7","0","PALACE","3","LIZARD","4","0","1953",,,,,"0","2018-10-04 16:12:12","244378"
"A2GYIYSU8ZXJP3","cs_wg_rev_mem_real1","3UXUOQ9OKEYHGN7FZB1JNXCYLCQ7AX","17","0","VULTURE","4","MOUSE","2","0","5625",,,,,"0","2018-10-04 16:12:12","244379"
"A18EYTQN3BKVOR","cs_wg_rev_mem_real1","374TNBHA8BWSINAXBGO5QAB0TTLYQW","26","0","CANCER","4","PALACE","3","0","1504",,,,,"0","2018-10-04 16:12:13","244380"
"A3KHKFLJZN00QI","cs_wg_rev_mem_real1","3U5JL4WY5KAWTDXP8NVQ4T3MVV94XE","49","0","MOUSE","2","JACKET","4","0","344",,,,,"0","2018-10-04 16:12:13","244381"
"A15M1ADLSNZGSJ","cs_wg_rev_mem_real1","3IO1LGZLK9YKTZ0VJ3CDLS670D686V","0","0","SCUBA","3","POTATO","3","0","8806",,,,,"0","2018-10-04 16:12:13","244382"
"A8DRISONUZB1M","cs_wg_rev_mem_real1","35LDD5557A56D3NOF8GX0TCKLDEMK1","2","0","SCUBA","3","AVOCADO","3","1","5264",,,,,"0","2018-10-04 16:12:13","244383"
"A3KHKFLJZN00QI","cs_wg_rev_mem_real1","3U5JL4WY5KAWTDXP8NVQ4T3MVV94XE","50","0","COLUMN","4","WIZARD","4","0","328",,,,,"0","2018-10-04 16:12:15","244384"
"AMVBVRHSEZGZY","cs_wg_rev_mem_real1","3IAEQB9FMELU49BSRT0X5EJLZ6WWDQ","24","0","JACKET","4","BLANKET","5","1","1534",,,,,"0","2018-10-04 16:12:15","244385"
"A2S54MTAZWS3IZ","cs_wg_rev_mem_real1","36W0OB37HWFFAKLZOC3UV3S180UHZB","19","0","SAUCE","2","COOKIE","2","0","5260",,,,,"0","2018-10-04 16:12:15","244386"
"A1WTUFTRMUN5IR","cs_wg_rev_mem_real1","3ZDAD0O1T1EGAYCFNOWYC1FEBUPTXY","36","0","BANANA","3","COLUMN","4","1","1883",,,,,"0","2018-10-04 16:12:15","244387"
"AW4V84DRTH6R2","cs_wg_rev_mem_real1","3F6KKYWMNB24HF2EZS9A9V6U6UUNDS","8","0","COSTUME","4","PICKLE","4","0","1126",,,,,"0","2018-10-04 16:12:15","244388"
"A31X1FW485DON4","cs_wg_rev_mem_real1","3GNA64GUZE5UGZ0D0EJ8FDD7YOI5QO","11","0","BICYCLE","4","NAPKIN","4","0","4663",,,,,"0","2018-10-04 16:12:15","244389"
"A2R1TM9CS8OAL","cs_wg_rev_mem_real1","3QAVNHZ3EM5GV8WH352T62UZGWVLAK","14","0","PELICAN","4","SEAGULL","4","1","5008",,,,,"0","2018-10-04 16:12:16","244390"
"A3KHKFLJZN00QI","cs_wg_rev_mem_real1","3U5JL4WY5KAWTDXP8NVQ4T3MVV94XE","51","0","SPATULA","4","BAKER","3","0","306",,,,,"0","2018-10-04 16:12:16","244391"
"A18EYTQN3BKVOR","cs_wg_rev_mem_real1","374TNBHA8BWSINAXBGO5QAB0TTLYQW","27","0","PICTURE","4","BAKER","3","0","2010",,,,,"0","2018-10-04 16:12:17","244392"
"A2MK7JYJLKWSIH","cs_wg_rev_mem_real1","3IXEICO792K3RJSJM1N8CO2UEQR6TI","21","0","LETTUCE","4","COWBOY","3","0","3834",,,,,"0","2018-10-04 16:12:17","244393"
"A3KHKFLJZN00QI","cs_wg_rev_mem_real1","3U5JL4WY5KAWTDXP8NVQ4T3MVV94XE","52","0","COWBOY","3","BANANA","3","1","238",,,,,"0","2018-10-04 16:12:18","244394"
"AMVBVRHSEZGZY","cs_wg_rev_mem_real1","3IAEQB9FMELU49BSRT0X5EJLZ6WWDQ","25","0","POTATO","3","GARBAGE","4","1","1188",,,,,"0","2018-10-04 16:12:18","244395"
"AW4V84DRTH6R2","cs_wg_rev_mem_real1","3F6KKYWMNB24HF2EZS9A9V6U6UUNDS","9","0","PICKLE","4","BANANA","3","0","1110",,,,,"0","2018-10-04 16:12:18","244396"
"A1WTUFTRMUN5IR","cs_wg_rev_mem_real1","3ZDAD0O1T1EGAYCFNOWYC1FEBUPTXY","37","0","BLANKET","5","ROCKET","4","0","1119",,,,,"0","2018-10-04 16:12:18","244397"
"A2GYIYSU8ZXJP3","cs_wg_rev_mem_real1","3UXUOQ9OKEYHGN7FZB1JNXCYLCQ7AX","18","0","SMOKER","4","BUCKET","4","1","3668",,,,,"0","2018-10-04 16:12:18","244398"
"A3KHKFLJZN00QI","cs_wg_rev_mem_real1","3U5JL4WY5KAWTDXP8NVQ4T3MVV94XE","53","0","WIZARD","4","BICYCLE","4","0","509",,,,,"0","2018-10-04 16:12:20","244399"
"A1WTUFTRMUN5IR","cs_wg_rev_mem_real1","3ZDAD0O1T1EGAYCFNOWYC1FEBUPTXY","38","0","BLANKET","5","PALACE","3","0","650",,,,,"0","2018-10-04 16:12:20","244400"
"A18EYTQN3BKVOR","cs_wg_rev_mem_real1","374TNBHA8BWSINAXBGO5QAB0TTLYQW","28","0","THUMB","4","SQUARE","3","1","983",,,,,"0","2018-10-04 16:12:20","244401"
"A3VJIRQGLY6C2H","cs_wg_rev_mem_real1","3T3IWE1XG6OW11B31A16ITJLER5TQ4","0","0","SKUNK","4","AIRBAG","3","0","11466",,,,,"0","2018-10-04 16:12:21","244402"
"AMVBVRHSEZGZY","cs_wg_rev_mem_real1","3IAEQB9FMELU49BSRT0X5EJLZ6WWDQ","26","0","BLANKET","5","SQUARE","3","0","1098",,,,,"0","2018-10-04 16:12:21","244403"
"A8DRISONUZB1M","cs_wg_rev_mem_real1","35LDD5557A56D3NOF8GX0TCKLDEMK1","3","0","COLUMN","4","LETTUCE","4","1","5225",,,,,"0","2018-10-04 16:12:21","244404"
"A15M1ADLSNZGSJ","cs_wg_rev_mem_real1","3IO1LGZLK9YKTZ0VJ3CDLS670D686V","1","0","PUMPKIN","5","ARCADE","3","0","5651",,,,,"0","2018-10-04 16:12:21","244405"
"A3KHKFLJZN00QI","cs_wg_rev_mem_real1","3U5JL4WY5KAWTDXP8NVQ4T3MVV94XE","54","0","SKUNK","4","BAKER","3","0","379",,,,,"0","2018-10-04 16:12:22","244406"
"A31X1FW485DON4","cs_wg_rev_mem_real1","3GNA64GUZE5UGZ0D0EJ8FDD7YOI5QO","12","0","AVOCADO","3","NAPKIN","4","1","4848",,,,,"0","2018-10-04 16:12:22","244407"
"AW4V84DRTH6R2","cs_wg_rev_mem_real1","3F6KKYWMNB24HF2EZS9A9V6U6UUNDS","10","0","PALACE","3","PICKLE","4","0","1435",,,,,"0","2018-10-04 16:12:22","244408"
"A2R1TM9CS8OAL","cs_wg_rev_mem_real1","3QAVNHZ3EM5GV8WH352T62UZGWVLAK","15","0","ISLAND","4","MARKET","4","0","4096",,,,,"0","2018-10-04 16:12:23","244409"
"A3KHKFLJZN00QI","cs_wg_rev_mem_real1","3U5JL4WY5KAWTDXP8NVQ4T3MVV94XE","55","0","MARKET","4","COWBOY","3","0","297",,,,,"0","2018-10-04 16:12:23","244410"
"A2MK7JYJLKWSIH","cs_wg_rev_mem_real1","3IXEICO792K3RJSJM1N8CO2UEQR6TI","22","0","BAMBOO","3","CHICKEN","5","1","4026",,,,,"0","2018-10-04 16:12:24","244411"
"A2S54MTAZWS3IZ","cs_wg_rev_mem_real1","36W0OB37HWFFAKLZOC3UV3S180UHZB","20","0","BLOUSE","3","LIZARD","4","1","6985",,,,,"0","2018-10-04 16:12:24","244412"
"A18EYTQN3BKVOR","cs_wg_rev_mem_real1","374TNBHA8BWSINAXBGO5QAB0TTLYQW","29","0","JACKET","4","AVOCADO","3","0","1045",,,,,"0","2018-10-04 16:12:24","244413"
"AMVBVRHSEZGZY","cs_wg_rev_mem_real1","3IAEQB9FMELU49BSRT0X5EJLZ6WWDQ","27","0","SQUARE","3","ADULT","3","1","1103",,,,,"0","2018-10-04 16:12:24","244414"
"A1WTUFTRMUN5IR","cs_wg_rev_mem_real1","3ZDAD0O1T1EGAYCFNOWYC1FEBUPTXY","39","0","PALACE","3","ROCKET","4","1","1971",,,,,"0","2018-10-04 16:12:24","244415"
"A2GYIYSU8ZXJP3","cs_wg_rev_mem_real1","3UXUOQ9OKEYHGN7FZB1JNXCYLCQ7AX","19","0","VULTURE","4","BASKET","4","1","4335",,,,,"0","2018-10-04 16:12:25","244416"
"AW4V84DRTH6R2","cs_wg_rev_mem_real1","3F6KKYWMNB24HF2EZS9A9V6U6UUNDS","11","0","LIZARD","4","BANANA","3","0","1083",,,,,"0","2018-10-04 16:12:25","244417"
"A3KHKFLJZN00QI","cs_wg_rev_mem_real1","3U5JL4WY5KAWTDXP8NVQ4T3MVV94XE","56","0","JACKET","4","MOUSE","2","1","560",,,,,"0","2018-10-04 16:12:25","244418"
"A31X1FW485DON4","cs_wg_rev_mem_real1","3GNA64GUZE5UGZ0D0EJ8FDD7YOI5QO","13","0","WHISKER","5","SAUCE","2","0","2549",,,,,"0","2018-10-04 16:12:26","244419"
"A8DRISONUZB1M","cs_wg_rev_mem_real1","35LDD5557A56D3NOF8GX0TCKLDEMK1","4","0","AVOCADO","3","FLUTE","3","0","3711",,,,,"0","2018-10-04 16:12:27","244420"
"A2R1TM9CS8OAL","cs_wg_rev_mem_real1","3QAVNHZ3EM5GV8WH352T62UZGWVLAK","16","0","SEAGULL","4","BANQUET","4","1","1989",,,,,"0","2018-10-04 16:12:27","244421"
"AW4V84DRTH6R2","cs_wg_rev_mem_real1","3F6KKYWMNB24HF2EZS9A9V6U6UUNDS","12","0","BLANKET","5","ADULT","3","0","779",,,,,"0","2018-10-04 16:12:28","244422"
"AMVBVRHSEZGZY","cs_wg_rev_mem_real1","3IAEQB9FMELU49BSRT0X5EJLZ6WWDQ","28","0","ADULT","3","COLUMN","4","1","1728",,,,,"0","2018-10-04 16:12:28","244423"
"A3KHKFLJZN00QI","cs_wg_rev_mem_real1","3U5JL4WY5KAWTDXP8NVQ4T3MVV94XE","57","0","SPATULA","4","MARKET","4","0","777",,,,,"0","2018-10-04 16:12:28","244424"
"A15M1ADLSNZGSJ","cs_wg_rev_mem_real1","3IO1LGZLK9YKTZ0VJ3CDLS670D686V","2","0","SCUBA","3","VOLCANO","4","1","3352",,,,,"0","2018-10-04 16:12:28","244425"
"A2S54MTAZWS3IZ","cs_wg_rev_mem_real1","36W0OB37HWFFAKLZOC3UV3S180UHZB","21","0","COOKIE","2","SAUCE","2","0","2566",,,,,"0","2018-10-04 16:12:28","244426"
"A18EYTQN3BKVOR","cs_wg_rev_mem_real1","374TNBHA8BWSINAXBGO5QAB0TTLYQW","30","0","CANCER","4","THUMB","4","1","2982",,,,,"0","2018-10-04 16:12:29","244427"
"A1WTUFTRMUN5IR","cs_wg_rev_mem_real1","3ZDAD0O1T1EGAYCFNOWYC1FEBUPTXY","40","0","ROCKET","4","RABBIT","4","1","3513",,,,,"0","2018-10-04 16:12:29","244428"
"AW4V84DRTH6R2","cs_wg_rev_mem_real1","3F6KKYWMNB24HF2EZS9A9V6U6UUNDS","13","0","SMOKER","4","BANANA","3","0","720",,,,,"0","2018-10-04 16:12:30","244429"
"A3VJIRQGLY6C2H","cs_wg_rev_mem_real1","3T3IWE1XG6OW11B31A16ITJLER5TQ4","1","0","BANQUET","4","AIRBAG","3","0","7312",,,,,"0","2018-10-04 16:12:30","244430"
"A3KHKFLJZN00QI","cs_wg_rev_mem_real1","3U5JL4WY5KAWTDXP8NVQ4T3MVV94XE","58","0","COLUMN","4","COWBOY","3","1","314",,,,,"0","2018-10-04 16:12:30","244431"
"A2GYIYSU8ZXJP3","cs_wg_rev_mem_real1","3UXUOQ9OKEYHGN7FZB1JNXCYLCQ7AX","20","0","SMOKER","4","CANCER","4","1","3600",,,,,"0","2018-10-04 16:12:30","244432"
"A2R1TM9CS8OAL","cs_wg_rev_mem_real1","3QAVNHZ3EM5GV8WH352T62UZGWVLAK","17","0","TURKEY","3","COSTUME","4","1","1881",,,,,"0","2018-10-04 16:12:31","244433"
"AMVBVRHSEZGZY","cs_wg_rev_mem_real1","3IAEQB9FMELU49BSRT0X5EJLZ6WWDQ","29","0","CRICKET","5","JACKET","4","0","1377",,,,,"0","2018-10-04 16:12:31","244434"
"A31X1FW485DON4","cs_wg_rev_mem_real1","3GNA64GUZE5UGZ0D0EJ8FDD7YOI5QO","14","0","JAGUAR","3","SEAGULL","4","1","3617",,,,,"0","2018-10-04 16:12:31","244435"
"A2S54MTAZWS3IZ","cs_wg_rev_mem_real1","36W0OB37HWFFAKLZOC3UV3S180UHZB","22","0","BICYCLE","4","PUMPKIN","5","0","1308",,,,,"0","2018-10-04 16:12:31","244436"
"A3KHKFLJZN00QI","cs_wg_rev_mem_real1","3U5JL4WY5KAWTDXP8NVQ4T3MVV94XE","59","0","BASKET","4","BICYCLE","4","1","327",,,,,"0","2018-10-04 16:12:32","244437"
"A15M1ADLSNZGSJ","cs_wg_rev_mem_real1","3IO1LGZLK9YKTZ0VJ3CDLS670D686V","3","0","ARCADE","3","SCUBA","3","0","1800",,,,,"0","2018-10-04 16:12:32","244438"
"A18EYTQN3BKVOR","cs_wg_rev_mem_real1","374TNBHA8BWSINAXBGO5QAB0TTLYQW","31","0","PERFUME","4","AVOCADO","3","0","1181",,,,,"0","2018-10-04 16:12:32","244439"
"AW4V84DRTH6R2","cs_wg_rev_mem_real1","3F6KKYWMNB24HF2EZS9A9V6U6UUNDS","14","0","LIZARD","4","SPATULA","4","0","772",,,,,"0","2018-10-04 16:12:33","244440"
"A1WTUFTRMUN5IR","cs_wg_rev_mem_real1","3ZDAD0O1T1EGAYCFNOWYC1FEBUPTXY","41","0","RABBIT","4","ADULT","3","0","1978",,,,,"0","2018-10-04 16:12:33","244441"
"A8DRISONUZB1M","cs_wg_rev_mem_real1","35LDD5557A56D3NOF8GX0TCKLDEMK1","5","0","BLANKET","5","VOLCANO","4","0","4709",,,,,"0","2018-10-04 16:12:33","244442"
"A3KHKFLJZN00QI","cs_wg_rev_mem_real1","3U5JL4WY5KAWTDXP8NVQ4T3MVV94XE","60","0","COWBOY","3","BICYCLE","4","1","349",,,,,"0","2018-10-04 16:12:34","244443"
"A2R1TM9CS8OAL","cs_wg_rev_mem_real1","3QAVNHZ3EM5GV8WH352T62UZGWVLAK","18","0","BANANA","3","TURKEY","3","1","1259",,,,,"0","2018-10-04 16:12:34","244444"
"AMVBVRHSEZGZY","cs_wg_rev_mem_real1","3IAEQB9FMELU49BSRT0X5EJLZ6WWDQ","30","0","BICYCLE","4","BLANKET","5","1","1396",,,,,"0","2018-10-04 16:12:34","244445"
"AW4V84DRTH6R2","cs_wg_rev_mem_real1","3F6KKYWMNB24HF2EZS9A9V6U6UUNDS","15","0","ADULT","3","BANANA","3","0","726",,,,,"0","2018-10-04 16:12:35","244446"
"A15M1ADLSNZGSJ","cs_wg_rev_mem_real1","3IO1LGZLK9YKTZ0VJ3CDLS670D686V","4","0","ARCADE","3","VULTURE","4","1","1226",,,,,"0","2018-10-04 16:12:35","244447"
"A3KHKFLJZN00QI","cs_wg_rev_mem_real1","3U5JL4WY5KAWTDXP8NVQ4T3MVV94XE","61","0","JACKET","4","COWBOY","3","0","292",,,,,"0","2018-10-04 16:12:35","244448"
"A1WTUFTRMUN5IR","cs_wg_rev_mem_real1","3ZDAD0O1T1EGAYCFNOWYC1FEBUPTXY","42","0","GROUND","4","BLANKET","5","1","1361",,,,,"0","2018-10-04 16:12:36","244449"
"A31X1FW485DON4","cs_wg_rev_mem_real1","3GNA64GUZE5UGZ0D0EJ8FDD7YOI5QO","15","0","SEAGULL","4","COMPANY","4","1","3040",,,,,"0","2018-10-04 16:12:36","244450"
"A2GYIYSU8ZXJP3","cs_wg_rev_mem_real1","3UXUOQ9OKEYHGN7FZB1JNXCYLCQ7AX","21","0","BASKET","4","COOKIE","2","0","3051",,,,,"0","2018-10-04 16:12:36","244451"
"A2RT2DT17HMQ2M","cs_wg_rev_mem_real1","33FBRBDW6O099G9WTUPG7SYHWZHC8R","2","0","SEAGULL","4","COWBOY","3","1","18684",,,,,"0","2018-10-04 16:12:36","244452"
"A8DRISONUZB1M","cs_wg_rev_mem_real1","35LDD5557A56D3NOF8GX0TCKLDEMK1","6","0","BLANKET","5","SCUBA","3","0","1567",,,,,"0","2018-10-04 16:12:37","244453"
"A3KHKFLJZN00QI","cs_wg_rev_mem_real1","3U5JL4WY5KAWTDXP8NVQ4T3MVV94XE","62","0","WIZARD","4","COWBOY","3","0","356",,,,,"0","2018-10-04 16:12:37","244454"
"AW4V84DRTH6R2","cs_wg_rev_mem_real1","3F6KKYWMNB24HF2EZS9A9V6U6UUNDS","16","0","COSTUME","4","GROUND","4","0","658",,,,,"0","2018-10-04 16:12:37","244455"
"A2MK7JYJLKWSIH","cs_wg_rev_mem_real1","3IXEICO792K3RJSJM1N8CO2UEQR6TI","23","0","PERFUME","4","AIRBAG","3","0","12228",,,,,"0","2018-10-04 16:12:38","244456"
"A1WTUFTRMUN5IR","cs_wg_rev_mem_real1","3ZDAD0O1T1EGAYCFNOWYC1FEBUPTXY","43","0","LIZARD","4","CRICKET","5","1","1419",,,,,"0","2018-10-04 16:12:39","244457"
"A3KHKFLJZN00QI","cs_wg_rev_mem_real1","3U5JL4WY5KAWTDXP8NVQ4T3MVV94XE","63","0","JACKET","4","SKUNK","4","0","326",,,,,"0","2018-10-04 16:12:39","244458"
"A18EYTQN3BKVOR","cs_wg_rev_mem_real1","374TNBHA8BWSINAXBGO5QAB0TTLYQW","32","0","PICTURE","4","PERFUME","4","1","4054",,,,,"0","2018-10-04 16:12:39","244459"
"A15M1ADLSNZGSJ","cs_wg_rev_mem_real1","3IO1LGZLK9YKTZ0VJ3CDLS670D686V","5","0","PUMPKIN","5","BUCKET","4","1","1503",,,,,"0","2018-10-04 16:12:39","244460"
"A31X1FW485DON4","cs_wg_rev_mem_real1","3GNA64GUZE5UGZ0D0EJ8FDD7YOI5QO","16","0","SAUCE","2","WHISKER","5","1","1580",,,,,"0","2018-10-04 16:12:39","244461"
"AMVBVRHSEZGZY","cs_wg_rev_mem_real1","3IAEQB9FMELU49BSRT0X5EJLZ6WWDQ","31","0","SQUARE","3","ANKLE","3","1","2645",,,,,"0","2018-10-04 16:12:39","244462"
"AW4V84DRTH6R2","cs_wg_rev_mem_real1","3F6KKYWMNB24HF2EZS9A9V6U6UUNDS","17","0","JACKET","4","PICKLE","4","0","475",,,,,"0","2018-10-04 16:12:39","244463"
"A2GYIYSU8ZXJP3","cs_wg_rev_mem_real1","3UXUOQ9OKEYHGN7FZB1JNXCYLCQ7AX","22","0","CANCER","4","VULTURE","4","1","1952",,,,,"0","2018-10-04 16:12:40","244464"
"A2S54MTAZWS3IZ","cs_wg_rev_mem_real1","36W0OB37HWFFAKLZOC3UV3S180UHZB","23","0","PALACE","3","ACROBAT","4","1","6526",,,,,"0","2018-10-04 16:12:40","244465"
"A3KHKFLJZN00QI","cs_wg_rev_mem_real1","3U5JL4WY5KAWTDXP8NVQ4T3MVV94XE","64","0","BANANA","3","MARKET","4","1","187",,,,,"0","2018-10-04 16:12:40","244466"
"A3VJIRQGLY6C2H","cs_wg_rev_mem_real1","3T3IWE1XG6OW11B31A16ITJLER5TQ4","2","0","GARBAGE","4","PICKLE","4","1","8193",,,,,"0","2018-10-04 16:12:40","244467"
"A3KHKFLJZN00QI","cs_wg_rev_mem_real1","3U5JL4WY5KAWTDXP8NVQ4T3MVV94XE","65","0","MOUSE","2","COLUMN","4","1","268",,,,,"0","2018-10-04 16:12:42","244468"
"AW4V84DRTH6R2","cs_wg_rev_mem_real1","3F6KKYWMNB24HF2EZS9A9V6U6UUNDS","18","0","PEBBLE","4","PICKLE","4","0","572",,,,,"0","2018-10-04 16:12:42","244469"
"A18EYTQN3BKVOR","cs_wg_rev_mem_real1","374TNBHA8BWSINAXBGO5QAB0TTLYQW","33","0","CANCER","4","BLANKET","5","1","1228",,,,,"0","2018-10-04 16:12:42","244470"
"A2MK7JYJLKWSIH","cs_wg_rev_mem_real1","3IXEICO792K3RJSJM1N8CO2UEQR6TI","24","0","AIRBAG","3","PERFUME","4","1","2743",,,,,"0","2018-10-04 16:12:42","244471"
"A1WTUFTRMUN5IR","cs_wg_rev_mem_real1","3ZDAD0O1T1EGAYCFNOWYC1FEBUPTXY","44","0","ADULT","3","COLUMN","4","1","1784",,,,,"0","2018-10-04 16:12:42","244472"
"A2R1TM9CS8OAL","cs_wg_rev_mem_real1","3QAVNHZ3EM5GV8WH352T62UZGWVLAK","19","0","SEAGULL","4","PELICAN","4","1","6083",,,,,"0","2018-10-04 16:12:42","244473"
"AMVBVRHSEZGZY","cs_wg_rev_mem_real1","3IAEQB9FMELU49BSRT0X5EJLZ6WWDQ","32","0","JACKET","4","ANKLE","3","0","1562",,,,,"0","2018-10-04 16:12:43","244474"
"A3KHKFLJZN00QI","cs_wg_rev_mem_real1","3U5JL4WY5KAWTDXP8NVQ4T3MVV94XE","66","0","MARKET","4","BASKET","4","1","338",,,,,"0","2018-10-04 16:12:43","244475"
"AW4V84DRTH6R2","cs_wg_rev_mem_real1","3F6KKYWMNB24HF2EZS9A9V6U6UUNDS","19","0","PALACE","3","ADULT","3","0","499",,,,,"0","2018-10-04 16:12:43","244476"
"A31X1FW485DON4","cs_wg_rev_mem_real1","3GNA64GUZE5UGZ0D0EJ8FDD7YOI5QO","17","0","PICKLE","4","JAGUAR","3","0","4161",,,,,"0","2018-10-04 16:12:45","244477"
"A3KHKFLJZN00QI","cs_wg_rev_mem_real1","3U5JL4WY5KAWTDXP8NVQ4T3MVV94XE","67","0","WIZARD","4","MARKET","4","1","216",,,,,"0","2018-10-04 16:12:45","244478"
"A1WTUFTRMUN5IR","cs_wg_rev_mem_real1","3ZDAD0O1T1EGAYCFNOWYC1FEBUPTXY","45","0","ADULT","3","BLANKET","5","1","1192",,,,,"0","2018-10-04 16:12:45","244479"
"AMVBVRHSEZGZY","cs_wg_rev_mem_real1","3IAEQB9FMELU49BSRT0X5EJLZ6WWDQ","33","0","SQUARE","3","BLANKET","5","1","1061",,,,,"0","2018-10-04 16:12:45","244480"
"A18EYTQN3BKVOR","cs_wg_rev_mem_real1","374TNBHA8BWSINAXBGO5QAB0TTLYQW","34","0","CANCER","4","COLUMN","4","1","1359",,,,,"0","2018-10-04 16:12:46","244481"
"A15M1ADLSNZGSJ","cs_wg_rev_mem_real1","3IO1LGZLK9YKTZ0VJ3CDLS670D686V","6","0","BUCKET","4","SMOKER","4","0","5192",,,,,"0","2018-10-04 16:12:46","244482"
"AW4V84DRTH6R2","cs_wg_rev_mem_real1","3F6KKYWMNB24HF2EZS9A9V6U6UUNDS","20","0","BLANKET","5","GROUND","4","0","626",,,,,"0","2018-10-04 16:12:46","244483"
"A2GYIYSU8ZXJP3","cs_wg_rev_mem_real1","3UXUOQ9OKEYHGN7FZB1JNXCYLCQ7AX","23","0","CANCER","4","SQUARE","3","0","3637",,,,,"0","2018-10-04 16:12:46","244484"
"A2MK7JYJLKWSIH","cs_wg_rev_mem_real1","3IXEICO792K3RJSJM1N8CO2UEQR6TI","25","0","MOUTH","3","NAPKIN","4","1","2102",,,,,"0","2018-10-04 16:12:46","244485"
"A3KHKFLJZN00QI","cs_wg_rev_mem_real1","3U5JL4WY5KAWTDXP8NVQ4T3MVV94XE","68","0","SPATULA","4","MOUSE","2","0","139",,,,,"0","2018-10-04 16:12:46","244486"
"A2R1TM9CS8OAL","cs_wg_rev_mem_real1","3QAVNHZ3EM5GV8WH352T62UZGWVLAK","20","0","TURKEY","3","ISLAND","4","0","2014",,,,,"0","2018-10-04 16:12:47","244487"
"A8DRISONUZB1M","cs_wg_rev_mem_real1","35LDD5557A56D3NOF8GX0TCKLDEMK1","7","0","LETTUCE","4","PELICAN","4","0","8783",,,,,"0","2018-10-04 16:12:48","244488"
"A3KHKFLJZN00QI","cs_wg_rev_mem_real1","3U5JL4WY5KAWTDXP8NVQ4T3MVV94XE","69","0","MARKET","4","WIZARD","4","0","171",,,,,"0","2018-10-04 16:12:48","244489"
"A1WTUFTRMUN5IR","cs_wg_rev_mem_real1","3ZDAD0O1T1EGAYCFNOWYC1FEBUPTXY","46","0","BLANKET","5","BANANA","3","0","1176",,,,,"0","2018-10-04 16:12:48","244490"
"AW4V84DRTH6R2","cs_wg_rev_mem_real1","3F6KKYWMNB24HF2EZS9A9V6U6UUNDS","21","0","ADULT","3","SMOKER","4","0","678",,,,,"0","2018-10-04 16:12:48","244491"
"A2RT2DT17HMQ2M","cs_wg_rev_mem_real1","33FBRBDW6O099G9WTUPG7SYHWZHC8R","3","0","CANCER","4","BAKER","3","0","6831",,,,,"0","2018-10-04 16:12:48","244492"
"AMVBVRHSEZGZY","cs_wg_rev_mem_real1","3IAEQB9FMELU49BSRT0X5EJLZ6WWDQ","34","0","THUMB","4","ADULT","3","0","1358",,,,,"0","2018-10-04 16:12:49","244493"
"A3VJIRQGLY6C2H","cs_wg_rev_mem_real1","3T3IWE1XG6OW11B31A16ITJLER5TQ4","3","0","BANQUET","4","PEBBLE","4","1","5672",,,,,"0","2018-10-04 16:12:49","244494"
"A31X1FW485DON4","cs_wg_rev_mem_real1","3GNA64GUZE5UGZ0D0EJ8FDD7YOI5QO","18","0","BAKER","3","SAUCE","2","0","3305",,,,,"0","2018-10-04 16:12:49","244495"
"A2S54MTAZWS3IZ","cs_wg_rev_mem_real1","36W0OB37HWFFAKLZOC3UV3S180UHZB","24","0","MOUTH","3","LIZARD","4","1","7781",,,,,"0","2018-10-04 16:12:50","244496"
"A3KHKFLJZN00QI","cs_wg_rev_mem_real1","3U5JL4WY5KAWTDXP8NVQ4T3MVV94XE","70","0","SPATULA","4","WIZARD","4","1","419",,,,,"0","2018-10-04 16:12:50","244497"
"A2MK7JYJLKWSIH","cs_wg_rev_mem_real1","3IXEICO792K3RJSJM1N8CO2UEQR6TI","26","0","GROUND","4","LETTUCE","4","0","2237",,,,,"0","2018-10-04 16:12:50","244498"
"A1WTUFTRMUN5IR","cs_wg_rev_mem_real1","3ZDAD0O1T1EGAYCFNOWYC1FEBUPTXY","47","0","GROUND","4","CRICKET","5","1","1189",,,,,"0","2018-10-04 16:12:50","244499"
"A15M1ADLSNZGSJ","cs_wg_rev_mem_real1","3IO1LGZLK9YKTZ0VJ3CDLS670D686V","7","0","BUCKET","4","POTATO","3","0","2306",,,,,"0","2018-10-04 16:12:50","244500"
"AW4V84DRTH6R2","cs_wg_rev_mem_real1","3F6KKYWMNB24HF2EZS9A9V6U6UUNDS","22","0","BANANA","3","SMOKER","4","0","581",,,,,"0","2018-10-04 16:12:50","244501"
"A8DRISONUZB1M","cs_wg_rev_mem_real1","35LDD5557A56D3NOF8GX0TCKLDEMK1","8","0","BLANKET","5","PELICAN","4","0","1074",,,,,"0","2018-10-04 16:12:50","244502"
"A18EYTQN3BKVOR","cs_wg_rev_mem_real1","374TNBHA8BWSINAXBGO5QAB0TTLYQW","35","0","SQUARE","3","PALACE","3","1","3181",,,,,"0","2018-10-04 16:12:51","244503"
"A3KHKFLJZN00QI","cs_wg_rev_mem_real1","3U5JL4WY5KAWTDXP8NVQ4T3MVV94XE","71","0","BASKET","4","COLUMN","4","1","331",,,,,"0","2018-10-04 16:12:52","244504"
"A1WTUFTRMUN5IR","cs_wg_rev_mem_real1","3ZDAD0O1T1EGAYCFNOWYC1FEBUPTXY","48","0","BLANKET","5","COLUMN","4","0","858",,,,,"0","2018-10-04 16:12:52","244505"
"AW4V84DRTH6R2","cs_wg_rev_mem_real1","3F6KKYWMNB24HF2EZS9A9V6U6UUNDS","23","0","GROUND","4","SPATULA","4","0","727",,,,,"0","2018-10-04 16:12:53","244506"
"AMVBVRHSEZGZY","cs_wg_rev_mem_real1","3IAEQB9FMELU49BSRT0X5EJLZ6WWDQ","35","0","ANKLE","3","BICYCLE","4","1","2230",,,,,"0","2018-10-04 16:12:53","244507"
"A3KHKFLJZN00QI","cs_wg_rev_mem_real1","3U5JL4WY5KAWTDXP8NVQ4T3MVV94XE","72","0","BAKER","3","WIZARD","4","0","262",,,,,"0","2018-10-04 16:12:53","244508"
"A2R1TM9CS8OAL","cs_wg_rev_mem_real1","3QAVNHZ3EM5GV8WH352T62UZGWVLAK","21","0","COMPANY","4","COSTUME","4","0","3604",,,,,"0","2018-10-04 16:12:53","244509"
"A31X1FW485DON4","cs_wg_rev_mem_real1","3GNA64GUZE5UGZ0D0EJ8FDD7YOI5QO","19","0","COLUMN","4","SEAGULL","4","0","2713",,,,,"0","2018-10-04 16:12:54","244510"
"A15M1ADLSNZGSJ","cs_wg_rev_mem_real1","3IO1LGZLK9YKTZ0VJ3CDLS670D686V","8","0","VOLCANO","4","ARCADE","3","0","2048",,,,,"0","2018-10-04 16:12:54","244511"
"A2MK7JYJLKWSIH","cs_wg_rev_mem_real1","3IXEICO792K3RJSJM1N8CO2UEQR6TI","27","0","COWBOY","3","BUCKET","4","1","2406",,,,,"0","2018-10-04 16:12:54","244512"
"A3VJIRQGLY6C2H","cs_wg_rev_mem_real1","3T3IWE1XG6OW11B31A16ITJLER5TQ4","4","0","WHISKER","5","AIRBAG","3","0","3681",,,,,"0","2018-10-04 16:12:54","244513"
"A3KHKFLJZN00QI","cs_wg_rev_mem_real1","3U5JL4WY5KAWTDXP8NVQ4T3MVV94XE","73","0","MARKET","4","SPATULA","4","0","287",,,,,"0","2018-10-04 16:12:55","244514"
"AW4V84DRTH6R2","cs_wg_rev_mem_real1","3F6KKYWMNB24HF2EZS9A9V6U6UUNDS","24","0","BLANKET","5","PALACE","3","0","548",,,,,"0","2018-10-04 16:12:55","244515"
"A1WTUFTRMUN5IR","cs_wg_rev_mem_real1","3ZDAD0O1T1EGAYCFNOWYC1FEBUPTXY","49","0","RABBIT","4","BANANA","3","0","1275",,,,,"0","2018-10-04 16:12:55","244516"
"A8DRISONUZB1M","cs_wg_rev_mem_real1","35LDD5557A56D3NOF8GX0TCKLDEMK1","9","0","SCUBA","3","VOLCANO","4","1","3616",,,,,"0","2018-10-04 16:12:56","244517"
"A18EYTQN3BKVOR","cs_wg_rev_mem_real1","374TNBHA8BWSINAXBGO5QAB0TTLYQW","36","0","PALACE","3","AVOCADO","3","1","2689",,,,,"0","2018-10-04 16:12:56","244518"
"A3KHKFLJZN00QI","cs_wg_rev_mem_real1","3U5JL4WY5KAWTDXP8NVQ4T3MVV94XE","74","0","JACKET","4","BASKET","4","0","286",,,,,"0","2018-10-04 16:12:56","244519"
"AMVBVRHSEZGZY","cs_wg_rev_mem_real1","3IAEQB9FMELU49BSRT0X5EJLZ6WWDQ","36","0","SQUARE","3","BICYCLE","4","1","2469",,,,,"0","2018-10-04 16:12:57","244520"
"A15M1ADLSNZGSJ","cs_wg_rev_mem_real1","3IO1LGZLK9YKTZ0VJ3CDLS670D686V","9","0","SCUBA","3","CRICKET","5","1","1354",,,,,"0","2018-10-04 16:12:57","244521"
"AW4V84DRTH6R2","cs_wg_rev_mem_real1","3F6KKYWMNB24HF2EZS9A9V6U6UUNDS","25","0","ADULT","3","PALACE","3","0","1047",,,,,"0","2018-10-04 16:12:57","244522"
"A2GYIYSU8ZXJP3","cs_wg_rev_mem_real1","3UXUOQ9OKEYHGN7FZB1JNXCYLCQ7AX","24","0","SPATULA","4","SQUARE","3","0","7964",,,,,"0","2018-10-04 16:12:58","244523"
"A2MK7JYJLKWSIH","cs_wg_rev_mem_real1","3IXEICO792K3RJSJM1N8CO2UEQR6TI","28","0","NAPKIN","4","CHICKEN","5","1","1832",,,,,"0","2018-10-04 16:12:58","244524"
"A3KHKFLJZN00QI","cs_wg_rev_mem_real1","3U5JL4WY5KAWTDXP8NVQ4T3MVV94XE","75","0","SKUNK","4","BASKET","4","0","329",,,,,"0","2018-10-04 16:12:58","244525"
"A2RT2DT17HMQ2M","cs_wg_rev_mem_real1","33FBRBDW6O099G9WTUPG7SYHWZHC8R","4","0","SEAGULL","4","HOUSE","2","0","7455",,,,,"0","2018-10-04 16:12:59","244526"
"A18EYTQN3BKVOR","cs_wg_rev_mem_real1","374TNBHA8BWSINAXBGO5QAB0TTLYQW","37","0","COLUMN","4","BLANKET","5","1","1308",,,,,"0","2018-10-04 16:13:00","244527"
"A3KHKFLJZN00QI","cs_wg_rev_mem_real1","3U5JL4WY5KAWTDXP8NVQ4T3MVV94XE","76","0","WIZARD","4","MOUSE","2","0","262",,,,,"0","2018-10-04 16:13:00","244528"
"AW4V84DRTH6R2","cs_wg_rev_mem_real1","3F6KKYWMNB24HF2EZS9A9V6U6UUNDS","26","0","PICKLE","4","COSTUME","4","0","561",,,,,"0","2018-10-04 16:13:00","244529"
"A31X1FW485DON4","cs_wg_rev_mem_real1","3GNA64GUZE5UGZ0D0EJ8FDD7YOI5QO","20","0","PICKLE","4","SEAGULL","4","0","4684",,,,,"0","2018-10-04 16:13:00","244530"
"A2RL6W36Z9MWJZ","cs_wg_rev_mem_real1","304SM51WA358IVWZTSZQDZS0Q8PSB1","0","0","ANKLE","3","PUMPKIN","5","1","7082",,,,,"0","2018-10-04 16:13:00","244531"
"A1WTUFTRMUN5IR","cs_wg_rev_mem_real1","3ZDAD0O1T1EGAYCFNOWYC1FEBUPTXY","50","0","GROUND","4","ROCKET","4","0","3381",,,,,"0","2018-10-04 16:13:00","244532"
"A2R1TM9CS8OAL","cs_wg_rev_mem_real1","3QAVNHZ3EM5GV8WH352T62UZGWVLAK","22","0","MARKET","4","SEAGULL","4","1","4922",,,,,"0","2018-10-04 16:13:01","244533"
"A2MK7JYJLKWSIH","cs_wg_rev_mem_real1","3IXEICO792K3RJSJM1N8CO2UEQR6TI","29","0","BAMBOO","3","PERFUME","4","1","1483",,,,,"0","2018-10-04 16:13:01","244534"
"A15M1ADLSNZGSJ","cs_wg_rev_mem_real1","3IO1LGZLK9YKTZ0VJ3CDLS670D686V","10","0","AVOCADO","3","VULTURE","4","1","1768",,,,,"0","2018-10-04 16:13:01","244535"
"AMVBVRHSEZGZY","cs_wg_rev_mem_real1","3IAEQB9FMELU49BSRT0X5EJLZ6WWDQ","37","0","JACKET","4","COLUMN","4","1","1985",,,,,"0","2018-10-04 16:13:01","244536"
"A2S54MTAZWS3IZ","cs_wg_rev_mem_real1","36W0OB37HWFFAKLZOC3UV3S180UHZB","25","0","ACROBAT","4","BICYCLE","4","0","9445",,,,,"0","2018-10-04 16:13:01","244537"
"A3KHKFLJZN00QI","cs_wg_rev_mem_real1","3U5JL4WY5KAWTDXP8NVQ4T3MVV94XE","77","0","WIZARD","4","COLUMN","4","0","266",,,,,"0","2018-10-04 16:13:01","244538"
"A3VJIRQGLY6C2H","cs_wg_rev_mem_real1","3T3IWE1XG6OW11B31A16ITJLER5TQ4","5","0","THUMB","4","PICKLE","4","0","5154",,,,,"0","2018-10-04 16:13:01","244539"
"A8NR0933V4TAT","cs_wg_rev_mem_real1","37WLF8U1WPR4O02WSS9GBXFYVD06KC","0","0","SKUNK","4","ANKLE","3","0","11620",,,,,"0","2018-10-04 16:13:01","244540"
"AW4V84DRTH6R2","cs_wg_rev_mem_real1","3F6KKYWMNB24HF2EZS9A9V6U6UUNDS","27","0","ADULT","3","JACKET","4","0","481",,,,,"0","2018-10-04 16:13:02","244541"
"A3KHKFLJZN00QI","cs_wg_rev_mem_real1","3U5JL4WY5KAWTDXP8NVQ4T3MVV94XE","78","0","COWBOY","3","JACKET","4","1","299",,,,,"0","2018-10-04 16:13:03","244542"
"A18EYTQN3BKVOR","cs_wg_rev_mem_real1","374TNBHA8BWSINAXBGO5QAB0TTLYQW","38","0","AVOCADO","3","SQUARE","3","1","1137",,,,,"0","2018-10-04 16:13:03","244543"
"A2GYIYSU8ZXJP3","cs_wg_rev_mem_real1","3UXUOQ9OKEYHGN7FZB1JNXCYLCQ7AX","25","0","MOUSE","2","BASKET","4","1","3345",,,,,"0","2018-10-04 16:13:04","244544"
"A15M1ADLSNZGSJ","cs_wg_rev_mem_real1","3IO1LGZLK9YKTZ0VJ3CDLS670D686V","11","0","AVOCADO","3","SCUBA","3","0","1039",,,,,"0","2018-10-04 16:13:04","244545"
"A2R1TM9CS8OAL","cs_wg_rev_mem_real1","3QAVNHZ3EM5GV8WH352T62UZGWVLAK","23","0","BANANA","3","NAPKIN","4","1","905",,,,,"0","2018-10-04 16:13:04","244546"
"AW4V84DRTH6R2","cs_wg_rev_mem_real1","3F6KKYWMNB24HF2EZS9A9V6U6UUNDS","28","0","BANANA","3","PALACE","3","0","379",,,,,"0","2018-10-04 16:13:04","244547"
"A2MK7JYJLKWSIH","cs_wg_rev_mem_real1","3IXEICO792K3RJSJM1N8CO2UEQR6TI","30","0","WHISKER","5","AIRBAG","3","0","1909",,,,,"0","2018-10-04 16:13:05","244548"
"A3KHKFLJZN00QI","cs_wg_rev_mem_real1","3U5JL4WY5KAWTDXP8NVQ4T3MVV94XE","79","0","BICYCLE","4","SPATULA","4","0","311",,,,,"0","2018-10-04 16:13:05","244549"
"A1M0RY7GLI1ZYX","cs_wg_rev_mem_real1","3K2755HG5S4STNPX14QX1QXL438FDD","0","0","BLANKET","5","COWBOY","3","0","18437",,,,,"0","2018-10-04 16:13:05","244550"
"AMVBVRHSEZGZY","cs_wg_rev_mem_real1","3IAEQB9FMELU49BSRT0X5EJLZ6WWDQ","38","0","COLUMN","4","ANKLE","3","0","1615",,,,,"0","2018-10-04 16:13:05","244551"
"AW4V84DRTH6R2","cs_wg_rev_mem_real1","3F6KKYWMNB24HF2EZS9A9V6U6UUNDS","29","0","PALACE","3","PEBBLE","4","0","340",,,,,"0","2018-10-04 16:13:06","244552"
"A31X1FW485DON4","cs_wg_rev_mem_real1","3GNA64GUZE5UGZ0D0EJ8FDD7YOI5QO","21","0","BAKER","3","POTATO","3","0","4658",,,,,"0","2018-10-04 16:13:06","244553"
"A1WTUFTRMUN5IR","cs_wg_rev_mem_real1","3ZDAD0O1T1EGAYCFNOWYC1FEBUPTXY","51","0","PENGUIN","4","LIZARD","4","0","4202",,,,,"0","2018-10-04 16:13:06","244554"
"A3KHKFLJZN00QI","cs_wg_rev_mem_real1","3U5JL4WY5KAWTDXP8NVQ4T3MVV94XE","80","0","BICYCLE","4","COWBOY","3","0","337",,,,,"0","2018-10-04 16:13:06","244555"
"A2S54MTAZWS3IZ","cs_wg_rev_mem_real1","36W0OB37HWFFAKLZOC3UV3S180UHZB","26","0","MOUTH","3","BLOUSE","3","0","3764",,,,,"0","2018-10-04 16:13:07","244556"
"A15M1ADLSNZGSJ","cs_wg_rev_mem_real1","3IO1LGZLK9YKTZ0VJ3CDLS670D686V","12","0","POTATO","3","HOUSE","2","0","1657",,,,,"0","2018-10-04 16:13:07","244557"
"AMVBVRHSEZGZY","cs_wg_rev_mem_real1","3IAEQB9FMELU49BSRT0X5EJLZ6WWDQ","39","0","LETTUCE","4","ADULT","3","0","677",,,,,"0","2018-10-04 16:13:07","244558"
"A2MK7JYJLKWSIH","cs_wg_rev_mem_real1","3IXEICO792K3RJSJM1N8CO2UEQR6TI","31","0","CHICKEN","5","VOLCANO","4","0","1584",,,,,"0","2018-10-04 16:13:08","244559"
"AW4V84DRTH6R2","cs_wg_rev_mem_real1","3F6KKYWMNB24HF2EZS9A9V6U6UUNDS","30","0","SPATULA","4","BLANKET","5","0","398",,,,,"0","2018-10-04 16:13:08","244560"
"A8DRISONUZB1M","cs_wg_rev_mem_real1","35LDD5557A56D3NOF8GX0TCKLDEMK1","10","0","SCUBA","3","SQUARE","3","0","9355",,,,,"0","2018-10-04 16:13:08","244561"
"A18EYTQN3BKVOR","cs_wg_rev_mem_real1","374TNBHA8BWSINAXBGO5QAB0TTLYQW","39","0","PICTURE","4","COLUMN","4","1","2816",,,,,"0","2018-10-04 16:13:08","244562"
"A3KHKFLJZN00QI","cs_wg_rev_mem_real1","3U5JL4WY5KAWTDXP8NVQ4T3MVV94XE","81","0","BAKER","3","MOUSE","2","0","393",,,,,"0","2018-10-04 16:13:08","244563"
"A31X1FW485DON4","cs_wg_rev_mem_real1","3GNA64GUZE5UGZ0D0EJ8FDD7YOI5QO","22","0","COMPANY","4","POTATO","3","0","1449",,,,,"0","2018-10-04 16:13:09","244564"
"A2FZQWPIQ4I9KU","cs_wg_rev_mem_real1","39GHHAVOMFSVYTS0RJGPDKV7KXU4JQ","0","0","DONKEY","3","CHICKEN","5","1","8666",,,,,"0","2018-10-04 16:13:09","244565"
"A2GYIYSU8ZXJP3","cs_wg_rev_mem_real1","3UXUOQ9OKEYHGN7FZB1JNXCYLCQ7AX","26","0","SPATULA","4","BUCKET","4","1","3531",,,,,"0","2018-10-04 16:13:09","244566"
"A2RL6W36Z9MWJZ","cs_wg_rev_mem_real1","304SM51WA358IVWZTSZQDZS0Q8PSB1","1","0","CANCER","4","BAKER","3","0","7595",,,,,"0","2018-10-04 16:13:10","244567"
"AW4V84DRTH6R2","cs_wg_rev_mem_real1","3F6KKYWMNB24HF2EZS9A9V6U6UUNDS","31","0","BANANA","3","SPATULA","4","0","465",,,,,"0","2018-10-04 16:13:10","244568"
"A3KHKFLJZN00QI","cs_wg_rev_mem_real1","3U5JL4WY5KAWTDXP8NVQ4T3MVV94XE","82","0","BASKET","4","BAKER","3","1","311",,,,,"0","2018-10-04 16:13:10","244569"
"AMVBVRHSEZGZY","cs_wg_rev_mem_real1","3IAEQB9FMELU49BSRT0X5EJLZ6WWDQ","40","0","BLANKET","5","COLUMN","4","0","1171",,,,,"0","2018-10-04 16:13:10","244570"
"A2S54MTAZWS3IZ","cs_wg_rev_mem_real1","36W0OB37HWFFAKLZOC3UV3S180UHZB","27","0","ACROBAT","4","BLOUSE","3","0","1804",,,,,"0","2018-10-04 16:13:11","244571"
"A15M1ADLSNZGSJ","cs_wg_rev_mem_real1","3IO1LGZLK9YKTZ0VJ3CDLS670D686V","13","0","SQUID","3","SCUBA","3","0","1679",,,,,"0","2018-10-04 16:13:11","244572"
"A2MK7JYJLKWSIH","cs_wg_rev_mem_real1","3IXEICO792K3RJSJM1N8CO2UEQR6TI","32","0","CHICKEN","5","GROUND","4","0","1236",,,,,"0","2018-10-04 16:13:11","244573"
"A3KHKFLJZN00QI","cs_wg_rev_mem_real1","3U5JL4WY5KAWTDXP8NVQ4T3MVV94XE","83","0","COLUMN","4","SPATULA","4","0","262",,,,,"0","2018-10-04 16:13:11","244574"
"A2R1TM9CS8OAL","cs_wg_rev_mem_real1","3QAVNHZ3EM5GV8WH352T62UZGWVLAK","24","0","SEAGULL","4","MARKET","4","1","5199",,,,,"0","2018-10-04 16:13:11","244575"
"A31X1FW485DON4","cs_wg_rev_mem_real1","3GNA64GUZE5UGZ0D0EJ8FDD7YOI5QO","23","0","BICYCLE","4","SEAGULL","4","0","1957",,,,,"0","2018-10-04 16:13:12","244576"
"A3VJIRQGLY6C2H","cs_wg_rev_mem_real1","3T3IWE1XG6OW11B31A16ITJLER5TQ4","6","0","AIRBAG","3","BANQUET","4","1","9041",,,,,"0","2018-10-04 16:13:12","244577"
"AW4V84DRTH6R2","cs_wg_rev_mem_real1","3F6KKYWMNB24HF2EZS9A9V6U6UUNDS","32","0","SMOKER","4","PEBBLE","4","0","684",,,,,"0","2018-10-04 16:13:12","244578"
"A18EYTQN3BKVOR","cs_wg_rev_mem_real1","374TNBHA8BWSINAXBGO5QAB0TTLYQW","40","0","BLANKET","5","WHISKER","5","1","1697",,,,,"0","2018-10-04 16:13:13","244579"
"A3KHKFLJZN00QI","cs_wg_rev_mem_real1","3U5JL4WY5KAWTDXP8NVQ4T3MVV94XE","84","0","WIZARD","4","SKUNK","4","0","274",,,,,"0","2018-10-04 16:13:13","244580"
"AMVBVRHSEZGZY","cs_wg_rev_mem_real1","3IAEQB9FMELU49BSRT0X5EJLZ6WWDQ","41","0","SQUARE","3","GARBAGE","4","1","876",,,,,"0","2018-10-04 16:13:13","244581"
"A1WTUFTRMUN5IR","cs_wg_rev_mem_real1","3ZDAD0O1T1EGAYCFNOWYC1FEBUPTXY","52","0","CRICKET","5","COLUMN","4","0","5154",,,,,"0","2018-10-04 16:13:13","244582"
"A2MK7JYJLKWSIH","cs_wg_rev_mem_real1","3IXEICO792K3RJSJM1N8CO2UEQR6TI","33","0","WHISKER","5","COWBOY","3","0","988",,,,,"0","2018-10-04 16:13:14","244583"
"AHXO376ALG8WN","cs_wg_rev_mem_real1","3Z7ISHFUH0WMH9K6L89OIQZ25H28ZL","0","0","NAPKIN","4","VOLCANO","4","0","6755",,,,,"0","2018-10-04 16:13:14","244584"
"AW4V84DRTH6R2","cs_wg_rev_mem_real1","3F6KKYWMNB24HF2EZS9A9V6U6UUNDS","33","0","BLANKET","5","PEBBLE","4","0","486",,,,,"0","2018-10-04 16:13:14","244585"
"A15M1ADLSNZGSJ","cs_wg_rev_mem_real1","3IO1LGZLK9YKTZ0VJ3CDLS670D686V","14","0","POTATO","3","SQUID","3","1","1376",,,,,"0","2018-10-04 16:13:14","244586"
"A1M0RY7GLI1ZYX","cs_wg_rev_mem_real1","3K2755HG5S4STNPX14QX1QXL438FDD","1","0","PENGUIN","4","BUCKET","4","0","7513",,,,,"0","2018-10-04 16:13:15","244587"
"A3KHKFLJZN00QI","cs_wg_rev_mem_real1","3U5JL4WY5KAWTDXP8NVQ4T3MVV94XE","85","0","MARKET","4","COLUMN","4","0","944",,,,,"0","2018-10-04 16:13:15","244588"
"A2GYIYSU8ZXJP3","cs_wg_rev_mem_real1","3UXUOQ9OKEYHGN7FZB1JNXCYLCQ7AX","27","0","ADULT","3","BASKET","4","1","3600",,,,,"0","2018-10-04 16:13:15","244589"
"A1WTUFTRMUN5IR","cs_wg_rev_mem_real1","3ZDAD0O1T1EGAYCFNOWYC1FEBUPTXY","53","0","CRICKET","5","PALACE","3","0","823",,,,,"0","2018-10-04 16:13:16","244590"
"A18EYTQN3BKVOR","cs_wg_rev_mem_real1","374TNBHA8BWSINAXBGO5QAB0TTLYQW","41","0","WHISKER","5","THUMB","4","0","1226",,,,,"0","2018-10-04 16:13:16","244591"
"A2R1TM9CS8OAL","cs_wg_rev_mem_real1","3QAVNHZ3EM5GV8WH352T62UZGWVLAK","25","0","MARKET","4","TURKEY","3","1","1367",,,,,"0","2018-10-04 16:13:16","244592"
"AMVBVRHSEZGZY","cs_wg_rev_mem_real1","3IAEQB9FMELU49BSRT0X5EJLZ6WWDQ","42","0","ADULT","3","LETTUCE","4","1","1368",,,,,"0","2018-10-04 16:13:17","244593"
"A2RL6W36Z9MWJZ","cs_wg_rev_mem_real1","304SM51WA358IVWZTSZQDZS0Q8PSB1","2","0","BAKER","3","PUMPKIN","5","1","3982",,,,,"0","2018-10-04 16:13:17","244594"
"A8NR0933V4TAT","cs_wg_rev_mem_real1","37WLF8U1WPR4O02WSS9GBXFYVD06KC","1","0","PERFUME","4","MARKET","4","0","12519",,,,,"0","2018-10-04 16:13:17","244595"
"AW4V84DRTH6R2","cs_wg_rev_mem_real1","3F6KKYWMNB24HF2EZS9A9V6U6UUNDS","34","0","SMOKER","4","PICKLE","4","0","467",,,,,"0","2018-10-04 16:13:17","244596"
"A2MK7JYJLKWSIH","cs_wg_rev_mem_real1","3IXEICO792K3RJSJM1N8CO2UEQR6TI","34","0","LETTUCE","4","MOUTH","3","0","975",,,,,"0","2018-10-04 16:13:17","244597"
"A15M1ADLSNZGSJ","cs_wg_rev_mem_real1","3IO1LGZLK9YKTZ0VJ3CDLS670D686V","15","0","POTATO","3","PUMPKIN","5","1","1016",,,,,"0","2018-10-04 16:13:17","244598"
"A3KHKFLJZN00QI","cs_wg_rev_mem_real1","3U5JL4WY5KAWTDXP8NVQ4T3MVV94XE","86","0","BANANA","3","WIZARD","4","0","501",,,,,"0","2018-10-04 16:13:17","244599"
"A31X1FW485DON4","cs_wg_rev_mem_real1","3GNA64GUZE5UGZ0D0EJ8FDD7YOI5QO","24","0","COMPANY","4","AVOCADO","3","0","4008",,,,,"0","2018-10-04 16:13:18","244600"
"AWBRC3S78OHJL","cs_wg_rev_mem_real1","3QAVNHZ3EM5GV8WH352T62UZGWWALA","0","0","GROUND","4","FLUTE","3","0","12849",,,,,"0","2018-10-04 16:13:18","244601"
"AW4V84DRTH6R2","cs_wg_rev_mem_real1","3F6KKYWMNB24HF2EZS9A9V6U6UUNDS","35","0","PALACE","3","JACKET","4","0","486",,,,,"0","2018-10-04 16:13:18","244602"
"AHXO376ALG8WN","cs_wg_rev_mem_real1","3Z7ISHFUH0WMH9K6L89OIQZ25H28ZL","1","0","ROCKET","4","GARBAGE","4","1","2331",,,,,"0","2018-10-04 16:13:18","244603"
"A3VHRHTMI4GKRX","cs_wg_rev_mem_real1","31Z0PCVWUKGMVJ6O5BS0I22Q91C7TJ","0","0","BLOUSE","3","JAGUAR","3","1","11588",,,,,"0","2018-10-04 16:13:19","244604"
"A3VJIRQGLY6C2H","cs_wg_rev_mem_real1","3T3IWE1XG6OW11B31A16ITJLER5TQ4","7","0","PUMPKIN","5","RABBIT","4","1","4214",,,,,"0","2018-10-04 16:13:19","244605"
"A3KHKFLJZN00QI","cs_wg_rev_mem_real1","3U5JL4WY5KAWTDXP8NVQ4T3MVV94XE","87","0","JACKET","4","BANANA","3","0","780",,,,,"0","2018-10-04 16:13:19","244606"
"AMVBVRHSEZGZY","cs_wg_rev_mem_real1","3IAEQB9FMELU49BSRT0X5EJLZ6WWDQ","43","0","THUMB","4","BLANKET","5","1","913",,,,,"0","2018-10-04 16:13:19","244607"
"A1WTUFTRMUN5IR","cs_wg_rev_mem_real1","3ZDAD0O1T1EGAYCFNOWYC1FEBUPTXY","54","0","BANANA","3","GROUND","4","1","2320",,,,,"0","2018-10-04 16:13:20","244608"
"A15M1ADLSNZGSJ","cs_wg_rev_mem_real1","3IO1LGZLK9YKTZ0VJ3CDLS670D686V","16","0","CRICKET","5","VOLCANO","4","0","1098",,,,,"0","2018-10-04 16:13:20","244609"
"A2RT2DT17HMQ2M","cs_wg_rev_mem_real1","33FBRBDW6O099G9WTUPG7SYHWZHC8R","5","0","BLOUSE","3","BICYCLE","4","1","18912",,,,,"0","2018-10-04 16:13:20","244610"
"A31X1FW485DON4","cs_wg_rev_mem_real1","3GNA64GUZE5UGZ0D0EJ8FDD7YOI5QO","25","0","WHISKER","5","SEAGULL","4","0","1431",,,,,"0","2018-10-04 16:13:20","244611"
"A2R1TM9CS8OAL","cs_wg_rev_mem_real1","3QAVNHZ3EM5GV8WH352T62UZGWVLAK","26","0","PELICAN","4","BANANA","3","0","1798",,,,,"0","2018-10-04 16:13:21","244612"
"AW4V84DRTH6R2","cs_wg_rev_mem_real1","3F6KKYWMNB24HF2EZS9A9V6U6UUNDS","36","0","COSTUME","4","ADULT","3","0","406",,,,,"0","2018-10-04 16:13:21","244613"
"A3KHKFLJZN00QI","cs_wg_rev_mem_real1","3U5JL4WY5KAWTDXP8NVQ4T3MVV94XE","88","0","MARKET","4","SKUNK","4","0","325",,,,,"0","2018-10-04 16:13:21","244614"
"A2S54MTAZWS3IZ","cs_wg_rev_mem_real1","36W0OB37HWFFAKLZOC3UV3S180UHZB","28","0","JACKET","4","BAKER","3","0","7908",,,,,"0","2018-10-04 16:13:21","244615"
"A2MK7JYJLKWSIH","cs_wg_rev_mem_real1","3IXEICO792K3RJSJM1N8CO2UEQR6TI","35","0","NAPKIN","4","BUCKET","4","0","2326",,,,,"0","2018-10-04 16:13:21","244616"
"A2FZQWPIQ4I9KU","cs_wg_rev_mem_real1","39GHHAVOMFSVYTS0RJGPDKV7KXU4JQ","1","0","BAMBOO","3","MOUTH","3","0","9874",,,,,"0","2018-10-04 16:13:21","244617"
"A1M0RY7GLI1ZYX","cs_wg_rev_mem_real1","3K2755HG5S4STNPX14QX1QXL438FDD","2","0","BUCKET","4","BLANKET","5","1","4289",,,,,"0","2018-10-04 16:13:21","244618"
"A2GYIYSU8ZXJP3","cs_wg_rev_mem_real1","3UXUOQ9OKEYHGN7FZB1JNXCYLCQ7AX","28","0","SMOKER","4","COOKIE","2","0","3283",,,,,"0","2018-10-04 16:13:22","244619"
"A18EYTQN3BKVOR","cs_wg_rev_mem_real1","374TNBHA8BWSINAXBGO5QAB0TTLYQW","42","0","SQUARE","3","AVOCADO","3","1","3384",,,,,"0","2018-10-04 16:13:22","244620"
"AMVBVRHSEZGZY","cs_wg_rev_mem_real1","3IAEQB9FMELU49BSRT0X5EJLZ6WWDQ","44","0","THUMB","4","LETTUCE","4","1","809",,,,,"0","2018-10-04 16:13:22","244621"
"AHXO376ALG8WN","cs_wg_rev_mem_real1","3Z7ISHFUH0WMH9K6L89OIQZ25H28ZL","2","0","PERFUME","4","BAMBOO","3","0","1168",,,,,"0","2018-10-04 16:13:22","244622"
"A15M1ADLSNZGSJ","cs_wg_rev_mem_real1","3IO1LGZLK9YKTZ0VJ3CDLS670D686V","17","0","SQUID","3","PUMPKIN","5","1","969",,,,,"0","2018-10-04 16:13:23","244623"
"A3KHKFLJZN00QI","cs_wg_rev_mem_real1","3U5JL4WY5KAWTDXP8NVQ4T3MVV94XE","89","0","BAKER","3","SKUNK","4","0","331",,,,,"0","2018-10-04 16:13:23","244624"
"A1WTUFTRMUN5IR","cs_wg_rev_mem_real1","3ZDAD0O1T1EGAYCFNOWYC1FEBUPTXY","55","0","COLUMN","4","DONKEY","3","1","1715",,,,,"0","2018-10-04 16:13:23","244625"
"A31X1FW485DON4","cs_wg_rev_mem_real1","3GNA64GUZE5UGZ0D0EJ8FDD7YOI5QO","26","0","SAUCE","2","JAGUAR","3","1","2253",,,,,"0","2018-10-04 16:13:24","244626"
"A3KHKFLJZN00QI","cs_wg_rev_mem_real1","3U5JL4WY5KAWTDXP8NVQ4T3MVV94XE","90","0","BASKET","4","JACKET","4","1","290",,,,,"0","2018-10-04 16:13:24","244627"
"AHXO376ALG8WN","cs_wg_rev_mem_real1","3Z7ISHFUH0WMH9K6L89OIQZ25H28ZL","3","0","PENGUIN","4","BAMBOO","3","0","938",,,,,"0","2018-10-04 16:13:25","244628"
"A2S54MTAZWS3IZ","cs_wg_rev_mem_real1","36W0OB37HWFFAKLZOC3UV3S180UHZB","29","0","COOKIE","2","BICYCLE","4","1","1913",,,,,"0","2018-10-04 16:13:25","244629"
"A15M1ADLSNZGSJ","cs_wg_rev_mem_real1","3IO1LGZLK9YKTZ0VJ3CDLS670D686V","18","0","VULTURE","4","CRICKET","5","0","926",,,,,"0","2018-10-04 16:13:25","244630"
"A2MK7JYJLKWSIH","cs_wg_rev_mem_real1","3IXEICO792K3RJSJM1N8CO2UEQR6TI","36","0","GROUND","4","BUCKET","4","0","2418",,,,,"0","2018-10-04 16:13:25","244631"
"AMVBVRHSEZGZY","cs_wg_rev_mem_real1","3IAEQB9FMELU49BSRT0X5EJLZ6WWDQ","45","0","ADULT","3","SQUARE","3","0","1463",,,,,"0","2018-10-04 16:13:26","244632"
"A2R1TM9CS8OAL","cs_wg_rev_mem_real1","3QAVNHZ3EM5GV8WH352T62UZGWVLAK","27","0","BANQUET","4","ISLAND","4","0","2081",,,,,"0","2018-10-04 16:13:26","244633"
"A18EYTQN3BKVOR","cs_wg_rev_mem_real1","374TNBHA8BWSINAXBGO5QAB0TTLYQW","43","0","AVOCADO","3","PALACE","3","0","1686",,,,,"0","2018-10-04 16:13:26","244634"
"AW4V84DRTH6R2","cs_wg_rev_mem_real1","3F6KKYWMNB24HF2EZS9A9V6U6UUNDS","37","0","LIZARD","4","PALACE","3","0","3052",,,,,"0","2018-10-04 16:13:26","244635"
"A3KHKFLJZN00QI","cs_wg_rev_mem_real1","3U5JL4WY5KAWTDXP8NVQ4T3MVV94XE","91","0","COWBOY","3","WIZARD","4","0","310",,,,,"0","2018-10-04 16:13:26","244636"
"AWBRC3S78OHJL","cs_wg_rev_mem_real1","3QAVNHZ3EM5GV8WH352T62UZGWWALA","1","0","DONKEY","3","BUCKET","4","0","5876",,,,,"0","2018-10-04 16:13:26","244637"
"A1WTUFTRMUN5IR","cs_wg_rev_mem_real1","3ZDAD0O1T1EGAYCFNOWYC1FEBUPTXY","56","0","ADULT","3","BANANA","3","1","1733",,,,,"0","2018-10-04 16:13:26","244638"
"A3VJIRQGLY6C2H","cs_wg_rev_mem_real1","3T3IWE1XG6OW11B31A16ITJLER5TQ4","8","0","PUMPKIN","5","PICKLE","4","0","6010",,,,,"0","2018-10-04 16:13:27","244639"
"A31X1FW485DON4","cs_wg_rev_mem_real1","3GNA64GUZE5UGZ0D0EJ8FDD7YOI5QO","27","0","BAKER","3","JAGUAR","3","1","1988",,,,,"0","2018-10-04 16:13:28","244640"
"A2GYIYSU8ZXJP3","cs_wg_rev_mem_real1","3UXUOQ9OKEYHGN7FZB1JNXCYLCQ7AX","29","0","GRENADE","4","PELICAN","4","1","4002",,,,,"0","2018-10-04 16:13:28","244641"
"A3KHKFLJZN00QI","cs_wg_rev_mem_real1","3U5JL4WY5KAWTDXP8NVQ4T3MVV94XE","92","0","WIZARD","4","SPATULA","4","0","413",,,,,"0","2018-10-04 16:13:28","244642"
"A3VHRHTMI4GKRX","cs_wg_rev_mem_real1","31Z0PCVWUKGMVJ6O5BS0I22Q91C7TJ","1","0","CHICKEN","5","BASKET","4","0","5530",,,,,"0","2018-10-04 16:13:28","244643"
"A2RL6W36Z9MWJZ","cs_wg_rev_mem_real1","304SM51WA358IVWZTSZQDZS0Q8PSB1","3","0","JACKET","4","ADULT","3","1","7616",,,,,"0","2018-10-04 16:13:28","244644"
"A8NR0933V4TAT","cs_wg_rev_mem_real1","37WLF8U1WPR4O02WSS9GBXFYVD06KC","2","0","BICYCLE","4","PICTURE","4","0","9071",,,,,"0","2018-10-04 16:13:28","244645"
"AW4V84DRTH6R2","cs_wg_rev_mem_real1","3F6KKYWMNB24HF2EZS9A9V6U6UUNDS","38","0","BLANKET","5","BANANA","3","0","559",,,,,"0","2018-10-04 16:13:28","244646"
"AMVBVRHSEZGZY","cs_wg_rev_mem_real1","3IAEQB9FMELU49BSRT0X5EJLZ6WWDQ","46","0","COLUMN","4","LETTUCE","4","1","807",,,,,"0","2018-10-04 16:13:28","244647"
"A8DRISONUZB1M","cs_wg_rev_mem_real1","35LDD5557A56D3NOF8GX0TCKLDEMK1","11","0","PICKLE","4","BUCKET","4","0","18088",,,,,"0","2018-10-04 16:13:28","244648"
"A2MK7JYJLKWSIH","cs_wg_rev_mem_real1","3IXEICO792K3RJSJM1N8CO2UEQR6TI","37","0","NAPKIN","4","PERFUME","4","0","1572",,,,,"0","2018-10-04 16:13:29","244649"
"A2S54MTAZWS3IZ","cs_wg_rev_mem_real1","36W0OB37HWFFAKLZOC3UV3S180UHZB","30","0","SAUCE","2","LIZARD","4","1","1733",,,,,"0","2018-10-04 16:13:29","244650"
"A2R1TM9CS8OAL","cs_wg_rev_mem_real1","3QAVNHZ3EM5GV8WH352T62UZGWVLAK","28","0","ISLAND","4","BANANA","3","0","925",,,,,"0","2018-10-04 16:13:29","244651"
"A18EYTQN3BKVOR","cs_wg_rev_mem_real1","374TNBHA8BWSINAXBGO5QAB0TTLYQW","44","0","AVOCADO","3","CANCER","4","1","1222",,,,,"0","2018-10-04 16:13:29","244652"
"A3KHKFLJZN00QI","cs_wg_rev_mem_real1","3U5JL4WY5KAWTDXP8NVQ4T3MVV94XE","93","0","SPATULA","4","BICYCLE","4","0","310",,,,,"0","2018-10-04 16:13:29","244653"
"AHXO376ALG8WN","cs_wg_rev_mem_real1","3Z7ISHFUH0WMH9K6L89OIQZ25H28ZL","4","0","BAMBOO","3","SQUARE","3","1","2079",,,,,"0","2018-10-04 16:13:29","244654"
"A1WTUFTRMUN5IR","cs_wg_rev_mem_real1","3ZDAD0O1T1EGAYCFNOWYC1FEBUPTXY","57","0","RABBIT","4","LIZARD","4","0","2053",,,,,"0","2018-10-04 16:13:30","244655"
"AW4V84DRTH6R2","cs_wg_rev_mem_real1","3F6KKYWMNB24HF2EZS9A9V6U6UUNDS","39","0","PICKLE","4","PEBBLE","4","0","448",,,,,"0","2018-10-04 16:13:30","244656"
"A15M1ADLSNZGSJ","cs_wg_rev_mem_real1","3IO1LGZLK9YKTZ0VJ3CDLS670D686V","19","0","PUMPKIN","5","SMOKER","4","0","2638",,,,,"0","2018-10-04 16:13:30","244657"
"A1M0RY7GLI1ZYX","cs_wg_rev_mem_real1","3K2755HG5S4STNPX14QX1QXL438FDD","3","0","GARBAGE","4","JACKET","4","0","7016",,,,,"0","2018-10-04 16:13:31","244658"
"A31X1FW485DON4","cs_wg_rev_mem_real1","3GNA64GUZE5UGZ0D0EJ8FDD7YOI5QO","28","0","SAUCE","2","SEAGULL","4","1","1540",,,,,"0","2018-10-04 16:13:31","244659"
"A3KHKFLJZN00QI","cs_wg_rev_mem_real1","3U5JL4WY5KAWTDXP8NVQ4T3MVV94XE","94","0","COWBOY","3","SPATULA","4","0","212",,,,,"0","2018-10-04 16:13:31","244660"
"AMVBVRHSEZGZY","cs_wg_rev_mem_real1","3IAEQB9FMELU49BSRT0X5EJLZ6WWDQ","47","0","ANKLE","3","COLUMN","4","1","850",,,,,"0","2018-10-04 16:13:31","244661"
"A8DRISONUZB1M","cs_wg_rev_mem_real1","35LDD5557A56D3NOF8GX0TCKLDEMK1","12","0","FLUTE","3","BLANKET","5","1","1385",,,,,"0","2018-10-04 16:13:32","244662"
"A2FZQWPIQ4I9KU","cs_wg_rev_mem_real1","39GHHAVOMFSVYTS0RJGPDKV7KXU4JQ","2","0","BAMBOO","3","ARCADE","3","0","8033",,,,,"0","2018-10-04 16:13:32","244663"
"A2R1TM9CS8OAL","cs_wg_rev_mem_real1","3QAVNHZ3EM5GV8WH352T62UZGWVLAK","29","0","NAPKIN","4","BANANA","3","0","846",,,,,"0","2018-10-04 16:13:32","244664"
"A2MK7JYJLKWSIH","cs_wg_rev_mem_real1","3IXEICO792K3RJSJM1N8CO2UEQR6TI","38","0","NAPKIN","4","LETTUCE","4","0","1392",,,,,"0","2018-10-04 16:13:32","244665"
"A2GYIYSU8ZXJP3","cs_wg_rev_mem_real1","3UXUOQ9OKEYHGN7FZB1JNXCYLCQ7AX","30","0","BUCKET","4","SMOKER","4","1","1979",,,,,"0","2018-10-04 16:13:32","244666"
"AW4V84DRTH6R2","cs_wg_rev_mem_real1","3F6KKYWMNB24HF2EZS9A9V6U6UUNDS","40","0","SMOKER","4","ADULT","3","0","336",,,,,"0","2018-10-04 16:13:32","244667"
"A3KHKFLJZN00QI","cs_wg_rev_mem_real1","3U5JL4WY5KAWTDXP8NVQ4T3MVV94XE","95","0","JACKET","4","WIZARD","4","0","279",,,,,"0","2018-10-04 16:13:32","244668"
"A1WTUFTRMUN5IR","cs_wg_rev_mem_real1","3ZDAD0O1T1EGAYCFNOWYC1FEBUPTXY","58","0","CRICKET","5","BLANKET","5","0","990",,,,,"0","2018-10-04 16:13:33","244669"
"A15M1ADLSNZGSJ","cs_wg_rev_mem_real1","3IO1LGZLK9YKTZ0VJ3CDLS670D686V","20","0","AVOCADO","3","POTATO","3","0","1182",,,,,"0","2018-10-04 16:13:33","244670"
"A18EYTQN3BKVOR","cs_wg_rev_mem_real1","374TNBHA8BWSINAXBGO5QAB0TTLYQW","45","0","WHISKER","5","CANCER","4","0","1463",,,,,"0","2018-10-04 16:13:33","244671"
"AMVBVRHSEZGZY","cs_wg_rev_mem_real1","3IAEQB9FMELU49BSRT0X5EJLZ6WWDQ","48","0","BLANKET","5","ANKLE","3","0","577",,,,,"0","2018-10-04 16:13:34","244672"
"A2S54MTAZWS3IZ","cs_wg_rev_mem_real1","36W0OB37HWFFAKLZOC3UV3S180UHZB","31","0","MOUTH","3","ACROBAT","4","1","3053",,,,,"0","2018-10-04 16:13:34","244673"
"AW4V84DRTH6R2","cs_wg_rev_mem_real1","3F6KKYWMNB24HF2EZS9A9V6U6UUNDS","41","0","LIZARD","4","BLANKET","5","0","372",,,,,"0","2018-10-04 16:13:34","244674"
"A3KHKFLJZN00QI","cs_wg_rev_mem_real1","3U5JL4WY5KAWTDXP8NVQ4T3MVV94XE","96","0","BAKER","3","BICYCLE","4","0","259",,,,,"0","2018-10-04 16:13:34","244675"
"AHXO376ALG8WN","cs_wg_rev_mem_real1","3Z7ISHFUH0WMH9K6L89OIQZ25H28ZL","5","0","SMOKER","4","SQUARE","3","0","1825",,,,,"0","2018-10-04 16:13:34","244676"
"A31X1FW485DON4","cs_wg_rev_mem_real1","3GNA64GUZE5UGZ0D0EJ8FDD7YOI5QO","29","0","JAGUAR","3","SAUCE","2","0","1886",,,,,"0","2018-10-04 16:13:34","244677"
"A3VJIRQGLY6C2H","cs_wg_rev_mem_real1","3T3IWE1XG6OW11B31A16ITJLER5TQ4","9","0","SMOKER","4","GARBAGE","4","0","5408",,,,,"0","2018-10-04 16:13:34","244678"
"A2RL6W36Z9MWJZ","cs_wg_rev_mem_real1","304SM51WA358IVWZTSZQDZS0Q8PSB1","4","0","COLUMN","4","PELICAN","4","1","5174",,,,,"0","2018-10-04 16:13:35","244679"
"A3VHRHTMI4GKRX","cs_wg_rev_mem_real1","31Z0PCVWUKGMVJ6O5BS0I22Q91C7TJ","2","0","TOMATO","3","SEAGULL","4","1","4443",,,,,"0","2018-10-04 16:13:35","244680"
"A3KHKFLJZN00QI","cs_wg_rev_mem_real1","3U5JL4WY5KAWTDXP8NVQ4T3MVV94XE","97","0","BANANA","3","BASKET","4","1","376",,,,,"0","2018-10-04 16:13:36","244681"
"A15M1ADLSNZGSJ","cs_wg_rev_mem_real1","3IO1LGZLK9YKTZ0VJ3CDLS670D686V","21","0","HOUSE","2","PUMPKIN","5","1","1185",,,,,"0","2018-10-04 16:13:36","244682"
"AW4V84DRTH6R2","cs_wg_rev_mem_real1","3F6KKYWMNB24HF2EZS9A9V6U6UUNDS","42","0","ADULT","3","PEBBLE","4","0","323",,,,,"0","2018-10-04 16:13:36","244683"
"A2R1TM9CS8OAL","cs_wg_rev_mem_real1","3QAVNHZ3EM5GV8WH352T62UZGWVLAK","30","0","COSTUME","4","ISLAND","4","0","2350",,,,,"0","2018-10-04 16:13:36","244684"
"A2MK7JYJLKWSIH","cs_wg_rev_mem_real1","3IXEICO792K3RJSJM1N8CO2UEQR6TI","39","0","MOUTH","3","GROUND","4","1","2923",,,,,"0","2018-10-04 16:13:37","244685"
"AMVBVRHSEZGZY","cs_wg_rev_mem_real1","3IAEQB9FMELU49BSRT0X5EJLZ6WWDQ","49","0","BICYCLE","4","CRICKET","5","1","1075",,,,,"0","2018-10-04 16:13:37","244686"
"A1WTUFTRMUN5IR","cs_wg_rev_mem_real1","3ZDAD0O1T1EGAYCFNOWYC1FEBUPTXY","59","0","COLUMN","4","RABBIT","4","1","2370",,,,,"0","2018-10-04 16:13:37","244687"
"AHXO376ALG8WN","cs_wg_rev_mem_real1","3Z7ISHFUH0WMH9K6L89OIQZ25H28ZL","6","0","NAPKIN","4","MARKET","4","1","986",,,,,"0","2018-10-04 16:13:37","244688"
"A3KHKFLJZN00QI","cs_wg_rev_mem_real1","3U5JL4WY5KAWTDXP8NVQ4T3MVV94XE","98","0","BANANA","3","COWBOY","3","1","244",,,,,"0","2018-10-04 16:13:37","244689"
"A2S54MTAZWS3IZ","cs_wg_rev_mem_real1","36W0OB37HWFFAKLZOC3UV3S180UHZB","32","0","PUMPKIN","5","PALACE","3","0","2060",,,,,"0","2018-10-04 16:13:38","244690"
"A1M0RY7GLI1ZYX","cs_wg_rev_mem_real1","3K2755HG5S4STNPX14QX1QXL438FDD","4","0","JACKET","4","WIZARD","4","1","5536",,,,,"0","2018-10-04 16:13:38","244691"
"AW4V84DRTH6R2","cs_wg_rev_mem_real1","3F6KKYWMNB24HF2EZS9A9V6U6UUNDS","43","0","SMOKER","4","PALACE","3","0","634",,,,,"0","2018-10-04 16:13:38","244692"
"A31X1FW485DON4","cs_wg_rev_mem_real1","3GNA64GUZE5UGZ0D0EJ8FDD7YOI5QO","30","0","SEAGULL","4","COLUMN","4","1","3030",,,,,"0","2018-10-04 16:13:39","244693"
"A8DRISONUZB1M","cs_wg_rev_mem_real1","35LDD5557A56D3NOF8GX0TCKLDEMK1","13","0","BASKET","4","LETTUCE","4","1","5343",,,,,"0","2018-10-04 16:13:39","244694"
"A2FZQWPIQ4I9KU","cs_wg_rev_mem_real1","39GHHAVOMFSVYTS0RJGPDKV7KXU4JQ","3","0","SQUARE","3","BLANKET","5","1","4462",,,,,"0","2018-10-04 16:13:39","244695"
"A18EYTQN3BKVOR","cs_wg_rev_mem_real1","374TNBHA8BWSINAXBGO5QAB0TTLYQW","46","0","BLANKET","5","PICTURE","4","1","3532",,,,,"0","2018-10-04 16:13:39","244696"
"A15M1ADLSNZGSJ","cs_wg_rev_mem_real1","3IO1LGZLK9YKTZ0VJ3CDLS670D686V","22","0","PUMPKIN","5","SCUBA","3","0","1123",,,,,"0","2018-10-04 16:13:39","244697"
"A3KHKFLJZN00QI","cs_wg_rev_mem_real1","3U5JL4WY5KAWTDXP8NVQ4T3MVV94XE","99","0","JACKET","4","BAKER","3","1","451",,,,,"0","2018-10-04 16:13:39","244698"
"A3VJIRQGLY6C2H","cs_wg_rev_mem_real1","3T3IWE1XG6OW11B31A16ITJLER5TQ4","10","0","THUMB","4","PUMPKIN","5","1","3432",,,,,"0","2018-10-04 16:13:39","244699"
"AMVBVRHSEZGZY","cs_wg_rev_mem_real1","3IAEQB9FMELU49BSRT0X5EJLZ6WWDQ","50","0","GARBAGE","4","BLANKET","5","0","1002",,,,,"0","2018-10-04 16:13:40","244700"
"AHXO376ALG8WN","cs_wg_rev_mem_real1","3Z7ISHFUH0WMH9K6L89OIQZ25H28ZL","7","0","VULTURE","4","NAPKIN","4","0","806",,,,,"0","2018-10-04 16:13:40","244701"
"A8NR0933V4TAT","cs_wg_rev_mem_real1","37WLF8U1WPR4O02WSS9GBXFYVD06KC","3","0","COWBOY","3","BICYCLE","4","1","9016",,,,,"0","2018-10-04 16:13:40","244702"
"A2MK7JYJLKWSIH","cs_wg_rev_mem_real1","3IXEICO792K3RJSJM1N8CO2UEQR6TI","40","0","LETTUCE","4","BUCKET","4","0","1753",,,,,"0","2018-10-04 16:13:40","244703"
"A1WTUFTRMUN5IR","cs_wg_rev_mem_real1","3ZDAD0O1T1EGAYCFNOWYC1FEBUPTXY","60","0","CRICKET","5","DONKEY","3","0","1228",,,,,"0","2018-10-04 16:13:40","244704"
"A2R1TM9CS8OAL","cs_wg_rev_mem_real1","3QAVNHZ3EM5GV8WH352T62UZGWVLAK","31","0","ISLAND","4","BANQUET","4","1","1806",,,,,"0","2018-10-04 16:13:40","244705"
"A2GYIYSU8ZXJP3","cs_wg_rev_mem_real1","3UXUOQ9OKEYHGN7FZB1JNXCYLCQ7AX","31","0","GRENADE","4","SQUARE","3","0","3697",,,,,"0","2018-10-04 16:13:40","244706"
"AW4V84DRTH6R2","cs_wg_rev_mem_real1","3F6KKYWMNB24HF2EZS9A9V6U6UUNDS","44","0","GROUND","4","LIZARD","4","0","657",,,,,"0","2018-10-04 16:13:41","244707"
"A3KHKFLJZN00QI","cs_wg_rev_mem_real1","3U5JL4WY5KAWTDXP8NVQ4T3MVV94XE","100","0","SPATULA","4","BASKET","4","0","136",,,,,"0","2018-10-04 16:13:41","244708"
"A2RL6W36Z9MWJZ","cs_wg_rev_mem_real1","304SM51WA358IVWZTSZQDZS0Q8PSB1","5","0","CANCER","4","ANKLE","3","0","3436",,,,,"0","2018-10-04 16:13:41","244709"
"A2RT2DT17HMQ2M","cs_wg_rev_mem_real1","33FBRBDW6O099G9WTUPG7SYHWZHC8R","6","0","BUCKET","4","BICYCLE","4","1","17321",,,,,"0","2018-10-04 16:13:41","244710"
"A2S54MTAZWS3IZ","cs_wg_rev_mem_real1","36W0OB37HWFFAKLZOC3UV3S180UHZB","33","0","LIZARD","4","PALACE","3","0","2238",,,,,"0","2018-10-04 16:13:42","244711"
"A3VHRHTMI4GKRX","cs_wg_rev_mem_real1","31Z0PCVWUKGMVJ6O5BS0I22Q91C7TJ","3","0","FLUTE","3","TOMATO","3","0","4463",,,,,"0","2018-10-04 16:13:42","244712"
"A31X1FW485DON4","cs_wg_rev_mem_real1","3GNA64GUZE5UGZ0D0EJ8FDD7YOI5QO","31","0","PICKLE","4","SAUCE","2","0","1834",,,,,"0","2018-10-04 16:13:42","244713"
"A3KHKFLJZN00QI","cs_wg_rev_mem_real1","3U5JL4WY5KAWTDXP8NVQ4T3MVV94XE","101","0","COLUMN","4","MOUSE","2","0","321",,,,,"0","2018-10-04 16:13:42","244714"
"A15M1ADLSNZGSJ","cs_wg_rev_mem_real1","3IO1LGZLK9YKTZ0VJ3CDLS670D686V","23","0","HOUSE","2","SMOKER","4","1","1499",,,,,"0","2018-10-04 16:13:43","244715"
"AW4V84DRTH6R2","cs_wg_rev_mem_real1","3F6KKYWMNB24HF2EZS9A9V6U6UUNDS","45","0","PALACE","3","BLANKET","5","0","796",,,,,"0","2018-10-04 16:13:43","244716"
"A1WTUFTRMUN5IR","cs_wg_rev_mem_real1","3ZDAD0O1T1EGAYCFNOWYC1FEBUPTXY","61","0","PALACE","3","LIZARD","4","1","1147",,,,,"0","2018-10-04 16:13:43","244717"
"A18EYTQN3BKVOR","cs_wg_rev_mem_real1","374TNBHA8BWSINAXBGO5QAB0TTLYQW","47","0","JACKET","4","PALACE","3","0","1903",,,,,"0","2018-10-04 16:13:43","244718"
"AHXO376ALG8WN","cs_wg_rev_mem_real1","3Z7ISHFUH0WMH9K6L89OIQZ25H28ZL","8","0","VOLCANO","4","PENGUIN","4","1","1307",,,,,"0","2018-10-04 16:13:43","244719"
"AMVBVRHSEZGZY","cs_wg_rev_mem_real1","3IAEQB9FMELU49BSRT0X5EJLZ6WWDQ","51","0","CRICKET","5","POTATO","3","0","1375",,,,,"0","2018-10-04 16:13:43","244720"
"A2R1TM9CS8OAL","cs_wg_rev_mem_real1","3QAVNHZ3EM5GV8WH352T62UZGWVLAK","32","0","BANANA","3","SQUID","3","1","972",,,,,"0","2018-10-04 16:13:44","244721"
"A3KHKFLJZN00QI","cs_wg_rev_mem_real1","3U5JL4WY5KAWTDXP8NVQ4T3MVV94XE","102","0","BANANA","3","SKUNK","4","1","298",,,,,"0","2018-10-04 16:13:44","244722"
"A2GYIYSU8ZXJP3","cs_wg_rev_mem_real1","3UXUOQ9OKEYHGN7FZB1JNXCYLCQ7AX","32","0","CANCER","4","PELICAN","4","1","3265",,,,,"0","2018-10-04 16:13:44","244723"
"A2S54MTAZWS3IZ","cs_wg_rev_mem_real1","36W0OB37HWFFAKLZOC3UV3S180UHZB","34","0","LIZARD","4","BAKER","3","0","708",,,,,"0","2018-10-04 16:13:44","244724"
"A2MK7JYJLKWSIH","cs_wg_rev_mem_real1","3IXEICO792K3RJSJM1N8CO2UEQR6TI","41","0","AIRBAG","3","BUCKET","4","1","2935",,,,,"0","2018-10-04 16:13:45","244725"
"AWBRC3S78OHJL","cs_wg_rev_mem_real1","3QAVNHZ3EM5GV8WH352T62UZGWWALA","2","0","VULTURE","4","MARKET","4","0","15352",,,,,"0","2018-10-04 16:13:45","244726"
"A31X1FW485DON4","cs_wg_rev_mem_real1","3GNA64GUZE5UGZ0D0EJ8FDD7YOI5QO","32","0","SAUCE","2","BAKER","3","1","1599",,,,,"0","2018-10-04 16:13:45","244727"
"A3VJIRQGLY6C2H","cs_wg_rev_mem_real1","3T3IWE1XG6OW11B31A16ITJLER5TQ4","11","0","SKUNK","4","BANQUET","4","1","3896",,,,,"0","2018-10-04 16:13:45","244728"
"AW4V84DRTH6R2","cs_wg_rev_mem_real1","3F6KKYWMNB24HF2EZS9A9V6U6UUNDS","46","0","GROUND","4","COSTUME","4","0","665",,,,,"0","2018-10-04 16:13:45","244729"
"A3KHKFLJZN00QI","cs_wg_rev_mem_real1","3U5JL4WY5KAWTDXP8NVQ4T3MVV94XE","103","0","SPATULA","4","COWBOY","3","1","104",,,,,"0","2018-10-04 16:13:45","244730"
"AHXO376ALG8WN","cs_wg_rev_mem_real1","3Z7ISHFUH0WMH9K6L89OIQZ25H28ZL","9","0","ROCKET","4","NAPKIN","4","1","722",,,,,"0","2018-10-04 16:13:46","244731"
"A2FZQWPIQ4I9KU","cs_wg_rev_mem_real1","39GHHAVOMFSVYTS0RJGPDKV7KXU4JQ","4","0","BLANKET","5","DONKEY","3","0","4728",,,,,"0","2018-10-04 16:13:46","244732"
"A15M1ADLSNZGSJ","cs_wg_rev_mem_real1","3IO1LGZLK9YKTZ0VJ3CDLS670D686V","24","0","BUCKET","4","SQUID","3","0","1241",,,,,"0","2018-10-04 16:13:46","244733"
"A1M0RY7GLI1ZYX","cs_wg_rev_mem_real1","3K2755HG5S4STNPX14QX1QXL438FDD","5","0","GARBAGE","4","BUCKET","4","1","6298",,,,,"0","2018-10-04 16:13:46","244734"
"A18EYTQN3BKVOR","cs_wg_rev_mem_real1","374TNBHA8BWSINAXBGO5QAB0TTLYQW","48","0","PALACE","3","WHISKER","5","1","1190",,,,,"0","2018-10-04 16:13:46","244735"
"A1WTUFTRMUN5IR","cs_wg_rev_mem_real1","3ZDAD0O1T1EGAYCFNOWYC1FEBUPTXY","62","0","LIZARD","4","PENGUIN","4","0","2243",,,,,"0","2018-10-04 16:13:47","244736"
"AW4V84DRTH6R2","cs_wg_rev_mem_real1","3F6KKYWMNB24HF2EZS9A9V6U6UUNDS","47","0","PICKLE","4","SMOKER","4","0","409",,,,,"0","2018-10-04 16:13:47","244737"
"AMVBVRHSEZGZY","cs_wg_rev_mem_real1","3IAEQB9FMELU49BSRT0X5EJLZ6WWDQ","52","0","LETTUCE","4","COLUMN","4","0","1831",,,,,"0","2018-10-04 16:13:47","244738"
"A2R1TM9CS8OAL","cs_wg_rev_mem_real1","3QAVNHZ3EM5GV8WH352T62UZGWVLAK","33","0","SEAGULL","4","ISLAND","4","0","1871",,,,,"0","2018-10-04 16:13:48","244739"
"A3KHKFLJZN00QI","cs_wg_rev_mem_real1","3U5JL4WY5KAWTDXP8NVQ4T3MVV94XE","104","0","BICYCLE","4","MOUSE","2","0","1176",,,,,"0","2018-10-04 16:13:48","244740"
"AHXO376ALG8WN","cs_wg_rev_mem_real1","3Z7ISHFUH0WMH9K6L89OIQZ25H28ZL","10","0","BAMBOO","3","GARBAGE","4","1","654",,,,,"0","2018-10-04 16:13:48","244741"
"A2S54MTAZWS3IZ","cs_wg_rev_mem_real1","36W0OB37HWFFAKLZOC3UV3S180UHZB","35","0","BAKER","3","MOUTH","3","0","1733",,,,,"0","2018-10-04 16:13:48","244742"
"A15M1ADLSNZGSJ","cs_wg_rev_mem_real1","3IO1LGZLK9YKTZ0VJ3CDLS670D686V","25","0","VOLCANO","4","PUMPKIN","5","1","1158",,,,,"0","2018-10-04 16:13:48","244743"
"A3VHRHTMI4GKRX","cs_wg_rev_mem_real1","31Z0PCVWUKGMVJ6O5BS0I22Q91C7TJ","4","0","TOMATO","3","CHICKEN","5","1","4413",,,,,"0","2018-10-04 16:13:49","244744"
"A3VJIRQGLY6C2H","cs_wg_rev_mem_real1","3T3IWE1XG6OW11B31A16ITJLER5TQ4","12","0","PEBBLE","4","AIRBAG","3","0","2162",,,,,"0","2018-10-04 16:13:49","244745"
"A2BK6BKYNHETY1","cs_wg_rev_mem_real1","3SB4CE2TJVWBV2D6HO5HHWPMN54XAH","0","0","PUMPKIN","5","LIZARD","4","0","14593",,,,,"0","2018-10-04 16:13:49","244746"
"A2RL6W36Z9MWJZ","cs_wg_rev_mem_real1","304SM51WA358IVWZTSZQDZS0Q8PSB1","6","0","PUMPKIN","5","PALACE","3","0","6152",,,,,"0","2018-10-04 16:13:49","244747"
"A2GYIYSU8ZXJP3","cs_wg_rev_mem_real1","3UXUOQ9OKEYHGN7FZB1JNXCYLCQ7AX","33","0","BASKET","4","GRENADE","4","1","3247",,,,,"0","2018-10-04 16:13:49","244748"
"A2MK7JYJLKWSIH","cs_wg_rev_mem_real1","3IXEICO792K3RJSJM1N8CO2UEQR6TI","42","0","BAMBOO","3","LETTUCE","4","1","2722",,,,,"0","2018-10-04 16:13:49","244749"
"AW4V84DRTH6R2","cs_wg_rev_mem_real1","3F6KKYWMNB24HF2EZS9A9V6U6UUNDS","48","0","GROUND","4","PEBBLE","4","0","380",,,,,"0","2018-10-04 16:13:49","244750"
"A31X1FW485DON4","cs_wg_rev_mem_real1","3GNA64GUZE5UGZ0D0EJ8FDD7YOI5QO","33","0","COMPANY","4","JAGUAR","3","0","3178",,,,,"0","2018-10-04 16:13:50","244751"
"A1WTUFTRMUN5IR","cs_wg_rev_mem_real1","3ZDAD0O1T1EGAYCFNOWYC1FEBUPTXY","63","0","ROCKET","4","BLANKET","5","1","933",,,,,"0","2018-10-04 16:13:50","244752"
"AMVBVRHSEZGZY","cs_wg_rev_mem_real1","3IAEQB9FMELU49BSRT0X5EJLZ6WWDQ","53","0","ANKLE","3","SQUARE","3","0","962",,,,,"0","2018-10-04 16:13:50","244753"
"A8DRISONUZB1M","cs_wg_rev_mem_real1","35LDD5557A56D3NOF8GX0TCKLDEMK1","14","0","PICKLE","4","COLUMN","4","0","7032",,,,,"0","2018-10-04 16:13:50","244754"
"AWBRC3S78OHJL","cs_wg_rev_mem_real1","3QAVNHZ3EM5GV8WH352T62UZGWWALA","3","0","POTATO","3","VULTURE","4","1","2859",,,,,"0","2018-10-04 16:13:51","244755"
"A3KHKFLJZN00QI","cs_wg_rev_mem_real1","3U5JL4WY5KAWTDXP8NVQ4T3MVV94XE","105","0","COLUMN","4","SKUNK","4","0","801",,,,,"0","2018-10-04 16:13:51","244756"
"AW4V84DRTH6R2","cs_wg_rev_mem_real1","3F6KKYWMNB24HF2EZS9A9V6U6UUNDS","49","0","PEBBLE","4","COSTUME","4","0","389",,,,,"0","2018-10-04 16:13:51","244757"
"A15M1ADLSNZGSJ","cs_wg_rev_mem_real1","3IO1LGZLK9YKTZ0VJ3CDLS670D686V","26","0","CRICKET","5","SCUBA","3","0","710",,,,,"0","2018-10-04 16:13:51","244758"
"AHXO376ALG8WN","cs_wg_rev_mem_real1","3Z7ISHFUH0WMH9K6L89OIQZ25H28ZL","11","0","PERFUME","4","MARKET","4","0","818",,,,,"0","2018-10-04 16:13:51","244759"
"A2S54MTAZWS3IZ","cs_wg_rev_mem_real1","36W0OB37HWFFAKLZOC3UV3S180UHZB","36","0","BLOUSE","3","SAUCE","2","0","1157",,,,,"0","2018-10-04 16:13:52","244760"
"AK094EO1LGJN9","cs_wg_rev_mem_real1","3Y4W8Q93LZLHPKBN1JV1JC07SXUVDF","0","0","LIZARD","4","PICKLE","4","0","13407",,,,,"0","2018-10-04 16:13:52","244761"
"A18EYTQN3BKVOR","cs_wg_rev_mem_real1","374TNBHA8BWSINAXBGO5QAB0TTLYQW","49","0","PERFUME","4","JACKET","4","0","2946",,,,,"0","2018-10-04 16:13:52","244762"
"A1WTUFTRMUN5IR","cs_wg_rev_mem_real1","3ZDAD0O1T1EGAYCFNOWYC1FEBUPTXY","64","0","CRICKET","5","BANANA","3","0","955",,,,,"0","2018-10-04 16:13:52","244763"
"A3KHKFLJZN00QI","cs_wg_rev_mem_real1","3U5JL4WY5KAWTDXP8NVQ4T3MVV94XE","106","0","COWBOY","3","COLUMN","4","0","325",,,,,"0","2018-10-04 16:13:52","244764"
"A8NR0933V4TAT","cs_wg_rev_mem_real1","37WLF8U1WPR4O02WSS9GBXFYVD06KC","4","0","PICTURE","4","ANKLE","3","0","8203",,,,,"0","2018-10-04 16:13:52","244765"
"A2R1TM9CS8OAL","cs_wg_rev_mem_real1","3QAVNHZ3EM5GV8WH352T62UZGWVLAK","34","0","COMPANY","4","PELICAN","4","0","2107",,,,,"0","2018-10-04 16:13:52","244766"
"A31X1FW485DON4","cs_wg_rev_mem_real1","3GNA64GUZE5UGZ0D0EJ8FDD7YOI5QO","34","0","POTATO","3","WHISKER","5","1","1646",,,,,"0","2018-10-04 16:13:53","244767"
"A2FZQWPIQ4I9KU","cs_wg_rev_mem_real1","39GHHAVOMFSVYTS0RJGPDKV7KXU4JQ","5","0","LETTUCE","4","BLANKET","5","1","4825",,,,,"0","2018-10-04 16:13:53","244768"
"A2MK7JYJLKWSIH","cs_wg_rev_mem_real1","3IXEICO792K3RJSJM1N8CO2UEQR6TI","43","0","AIRBAG","3","NAPKIN","4","1","1798",,,,,"0","2018-10-04 16:13:53","244769"
"AMVBVRHSEZGZY","cs_wg_rev_mem_real1","3IAEQB9FMELU49BSRT0X5EJLZ6WWDQ","54","0","LETTUCE","4","BLANKET","5","1","1006",,,,,"0","2018-10-04 16:13:53","244770"
"AW4V84DRTH6R2","cs_wg_rev_mem_real1","3F6KKYWMNB24HF2EZS9A9V6U6UUNDS","50","0","SPATULA","4","PALACE","3","0","367",,,,,"0","2018-10-04 16:13:53","244771"
"A2GYIYSU8ZXJP3","cs_wg_rev_mem_real1","3UXUOQ9OKEYHGN7FZB1JNXCYLCQ7AX","34","0","BUCKET","4","MOUSE","2","0","2110",,,,,"0","2018-10-04 16:13:53","244772"
"A1M0RY7GLI1ZYX","cs_wg_rev_mem_real1","3K2755HG5S4STNPX14QX1QXL438FDD","6","0","DONKEY","3","BUCKET","4","1","4258",,,,,"0","2018-10-04 16:13:53","244773"
"A3VJIRQGLY6C2H","cs_wg_rev_mem_real1","3T3IWE1XG6OW11B31A16ITJLER5TQ4","13","0","SKUNK","4","PICKLE","4","0","2793",,,,,"0","2018-10-04 16:13:53","244774"
"AHXO376ALG8WN","cs_wg_rev_mem_real1","3Z7ISHFUH0WMH9K6L89OIQZ25H28ZL","12","0","LIQUID","3","VOLCANO","4","1","726",,,,,"0","2018-10-04 16:13:54","244775"
"A2RL6W36Z9MWJZ","cs_wg_rev_mem_real1","304SM51WA358IVWZTSZQDZS0Q8PSB1","7","0","COMPANY","4","PALACE","3","0","23",,,,,"0","2018-10-04 16:13:54","244776"
"A3KHKFLJZN00QI","cs_wg_rev_mem_real1","3U5JL4WY5KAWTDXP8NVQ4T3MVV94XE","107","0","BAKER","3","COWBOY","3","0","350",,,,,"0","2018-10-04 16:13:54","244777"
"A3VHRHTMI4GKRX","cs_wg_rev_mem_real1","31Z0PCVWUKGMVJ6O5BS0I22Q91C7TJ","5","0","BAMBOO","3","BASKET","4","1","3626",,,,,"0","2018-10-04 16:13:55","244778"
"AWBRC3S78OHJL","cs_wg_rev_mem_real1","3QAVNHZ3EM5GV8WH352T62UZGWWALA","4","0","FLUTE","3","BANANA","3","0","1857",,,,,"0","2018-10-04 16:13:55","244779"
"A15M1ADLSNZGSJ","cs_wg_rev_mem_real1","3IO1LGZLK9YKTZ0VJ3CDLS670D686V","27","0","ARCADE","3","POTATO","3","0","1918",,,,,"0","2018-10-04 16:13:55","244780"
"A2MK7JYJLKWSIH","cs_wg_rev_mem_real1","3IXEICO792K3RJSJM1N8CO2UEQR6TI","44","0","WHISKER","5","NAPKIN","4","0","707",,,,,"0","2018-10-04 16:13:55","244781"
