"subject","version","assignmentId","trial","trial_type","word","value","alt","value2","choice","rt","resp","resp2","resp3","resp4","used_hint","stamp","id"
"A1IOP3TS9RZJ8F","cs_wg_rev_mem_pilot1","33LKR6A5KEL8KXRMGVBRHSBD5GT1TY","0","0","COOKIE","2","THUMB","4","0","5601",,,,,"0","2018-10-02 22:32:05","241493"
"A1IOP3TS9RZJ8F","cs_wg_rev_mem_pilot1","33LKR6A5KEL8KXRMGVBRHSBD5GT1TY","1","0","PUMPKIN","5","THUMB","4","0","1503",,,,,"0","2018-10-02 22:32:10","241494"
"A1IOP3TS9RZJ8F","cs_wg_rev_mem_pilot1","33LKR6A5KEL8KXRMGVBRHSBD5GT1TY","2","0","ROCKET","4","PUMPKIN","5","0","2908",,,,,"0","2018-10-02 22:32:16","241495"
"A1IOP3TS9RZJ8F","cs_wg_rev_mem_pilot1","33LKR6A5KEL8KXRMGVBRHSBD5GT1TY","3","0","PUMPKIN","5","AVOCADO","3","0","932",,,,,"0","2018-10-02 22:32:19","241496"
"A1IOP3TS9RZJ8F","cs_wg_rev_mem_pilot1","33LKR6A5KEL8KXRMGVBRHSBD5GT1TY","4","0","PERFUME","4","ROCKET","4","0","605",,,,,"0","2018-10-02 22:32:21","241497"
"A1IOP3TS9RZJ8F","cs_wg_rev_mem_pilot1","33LKR6A5KEL8KXRMGVBRHSBD5GT1TY","5","0","AVOCADO","3","WIZARD","4","0","437",,,,,"0","2018-10-02 22:32:23","241498"
"A1IOP3TS9RZJ8F","cs_wg_rev_mem_pilot1","33LKR6A5KEL8KXRMGVBRHSBD5GT1TY","6","0","PERFUME","4","THUMB","4","0","304",,,,,"0","2018-10-02 22:32:25","241499"
"A1IOP3TS9RZJ8F","cs_wg_rev_mem_pilot1","33LKR6A5KEL8KXRMGVBRHSBD5GT1TY","7","0","JACKET","4","ISLAND","4","0","1071",,,,,"0","2018-10-02 22:32:28","241500"
"A1IOP3TS9RZJ8F","cs_wg_rev_mem_pilot1","33LKR6A5KEL8KXRMGVBRHSBD5GT1TY","8","0","JACKET","4","PUMPKIN","5","0","365",,,,,"0","2018-10-02 22:32:29","241501"
"A1IOP3TS9RZJ8F","cs_wg_rev_mem_pilot1","33LKR6A5KEL8KXRMGVBRHSBD5GT1TY","9","0","ISLAND","4","JACKET","4","0","588",,,,,"0","2018-10-02 22:32:31","241502"
"A1IOP3TS9RZJ8F","cs_wg_rev_mem_pilot1","33LKR6A5KEL8KXRMGVBRHSBD5GT1TY","10","0","AVOCADO","3","COOKIE","2","0","372",,,,,"0","2018-10-02 22:32:33","241503"
"A1IOP3TS9RZJ8F","cs_wg_rev_mem_pilot1","33LKR6A5KEL8KXRMGVBRHSBD5GT1TY","11","0","COOKIE","2","WIZARD","4","0","372",,,,,"0","2018-10-02 22:32:35","241504"
"A1IOP3TS9RZJ8F","cs_wg_rev_mem_pilot1","33LKR6A5KEL8KXRMGVBRHSBD5GT1TY","12","0","VOLCANO","4","ISLAND","4","0","593",,,,,"0","2018-10-02 22:32:38","241505"
"A1IOP3TS9RZJ8F","cs_wg_rev_mem_pilot1","33LKR6A5KEL8KXRMGVBRHSBD5GT1TY","13","0","PERFUME","4","AVOCADO","3","0","2086",,,,,"0","2018-10-02 22:32:41","241506"
"A1IOP3TS9RZJ8F","cs_wg_rev_mem_pilot1","33LKR6A5KEL8KXRMGVBRHSBD5GT1TY","14","0","COOKIE","2","PERFUME","4","0","266",,,,,"0","2018-10-02 22:32:43","241507"
"A1IOP3TS9RZJ8F","cs_wg_rev_mem_pilot1","33LKR6A5KEL8KXRMGVBRHSBD5GT1TY","15","0","THUMB","4","WIZARD","4","0","278",,,,,"0","2018-10-02 22:32:44","241508"
"A1IOP3TS9RZJ8F","cs_wg_rev_mem_pilot1","33LKR6A5KEL8KXRMGVBRHSBD5GT1TY","16","0","THUMB","4","JACKET","4","0","331",,,,,"0","2018-10-02 22:32:46","241509"
"A1IOP3TS9RZJ8F","cs_wg_rev_mem_pilot1","33LKR6A5KEL8KXRMGVBRHSBD5GT1TY","17","0","PERFUME","4","VOLCANO","4","0","285",,,,,"0","2018-10-02 22:32:48","241510"
"A1IOP3TS9RZJ8F","cs_wg_rev_mem_pilot1","33LKR6A5KEL8KXRMGVBRHSBD5GT1TY","18","0","VOLCANO","4","PERFUME","4","0","290",,,,,"0","2018-10-02 22:32:49","241511"
"A1IOP3TS9RZJ8F","cs_wg_rev_mem_pilot1","33LKR6A5KEL8KXRMGVBRHSBD5GT1TY","19","0","ISLAND","4","AVOCADO","3","0","291",,,,,"0","2018-10-02 22:32:51","241512"
"A1IOP3TS9RZJ8F","cs_wg_rev_mem_pilot1","33LKR6A5KEL8KXRMGVBRHSBD5GT1TY","20","0","PERFUME","4","JACKET","4","0","691",,,,,"0","2018-10-02 22:32:53","241513"
"A1IOP3TS9RZJ8F","cs_wg_rev_mem_pilot1","33LKR6A5KEL8KXRMGVBRHSBD5GT1TY","21","0","HOUSE","2","VOLCANO","4","0","285",,,,,"0","2018-10-02 22:32:55","241514"
"A1IOP3TS9RZJ8F","cs_wg_rev_mem_pilot1","33LKR6A5KEL8KXRMGVBRHSBD5GT1TY","22","0","JACKET","4","WIZARD","4","0","286",,,,,"0","2018-10-02 22:32:56","241515"
"A1IOP3TS9RZJ8F","cs_wg_rev_mem_pilot1","33LKR6A5KEL8KXRMGVBRHSBD5GT1TY","23","0","AVOCADO","3","HOUSE","2","0","432",,,,,"0","2018-10-02 22:32:58","241516"
"A1IOP3TS9RZJ8F","cs_wg_rev_mem_pilot1","33LKR6A5KEL8KXRMGVBRHSBD5GT1TY","24","0","JACKET","4","AVOCADO","3","0","613",,,,,"0","2018-10-02 22:33:00","241517"
"A1IOP3TS9RZJ8F","cs_wg_rev_mem_pilot1","33LKR6A5KEL8KXRMGVBRHSBD5GT1TY","25","0","WIZARD","4","AVOCADO","3","0","1037",,,,,"0","2018-10-02 22:33:02","241518"
"A1IOP3TS9RZJ8F","cs_wg_rev_mem_pilot1","33LKR6A5KEL8KXRMGVBRHSBD5GT1TY","26","0","HOUSE","2","JACKET","4","0","393",,,,,"0","2018-10-02 22:33:04","241519"
"A1IOP3TS9RZJ8F","cs_wg_rev_mem_pilot1","33LKR6A5KEL8KXRMGVBRHSBD5GT1TY","27","0","ISLAND","4","ROCKET","4","0","285",,,,,"0","2018-10-02 22:33:06","241520"
"A1IOP3TS9RZJ8F","cs_wg_rev_mem_pilot1","33LKR6A5KEL8KXRMGVBRHSBD5GT1TY","28","0","THUMB","4","PERFUME","4","0","292",,,,,"0","2018-10-02 22:33:07","241521"
"A1IOP3TS9RZJ8F","cs_wg_rev_mem_pilot1","33LKR6A5KEL8KXRMGVBRHSBD5GT1TY","29","0","ADULT","3","THUMB","4","0","299",,,,,"0","2018-10-02 22:33:09","241522"
"A1IOP3TS9RZJ8F","cs_wg_rev_mem_pilot1","33LKR6A5KEL8KXRMGVBRHSBD5GT1TY","30","0","VOLCANO","4","PUMPKIN","5","0","350",,,,,"0","2018-10-02 22:33:10","241523"
"A1IOP3TS9RZJ8F","cs_wg_rev_mem_pilot1","33LKR6A5KEL8KXRMGVBRHSBD5GT1TY","31","0","HOUSE","2","PUMPKIN","5","0","341",,,,,"0","2018-10-02 22:33:12","241524"
"A1IOP3TS9RZJ8F","cs_wg_rev_mem_pilot1","33LKR6A5KEL8KXRMGVBRHSBD5GT1TY","32","0","PUMPKIN","5","ISLAND","4","0","301",,,,,"0","2018-10-02 22:33:13","241525"
"A1IOP3TS9RZJ8F","cs_wg_rev_mem_pilot1","33LKR6A5KEL8KXRMGVBRHSBD5GT1TY","33","0","ISLAND","4","COOKIE","2","0","536",,,,,"0","2018-10-02 22:33:16","241526"
"A1IOP3TS9RZJ8F","cs_wg_rev_mem_pilot1","33LKR6A5KEL8KXRMGVBRHSBD5GT1TY","34","0","ADULT","3","ISLAND","4","0","463",,,,,"0","2018-10-02 22:33:18","241527"
"A1IOP3TS9RZJ8F","cs_wg_rev_mem_pilot1","33LKR6A5KEL8KXRMGVBRHSBD5GT1TY","35","0","AVOCADO","3","JACKET","4","0","420",,,,,"0","2018-10-02 22:33:20","241528"
"A1IOP3TS9RZJ8F","cs_wg_rev_mem_pilot1","33LKR6A5KEL8KXRMGVBRHSBD5GT1TY","36","0","JACKET","4","VOLCANO","4","0","365",,,,,"0","2018-10-02 22:33:22","241529"
"A1IOP3TS9RZJ8F","cs_wg_rev_mem_pilot1","33LKR6A5KEL8KXRMGVBRHSBD5GT1TY","37","0","THUMB","4","PUMPKIN","5","0","978",,,,,"0","2018-10-02 22:33:24","241530"
"A1IOP3TS9RZJ8F","cs_wg_rev_mem_pilot1","33LKR6A5KEL8KXRMGVBRHSBD5GT1TY","38","0","ADULT","3","COOKIE","2","0","315",,,,,"0","2018-10-02 22:33:26","241531"
"A1IOP3TS9RZJ8F","cs_wg_rev_mem_pilot1","33LKR6A5KEL8KXRMGVBRHSBD5GT1TY","39","0","ROCKET","4","VOLCANO","4","0","278",,,,,"0","2018-10-02 22:33:27","241532"
"A1IOP3TS9RZJ8F","cs_wg_rev_mem_pilot1","33LKR6A5KEL8KXRMGVBRHSBD5GT1TY","40","0","PUMPKIN","5","HOUSE","2","0","322",,,,,"0","2018-10-02 22:33:29","241533"
"A1IOP3TS9RZJ8F","cs_wg_rev_mem_pilot1","33LKR6A5KEL8KXRMGVBRHSBD5GT1TY","41","0","VOLCANO","4","ADULT","3","0","295",,,,,"0","2018-10-02 22:33:31","241534"
"A1IOP3TS9RZJ8F","cs_wg_rev_mem_pilot1","33LKR6A5KEL8KXRMGVBRHSBD5GT1TY","42","0","HOUSE","2","ADULT","3","0","232",,,,,"0","2018-10-02 22:33:32","241535"
"A1IOP3TS9RZJ8F","cs_wg_rev_mem_pilot1","33LKR6A5KEL8KXRMGVBRHSBD5GT1TY","43","0","PUMPKIN","5","PERFUME","4","0","635",,,,,"0","2018-10-02 22:33:34","241536"
"A1IOP3TS9RZJ8F","cs_wg_rev_mem_pilot1","33LKR6A5KEL8KXRMGVBRHSBD5GT1TY","44","0","THUMB","4","COOKIE","2","0","301",,,,,"0","2018-10-02 22:33:35","241537"
"A1IOP3TS9RZJ8F","cs_wg_rev_mem_pilot1","33LKR6A5KEL8KXRMGVBRHSBD5GT1TY","45","0","COOKIE","2","ADULT","3","0","262",,,,,"0","2018-10-02 22:33:37","241538"
"A1IOP3TS9RZJ8F","cs_wg_rev_mem_pilot1","33LKR6A5KEL8KXRMGVBRHSBD5GT1TY","46","0","PERFUME","4","WIZARD","4","0","197",,,,,"0","2018-10-02 22:33:39","241539"
"A1IOP3TS9RZJ8F","cs_wg_rev_mem_pilot1","33LKR6A5KEL8KXRMGVBRHSBD5GT1TY","47","0","ROCKET","4","ADULT","3","0","286",,,,,"0","2018-10-02 22:33:41","241540"
"A1IOP3TS9RZJ8F","cs_wg_rev_mem_pilot1","33LKR6A5KEL8KXRMGVBRHSBD5GT1TY","48","0","THUMB","4","AVOCADO","3","0","282",,,,,"0","2018-10-02 22:33:42","241541"
"A1IOP3TS9RZJ8F","cs_wg_rev_mem_pilot1","33LKR6A5KEL8KXRMGVBRHSBD5GT1TY","49","0","JACKET","4","ROCKET","4","0","289",,,,,"0","2018-10-02 22:33:44","241542"
"A1IOP3TS9RZJ8F","cs_wg_rev_mem_pilot1","33LKR6A5KEL8KXRMGVBRHSBD5GT1TY","50","0","AVOCADO","3","ISLAND","4","0","289",,,,,"0","2018-10-02 22:33:46","241543"
"A1IOP3TS9RZJ8F","cs_wg_rev_mem_pilot1","33LKR6A5KEL8KXRMGVBRHSBD5GT1TY","51","0","THUMB","4","HOUSE","2","0","295",,,,,"0","2018-10-02 22:33:48","241544"
"A1IOP3TS9RZJ8F","cs_wg_rev_mem_pilot1","33LKR6A5KEL8KXRMGVBRHSBD5GT1TY","52","0","THUMB","4","ADULT","3","0","350",,,,,"0","2018-10-02 22:33:49","241545"
"A1IOP3TS9RZJ8F","cs_wg_rev_mem_pilot1","33LKR6A5KEL8KXRMGVBRHSBD5GT1TY","53","0","PUMPKIN","5","ROCKET","4","0","314",,,,,"0","2018-10-02 22:33:51","241546"
"A1IOP3TS9RZJ8F","cs_wg_rev_mem_pilot1","33LKR6A5KEL8KXRMGVBRHSBD5GT1TY","54","0","PERFUME","4","ISLAND","4","0","306",,,,,"0","2018-10-02 22:33:53","241547"
"A1IOP3TS9RZJ8F","cs_wg_rev_mem_pilot1","33LKR6A5KEL8KXRMGVBRHSBD5GT1TY","55","0","WIZARD","4","HOUSE","2","0","509",,,,,"0","2018-10-02 22:33:55","241548"
"A1IOP3TS9RZJ8F","cs_wg_rev_mem_pilot1","33LKR6A5KEL8KXRMGVBRHSBD5GT1TY","56","0","HOUSE","2","PERFUME","4","0","365",,,,,"0","2018-10-02 22:33:57","241549"
"A1IOP3TS9RZJ8F","cs_wg_rev_mem_pilot1","33LKR6A5KEL8KXRMGVBRHSBD5GT1TY","57","0","AVOCADO","3","PERFUME","4","0","377",,,,,"0","2018-10-02 22:33:59","241550"
"A1IOP3TS9RZJ8F","cs_wg_rev_mem_pilot1","33LKR6A5KEL8KXRMGVBRHSBD5GT1TY","58","0","AVOCADO","3","THUMB","4","0","301",,,,,"0","2018-10-02 22:34:00","241551"
"A1IOP3TS9RZJ8F","cs_wg_rev_mem_pilot1","33LKR6A5KEL8KXRMGVBRHSBD5GT1TY","59","0","ISLAND","4","PUMPKIN","5","0","176",,,,,"0","2018-10-02 22:34:02","241552"
"A1IOP3TS9RZJ8F","cs_wg_rev_mem_pilot1","33LKR6A5KEL8KXRMGVBRHSBD5GT1TY","60","0","ADULT","3","PUMPKIN","5","0","183",,,,,"0","2018-10-02 22:34:03","241553"
"A1IOP3TS9RZJ8F","cs_wg_rev_mem_pilot1","33LKR6A5KEL8KXRMGVBRHSBD5GT1TY","61","0","VOLCANO","4","JACKET","4","0","91",,,,,"0","2018-10-02 22:34:05","241554"
"A1IOP3TS9RZJ8F","cs_wg_rev_mem_pilot1","33LKR6A5KEL8KXRMGVBRHSBD5GT1TY","62","0","JACKET","4","THUMB","4","0","514",,,,,"0","2018-10-02 22:34:06","241555"
"A1IOP3TS9RZJ8F","cs_wg_rev_mem_pilot1","33LKR6A5KEL8KXRMGVBRHSBD5GT1TY","63","0","PUMPKIN","5","JACKET","4","0","37",,,,,"0","2018-10-02 22:34:08","241556"
"A1IOP3TS9RZJ8F","cs_wg_rev_mem_pilot1","33LKR6A5KEL8KXRMGVBRHSBD5GT1TY","64","0","ROCKET","4","HOUSE","2","0","9483",,,,,"0","2018-10-02 22:34:20","241557"
"A1IOP3TS9RZJ8F","cs_wg_rev_mem_pilot1","33LKR6A5KEL8KXRMGVBRHSBD5GT1TY","65","0","COOKIE","2","ROCKET","4","0","354",,,,,"0","2018-10-02 22:34:21","241558"
"A1IOP3TS9RZJ8F","cs_wg_rev_mem_pilot1","33LKR6A5KEL8KXRMGVBRHSBD5GT1TY","66","0","VOLCANO","4","COOKIE","2","0","285",,,,,"0","2018-10-02 22:34:23","241559"
"A1IOP3TS9RZJ8F","cs_wg_rev_mem_pilot1","33LKR6A5KEL8KXRMGVBRHSBD5GT1TY","67","0","HOUSE","2","WIZARD","4","0","336",,,,,"0","2018-10-02 22:34:25","241560"
"A1IOP3TS9RZJ8F","cs_wg_rev_mem_pilot1","33LKR6A5KEL8KXRMGVBRHSBD5GT1TY","68","0","VOLCANO","4","AVOCADO","3","0","318",,,,,"0","2018-10-02 22:34:27","241561"
"A1IOP3TS9RZJ8F","cs_wg_rev_mem_pilot1","33LKR6A5KEL8KXRMGVBRHSBD5GT1TY","69","0","AVOCADO","3","ADULT","3","0","284",,,,,"0","2018-10-02 22:34:29","241562"
"A1IOP3TS9RZJ8F","cs_wg_rev_mem_pilot1","33LKR6A5KEL8KXRMGVBRHSBD5GT1TY","70","0","HOUSE","2","AVOCADO","3","0","326",,,,,"0","2018-10-02 22:34:31","241563"
"A1IOP3TS9RZJ8F","cs_wg_rev_mem_pilot1","33LKR6A5KEL8KXRMGVBRHSBD5GT1TY","71","0","COOKIE","2","PUMPKIN","5","0","412",,,,,"0","2018-10-02 22:34:32","241564"
"A1IOP3TS9RZJ8F","cs_wg_rev_mem_pilot1","33LKR6A5KEL8KXRMGVBRHSBD5GT1TY","72","0","JACKET","4","COOKIE","2","0","359",,,,,"0","2018-10-02 22:34:34","241565"
"A1IOP3TS9RZJ8F","cs_wg_rev_mem_pilot1","33LKR6A5KEL8KXRMGVBRHSBD5GT1TY","73","0","HOUSE","2","ISLAND","4","0","335",,,,,"0","2018-10-02 22:34:36","241566"
"A1IOP3TS9RZJ8F","cs_wg_rev_mem_pilot1","33LKR6A5KEL8KXRMGVBRHSBD5GT1TY","74","0","AVOCADO","3","ROCKET","4","0","334",,,,,"0","2018-10-02 22:34:38","241567"
"A1IOP3TS9RZJ8F","cs_wg_rev_mem_pilot1","33LKR6A5KEL8KXRMGVBRHSBD5GT1TY","75","0","HOUSE","2","COOKIE","2","0","308",,,,,"0","2018-10-02 22:34:40","241568"
"A1IOP3TS9RZJ8F","cs_wg_rev_mem_pilot1","33LKR6A5KEL8KXRMGVBRHSBD5GT1TY","76","0","PUMPKIN","5","COOKIE","2","0","251",,,,,"0","2018-10-02 22:34:42","241569"
"A1IOP3TS9RZJ8F","cs_wg_rev_mem_pilot1","33LKR6A5KEL8KXRMGVBRHSBD5GT1TY","77","0","VOLCANO","4","WIZARD","4","0","284",,,,,"0","2018-10-02 22:34:43","241570"
"A1IOP3TS9RZJ8F","cs_wg_rev_mem_pilot1","33LKR6A5KEL8KXRMGVBRHSBD5GT1TY","78","0","COOKIE","2","ISLAND","4","0","278",,,,,"0","2018-10-02 22:34:45","241571"
"A1IOP3TS9RZJ8F","cs_wg_rev_mem_pilot1","33LKR6A5KEL8KXRMGVBRHSBD5GT1TY","79","0","PERFUME","4","HOUSE","2","0","319",,,,,"0","2018-10-02 22:34:46","241572"
"A1IOP3TS9RZJ8F","cs_wg_rev_mem_pilot1","33LKR6A5KEL8KXRMGVBRHSBD5GT1TY","80","0","ROCKET","4","JACKET","4","0","298",,,,,"0","2018-10-02 22:34:48","241573"
"A1IOP3TS9RZJ8F","cs_wg_rev_mem_pilot1","33LKR6A5KEL8KXRMGVBRHSBD5GT1TY","81","0","THUMB","4","ISLAND","4","0","271",,,,,"0","2018-10-02 22:34:49","241574"
"A1IOP3TS9RZJ8F","cs_wg_rev_mem_pilot1","33LKR6A5KEL8KXRMGVBRHSBD5GT1TY","82","0","PUMPKIN","5","ADULT","3","0","294",,,,,"0","2018-10-02 22:34:51","241575"
"A1IOP3TS9RZJ8F","cs_wg_rev_mem_pilot1","33LKR6A5KEL8KXRMGVBRHSBD5GT1TY","83","0","PERFUME","4","PUMPKIN","5","0","325",,,,,"0","2018-10-02 22:34:53","241576"
"A1IOP3TS9RZJ8F","cs_wg_rev_mem_pilot1","33LKR6A5KEL8KXRMGVBRHSBD5GT1TY","84","0","ISLAND","4","VOLCANO","4","0","281",,,,,"0","2018-10-02 22:34:55","241577"
"A1IOP3TS9RZJ8F","cs_wg_rev_mem_pilot1","33LKR6A5KEL8KXRMGVBRHSBD5GT1TY","85","0","ISLAND","4","PERFUME","4","0","273",,,,,"0","2018-10-02 22:34:56","241578"
"A1IOP3TS9RZJ8F","cs_wg_rev_mem_pilot1","33LKR6A5KEL8KXRMGVBRHSBD5GT1TY","86","0","ISLAND","4","ADULT","3","0","162",,,,,"0","2018-10-02 22:34:58","241579"
"A1IOP3TS9RZJ8F","cs_wg_rev_mem_pilot1","33LKR6A5KEL8KXRMGVBRHSBD5GT1TY","87","0","WIZARD","4","ISLAND","4","0","340",,,,,"0","2018-10-02 22:35:00","241580"
"A1IOP3TS9RZJ8F","cs_wg_rev_mem_pilot1","33LKR6A5KEL8KXRMGVBRHSBD5GT1TY","88","0","ADULT","3","AVOCADO","3","0","317",,,,,"0","2018-10-02 22:35:02","241581"
"A1IOP3TS9RZJ8F","cs_wg_rev_mem_pilot1","33LKR6A5KEL8KXRMGVBRHSBD5GT1TY","89","0","ADULT","3","VOLCANO","4","0","77",,,,,"0","2018-10-02 22:35:03","241582"
"A1IOP3TS9RZJ8F","cs_wg_rev_mem_pilot1","33LKR6A5KEL8KXRMGVBRHSBD5GT1TY","90","0","HOUSE","2","ROCKET","4","0","230",,,,,"0","2018-10-02 22:35:05","241583"
"A1IOP3TS9RZJ8F","cs_wg_rev_mem_pilot1","33LKR6A5KEL8KXRMGVBRHSBD5GT1TY","91","0","ROCKET","4","PERFUME","4","0","213",,,,,"0","2018-10-02 22:35:06","241584"
"A1IOP3TS9RZJ8F","cs_wg_rev_mem_pilot1","33LKR6A5KEL8KXRMGVBRHSBD5GT1TY","92","0","HOUSE","2","THUMB","4","0","24",,,,,"0","2018-10-02 22:35:08","241585"
"A1IOP3TS9RZJ8F","cs_wg_rev_mem_pilot1","33LKR6A5KEL8KXRMGVBRHSBD5GT1TY","93","0","JACKET","4","HOUSE","2","0","725",,,,,"0","2018-10-02 22:35:10","241586"
"A1IOP3TS9RZJ8F","cs_wg_rev_mem_pilot1","33LKR6A5KEL8KXRMGVBRHSBD5GT1TY","94","0","PUMPKIN","5","WIZARD","4","0","46",,,,,"0","2018-10-02 22:35:12","241587"
"A1IOP3TS9RZJ8F","cs_wg_rev_mem_pilot1","33LKR6A5KEL8KXRMGVBRHSBD5GT1TY","95","0","COOKIE","2","VOLCANO","4","0","254",,,,,"0","2018-10-02 22:35:13","241588"
"A1IOP3TS9RZJ8F","cs_wg_rev_mem_pilot1","33LKR6A5KEL8KXRMGVBRHSBD5GT1TY","96","0","PUMPKIN","5","VOLCANO","4","0","228",,,,,"0","2018-10-02 22:35:15","241589"
"A1IOP3TS9RZJ8F","cs_wg_rev_mem_pilot1","33LKR6A5KEL8KXRMGVBRHSBD5GT1TY","97","0","AVOCADO","3","PUMPKIN","5","0","277",,,,,"0","2018-10-02 22:35:16","241590"
"A1IOP3TS9RZJ8F","cs_wg_rev_mem_pilot1","33LKR6A5KEL8KXRMGVBRHSBD5GT1TY","98","0","COOKIE","2","HOUSE","2","0","12928",,,,,"0","2018-10-02 22:35:31","241591"
"A1IOP3TS9RZJ8F","cs_wg_rev_mem_pilot1","33LKR6A5KEL8KXRMGVBRHSBD5GT1TY","99","0","ROCKET","4","THUMB","4","0","338",,,,,"0","2018-10-02 22:35:33","241592"
"A1IOP3TS9RZJ8F","cs_wg_rev_mem_pilot1","33LKR6A5KEL8KXRMGVBRHSBD5GT1TY","100","0","ADULT","3","HOUSE","2","0","854",,,,,"0","2018-10-02 22:35:35","241593"
"A1IOP3TS9RZJ8F","cs_wg_rev_mem_pilot1","33LKR6A5KEL8KXRMGVBRHSBD5GT1TY","101","0","ROCKET","4","AVOCADO","3","0","626",,,,,"0","2018-10-02 22:35:37","241594"
"A1IOP3TS9RZJ8F","cs_wg_rev_mem_pilot1","33LKR6A5KEL8KXRMGVBRHSBD5GT1TY","102","0","VOLCANO","4","HOUSE","2","0","321",,,,,"0","2018-10-02 22:35:39","241595"
"A1IOP3TS9RZJ8F","cs_wg_rev_mem_pilot1","33LKR6A5KEL8KXRMGVBRHSBD5GT1TY","103","0","ADULT","3","JACKET","4","0","359",,,,,"0","2018-10-02 22:35:41","241596"
"A1IOP3TS9RZJ8F","cs_wg_rev_mem_pilot1","33LKR6A5KEL8KXRMGVBRHSBD5GT1TY","104","0","VOLCANO","4","ROCKET","4","0","294",,,,,"0","2018-10-02 22:35:42","241597"
"A1IOP3TS9RZJ8F","cs_wg_rev_mem_pilot1","33LKR6A5KEL8KXRMGVBRHSBD5GT1TY","105","0","COOKIE","2","JACKET","4","0","301",,,,,"0","2018-10-02 22:35:44","241598"
"A1IOP3TS9RZJ8F","cs_wg_rev_mem_pilot1","33LKR6A5KEL8KXRMGVBRHSBD5GT1TY","106","0","THUMB","4","ROCKET","4","0","298",,,,,"0","2018-10-02 22:35:46","241599"
"A1IOP3TS9RZJ8F","cs_wg_rev_mem_pilot1","33LKR6A5KEL8KXRMGVBRHSBD5GT1TY","107","0","WIZARD","4","PERFUME","4","0","320",,,,,"0","2018-10-02 22:35:48","241600"
"A1IOP3TS9RZJ8F","cs_wg_rev_mem_pilot1","33LKR6A5KEL8KXRMGVBRHSBD5GT1TY","108","0","PERFUME","4","ADULT","3","0","317",,,,,"0","2018-10-02 22:35:49","241601"
"A1IOP3TS9RZJ8F","cs_wg_rev_mem_pilot1","33LKR6A5KEL8KXRMGVBRHSBD5GT1TY","109","0","ISLAND","4","THUMB","4","0","401",,,,,"0","2018-10-02 22:35:51","241602"
"A1IOP3TS9RZJ8F","cs_wg_rev_mem_pilot1","33LKR6A5KEL8KXRMGVBRHSBD5GT1TY","110","0","ROCKET","4","ISLAND","4","0","300",,,,,"0","2018-10-02 22:35:53","241603"
"A1IOP3TS9RZJ8F","cs_wg_rev_mem_pilot1","33LKR6A5KEL8KXRMGVBRHSBD5GT1TY","111","0","ADULT","3","ROCKET","4","0","290",,,,,"0","2018-10-02 22:35:55","241604"
"A1IOP3TS9RZJ8F","cs_wg_rev_mem_pilot1","33LKR6A5KEL8KXRMGVBRHSBD5GT1TY","112","0","ISLAND","4","HOUSE","2","0","282",,,,,"0","2018-10-02 22:35:56","241605"
"A1IOP3TS9RZJ8F","cs_wg_rev_mem_pilot1","33LKR6A5KEL8KXRMGVBRHSBD5GT1TY","113","0","WIZARD","4","JACKET","4","0","154",,,,,"0","2018-10-02 22:35:58","241606"
"A1IOP3TS9RZJ8F","cs_wg_rev_mem_pilot1","33LKR6A5KEL8KXRMGVBRHSBD5GT1TY","114","0","WIZARD","4","ADULT","3","0","309",,,,,"0","2018-10-02 22:35:59","241607"
"A1IOP3TS9RZJ8F","cs_wg_rev_mem_pilot1","33LKR6A5KEL8KXRMGVBRHSBD5GT1TY","115","0","JACKET","4","PERFUME","4","0","1",,,,,"0","2018-10-02 22:36:01","241608"
"A1IOP3TS9RZJ8F","cs_wg_rev_mem_pilot1","33LKR6A5KEL8KXRMGVBRHSBD5GT1TY","116","0","WIZARD","4","VOLCANO","4","0","84",,,,,"0","2018-10-02 22:36:02","241609"
"A1IOP3TS9RZJ8F","cs_wg_rev_mem_pilot1","33LKR6A5KEL8KXRMGVBRHSBD5GT1TY","117","0","ROCKET","4","COOKIE","2","0","139",,,,,"0","2018-10-02 22:36:04","241610"
"A1IOP3TS9RZJ8F","cs_wg_rev_mem_pilot1","33LKR6A5KEL8KXRMGVBRHSBD5GT1TY","118","0","ROCKET","4","WIZARD","4","0","116",,,,,"0","2018-10-02 22:36:05","241611"
"A1IOP3TS9RZJ8F","cs_wg_rev_mem_pilot1","33LKR6A5KEL8KXRMGVBRHSBD5GT1TY","119","0","PERFUME","4","COOKIE","2","0","126",,,,,"0","2018-10-02 22:36:07","241612"
"A1IOP3TS9RZJ8F","cs_wg_rev_mem_pilot1","33LKR6A5KEL8KXRMGVBRHSBD5GT1TY","120","0","ISLAND","4","WIZARD","4","0","88",,,,,"0","2018-10-02 22:36:08","241613"
"A1IOP3TS9RZJ8F","cs_wg_rev_mem_pilot1","33LKR6A5KEL8KXRMGVBRHSBD5GT1TY","121","0","ADULT","3","WIZARD","4","0","109",,,,,"0","2018-10-02 22:36:09","241614"
"A1IOP3TS9RZJ8F","cs_wg_rev_mem_pilot1","33LKR6A5KEL8KXRMGVBRHSBD5GT1TY","122","0","THUMB","4","VOLCANO","4","0","118",,,,,"0","2018-10-02 22:36:11","241615"
"A1IOP3TS9RZJ8F","cs_wg_rev_mem_pilot1","33LKR6A5KEL8KXRMGVBRHSBD5GT1TY","123","0","VOLCANO","4","THUMB","4","0","203",,,,,"0","2018-10-02 22:36:12","241616"
"A1IOP3TS9RZJ8F","cs_wg_rev_mem_pilot1","33LKR6A5KEL8KXRMGVBRHSBD5GT1TY","124","0","ADULT","3","PERFUME","4","0","329",,,,,"0","2018-10-02 22:36:15","241617"
"A1IOP3TS9RZJ8F","cs_wg_rev_mem_pilot1","33LKR6A5KEL8KXRMGVBRHSBD5GT1TY","125","0","WIZARD","4","COOKIE","2","0","325",,,,,"0","2018-10-02 22:36:16","241618"
"A1IOP3TS9RZJ8F","cs_wg_rev_mem_pilot1","33LKR6A5KEL8KXRMGVBRHSBD5GT1TY","126","0","WIZARD","4","PUMPKIN","5","0","492",,,,,"0","2018-10-02 22:36:18","241619"
"A1IOP3TS9RZJ8F","cs_wg_rev_mem_pilot1","33LKR6A5KEL8KXRMGVBRHSBD5GT1TY","127","0","AVOCADO","3","VOLCANO","4","0","475",,,,,"0","2018-10-02 22:36:20","241620"
"A1IOP3TS9RZJ8F","cs_wg_rev_mem_pilot1","33LKR6A5KEL8KXRMGVBRHSBD5GT1TY","128","0","WIZARD","4","ROCKET","4","0","310",,,,,"0","2018-10-02 22:36:22","241621"
"A1IOP3TS9RZJ8F","cs_wg_rev_mem_pilot1","33LKR6A5KEL8KXRMGVBRHSBD5GT1TY","129","0","JACKET","4","ADULT","3","0","982",,,,,"0","2018-10-02 22:36:24","241622"
"A1IOP3TS9RZJ8F","cs_wg_rev_mem_pilot1","33LKR6A5KEL8KXRMGVBRHSBD5GT1TY","130","0","COOKIE","2","AVOCADO","3","0","331",,,,,"0","2018-10-02 22:36:26","241623"
"A1IOP3TS9RZJ8F","cs_wg_rev_mem_pilot1","33LKR6A5KEL8KXRMGVBRHSBD5GT1TY","131","0","WIZARD","4","THUMB","4","0","2109",,,,,"0","2018-10-02 22:36:30","241624"
"A3JTDNRJYVCGQD","cs_wg_rev_mem_pilot1","3FE7TXL1LIO2H2HQIVHAH6AVDFSQ2A","0","0","ISLAND","4","SQUID","3","0","8056",,,,,"0","2018-10-02 22:36:39","241625"
"A3JTDNRJYVCGQD","cs_wg_rev_mem_pilot1","3FE7TXL1LIO2H2HQIVHAH6AVDFSQ2A","1","0","CHICKEN","5","SAUCE","2","0","2867",,,,,"0","2018-10-02 22:36:45","241626"
"A3JTDNRJYVCGQD","cs_wg_rev_mem_pilot1","3FE7TXL1LIO2H2HQIVHAH6AVDFSQ2A","2","0","ISLAND","4","JACKET","4","0","5348",,,,,"0","2018-10-02 22:36:55","241627"
"A3JTDNRJYVCGQD","cs_wg_rev_mem_pilot1","3FE7TXL1LIO2H2HQIVHAH6AVDFSQ2A","3","0","ISLAND","4","COSTUME","4","0","7980",,,,,"0","2018-10-02 22:37:05","241628"
"A3JTDNRJYVCGQD","cs_wg_rev_mem_pilot1","3FE7TXL1LIO2H2HQIVHAH6AVDFSQ2A","4","0","COWBOY","3","ISLAND","4","0","4851",,,,,"0","2018-10-02 22:37:15","241629"
"A3JTDNRJYVCGQD","cs_wg_rev_mem_pilot1","3FE7TXL1LIO2H2HQIVHAH6AVDFSQ2A","5","0","PERFUME","4","CHICKEN","5","1","7112",,,,,"0","2018-10-02 22:37:26","241630"
"A3JTDNRJYVCGQD","cs_wg_rev_mem_pilot1","3FE7TXL1LIO2H2HQIVHAH6AVDFSQ2A","6","0","COWBOY","3","PERFUME","4","1","4527",,,,,"0","2018-10-02 22:37:34","241631"
"A3JTDNRJYVCGQD","cs_wg_rev_mem_pilot1","3FE7TXL1LIO2H2HQIVHAH6AVDFSQ2A","7","0","PUMPKIN","5","CHICKEN","5","0","5654",,,,,"0","2018-10-02 22:37:42","241632"
"A3JTDNRJYVCGQD","cs_wg_rev_mem_pilot1","3FE7TXL1LIO2H2HQIVHAH6AVDFSQ2A","8","0","CHICKEN","5","JACKET","4","0","5626",,,,,"0","2018-10-02 22:37:50","241633"
"A3JTDNRJYVCGQD","cs_wg_rev_mem_pilot1","3FE7TXL1LIO2H2HQIVHAH6AVDFSQ2A","9","0","PUMPKIN","5","PALACE","3","0","4592",,,,,"0","2018-10-02 22:37:56","241634"
"A3JTDNRJYVCGQD","cs_wg_rev_mem_pilot1","3FE7TXL1LIO2H2HQIVHAH6AVDFSQ2A","10","0","JACKET","4","NAPKIN","4","0","4196",,,,,"0","2018-10-02 22:38:03","241635"
"A3JTDNRJYVCGQD","cs_wg_rev_mem_pilot1","3FE7TXL1LIO2H2HQIVHAH6AVDFSQ2A","11","0","SAUCE","2","ISLAND","4","1","3344",,,,,"0","2018-10-02 22:38:09","241636"
"A3JTDNRJYVCGQD","cs_wg_rev_mem_pilot1","3FE7TXL1LIO2H2HQIVHAH6AVDFSQ2A","12","0","COSTUME","4","PALACE","3","0","3748",,,,,"0","2018-10-02 22:38:16","241637"
"A3JTDNRJYVCGQD","cs_wg_rev_mem_pilot1","3FE7TXL1LIO2H2HQIVHAH6AVDFSQ2A","13","0","JACKET","4","CHICKEN","5","1","2705",,,,,"0","2018-10-02 22:38:20","241638"
"A3JTDNRJYVCGQD","cs_wg_rev_mem_pilot1","3FE7TXL1LIO2H2HQIVHAH6AVDFSQ2A","14","0","COWBOY","3","SAUCE","2","0","2410",,,,,"0","2018-10-02 22:38:25","241639"
"A3JTDNRJYVCGQD","cs_wg_rev_mem_pilot1","3FE7TXL1LIO2H2HQIVHAH6AVDFSQ2A","15","0","SQUID","3","COSTUME","4","1","3604",,,,,"0","2018-10-02 22:38:30","241640"
"A3JTDNRJYVCGQD","cs_wg_rev_mem_pilot1","3FE7TXL1LIO2H2HQIVHAH6AVDFSQ2A","16","0","CHICKEN","5","ISLAND","4","0","2095",,,,,"0","2018-10-02 22:38:35","241641"
"A3JTDNRJYVCGQD","cs_wg_rev_mem_pilot1","3FE7TXL1LIO2H2HQIVHAH6AVDFSQ2A","17","0","SAUCE","2","PUMPKIN","5","1","1440",,,,,"0","2018-10-02 22:38:38","241642"
"A3JTDNRJYVCGQD","cs_wg_rev_mem_pilot1","3FE7TXL1LIO2H2HQIVHAH6AVDFSQ2A","18","0","CHICKEN","5","COSTUME","4","0","2932",,,,,"0","2018-10-02 22:38:43","241643"
"A3JTDNRJYVCGQD","cs_wg_rev_mem_pilot1","3FE7TXL1LIO2H2HQIVHAH6AVDFSQ2A","19","0","PERFUME","4","SAUCE","2","0","1977",,,,,"0","2018-10-02 22:38:47","241644"
"A3JTDNRJYVCGQD","cs_wg_rev_mem_pilot1","3FE7TXL1LIO2H2HQIVHAH6AVDFSQ2A","20","0","PUMPKIN","5","RABBIT","4","0","3526",,,,,"0","2018-10-02 22:38:53","241645"
"A3JTDNRJYVCGQD","cs_wg_rev_mem_pilot1","3FE7TXL1LIO2H2HQIVHAH6AVDFSQ2A","21","0","PERFUME","4","PUMPKIN","5","1","2173",,,,,"0","2018-10-02 22:38:57","241646"
"A3JTDNRJYVCGQD","cs_wg_rev_mem_pilot1","3FE7TXL1LIO2H2HQIVHAH6AVDFSQ2A","22","0","PERFUME","4","SQUID","3","0","1795",,,,,"0","2018-10-02 22:39:01","241647"
"A3JTDNRJYVCGQD","cs_wg_rev_mem_pilot1","3FE7TXL1LIO2H2HQIVHAH6AVDFSQ2A","23","0","SAUCE","2","COSTUME","4","1","3637",,,,,"0","2018-10-02 22:39:06","241648"
"A3JTDNRJYVCGQD","cs_wg_rev_mem_pilot1","3FE7TXL1LIO2H2HQIVHAH6AVDFSQ2A","24","0","PERFUME","4","ISLAND","4","0","2009",,,,,"0","2018-10-02 22:39:11","241649"
"A3JTDNRJYVCGQD","cs_wg_rev_mem_pilot1","3FE7TXL1LIO2H2HQIVHAH6AVDFSQ2A","25","0","SQUID","3","NAPKIN","4","1","2838",,,,,"0","2018-10-02 22:39:16","241650"
"A3JTDNRJYVCGQD","cs_wg_rev_mem_pilot1","3FE7TXL1LIO2H2HQIVHAH6AVDFSQ2A","26","0","NAPKIN","4","RABBIT","4","0","2827",,,,,"0","2018-10-02 22:39:20","241651"
"A3JTDNRJYVCGQD","cs_wg_rev_mem_pilot1","3FE7TXL1LIO2H2HQIVHAH6AVDFSQ2A","27","0","ISLAND","4","CHICKEN","5","1","3527",,,,,"0","2018-10-02 22:39:26","241652"
"A3JTDNRJYVCGQD","cs_wg_rev_mem_pilot1","3FE7TXL1LIO2H2HQIVHAH6AVDFSQ2A","28","0","COSTUME","4","RABBIT","4","0","2041",,,,,"0","2018-10-02 22:39:30","241653"
"A3JTDNRJYVCGQD","cs_wg_rev_mem_pilot1","3FE7TXL1LIO2H2HQIVHAH6AVDFSQ2A","29","0","PUMPKIN","5","SQUID","3","0","1044",,,,,"0","2018-10-02 22:39:33","241654"
"A3JTDNRJYVCGQD","cs_wg_rev_mem_pilot1","3FE7TXL1LIO2H2HQIVHAH6AVDFSQ2A","30","0","CHICKEN","5","PUMPKIN","5","1","1358",,,,,"0","2018-10-02 22:39:36","241655"
"A3JTDNRJYVCGQD","cs_wg_rev_mem_pilot1","3FE7TXL1LIO2H2HQIVHAH6AVDFSQ2A","31","0","JACKET","4","SAUCE","2","0","1209",,,,,"0","2018-10-02 22:39:39","241656"
"A3JTDNRJYVCGQD","cs_wg_rev_mem_pilot1","3FE7TXL1LIO2H2HQIVHAH6AVDFSQ2A","32","0","CHICKEN","5","PERFUME","4","1","1298",,,,,"0","2018-10-02 22:39:43","241657"
"A3JTDNRJYVCGQD","cs_wg_rev_mem_pilot1","3FE7TXL1LIO2H2HQIVHAH6AVDFSQ2A","33","0","CHICKEN","5","PALACE","3","0","1452",,,,,"0","2018-10-02 22:39:46","241658"
"A3JTDNRJYVCGQD","cs_wg_rev_mem_pilot1","3FE7TXL1LIO2H2HQIVHAH6AVDFSQ2A","34","0","PALACE","3","SAUCE","2","0","1384",,,,,"0","2018-10-02 22:39:50","241659"
"A3JTDNRJYVCGQD","cs_wg_rev_mem_pilot1","3FE7TXL1LIO2H2HQIVHAH6AVDFSQ2A","35","0","SQUID","3","RABBIT","4","1","1158",,,,,"0","2018-10-02 22:39:53","241660"
"A3JTDNRJYVCGQD","cs_wg_rev_mem_pilot1","3FE7TXL1LIO2H2HQIVHAH6AVDFSQ2A","36","0","ISLAND","4","RABBIT","4","0","3981",,,,,"0","2018-10-02 22:39:59","241661"
"A3JTDNRJYVCGQD","cs_wg_rev_mem_pilot1","3FE7TXL1LIO2H2HQIVHAH6AVDFSQ2A","37","0","CHICKEN","5","RABBIT","4","0","1329",,,,,"0","2018-10-02 22:40:02","241662"
"A3JTDNRJYVCGQD","cs_wg_rev_mem_pilot1","3FE7TXL1LIO2H2HQIVHAH6AVDFSQ2A","38","0","PUMPKIN","5","ISLAND","4","0","850",,,,,"0","2018-10-02 22:40:05","241663"
"A3JTDNRJYVCGQD","cs_wg_rev_mem_pilot1","3FE7TXL1LIO2H2HQIVHAH6AVDFSQ2A","39","0","SQUID","3","COWBOY","3","1","1173",,,,,"0","2018-10-02 22:40:08","241664"
"A3JTDNRJYVCGQD","cs_wg_rev_mem_pilot1","3FE7TXL1LIO2H2HQIVHAH6AVDFSQ2A","40","0","PALACE","3","PERFUME","4","1","3056",,,,,"0","2018-10-02 22:40:13","241665"
"A3JTDNRJYVCGQD","cs_wg_rev_mem_pilot1","3FE7TXL1LIO2H2HQIVHAH6AVDFSQ2A","41","0","SQUID","3","JACKET","4","1","886",,,,,"0","2018-10-02 22:40:16","241666"
"A3JTDNRJYVCGQD","cs_wg_rev_mem_pilot1","3FE7TXL1LIO2H2HQIVHAH6AVDFSQ2A","42","0","JACKET","4","PERFUME","4","1","937",,,,,"0","2018-10-02 22:40:19","241667"
"A3JTDNRJYVCGQD","cs_wg_rev_mem_pilot1","3FE7TXL1LIO2H2HQIVHAH6AVDFSQ2A","43","0","PUMPKIN","5","SAUCE","2","0","1354",,,,,"0","2018-10-02 22:40:22","241668"
"A3JTDNRJYVCGQD","cs_wg_rev_mem_pilot1","3FE7TXL1LIO2H2HQIVHAH6AVDFSQ2A","44","0","RABBIT","4","CHICKEN","5","1","1055",,,,,"0","2018-10-02 22:40:25","241669"
"A3JTDNRJYVCGQD","cs_wg_rev_mem_pilot1","3FE7TXL1LIO2H2HQIVHAH6AVDFSQ2A","45","0","NAPKIN","4","JACKET","4","0","1946",,,,,"0","2018-10-02 22:40:29","241670"
"A3JTDNRJYVCGQD","cs_wg_rev_mem_pilot1","3FE7TXL1LIO2H2HQIVHAH6AVDFSQ2A","46","0","JACKET","4","PALACE","3","0","2033",,,,,"0","2018-10-02 22:40:33","241671"
"A3JTDNRJYVCGQD","cs_wg_rev_mem_pilot1","3FE7TXL1LIO2H2HQIVHAH6AVDFSQ2A","47","0","PALACE","3","PUMPKIN","5","1","898",,,,,"0","2018-10-02 22:40:35","241672"
"A3JTDNRJYVCGQD","cs_wg_rev_mem_pilot1","3FE7TXL1LIO2H2HQIVHAH6AVDFSQ2A","48","0","COWBOY","3","PALACE","3","0","2821",,,,,"0","2018-10-02 22:40:40","241673"
"A3JTDNRJYVCGQD","cs_wg_rev_mem_pilot1","3FE7TXL1LIO2H2HQIVHAH6AVDFSQ2A","49","0","PERFUME","4","RABBIT","4","0","2692",,,,,"0","2018-10-02 22:40:44","241674"
"A3JTDNRJYVCGQD","cs_wg_rev_mem_pilot1","3FE7TXL1LIO2H2HQIVHAH6AVDFSQ2A","50","0","COSTUME","4","CHICKEN","5","1","1906",,,,,"0","2018-10-02 22:40:48","241675"
"A3JTDNRJYVCGQD","cs_wg_rev_mem_pilot1","3FE7TXL1LIO2H2HQIVHAH6AVDFSQ2A","51","0","RABBIT","4","PUMPKIN","5","1","811",,,,,"0","2018-10-02 22:40:50","241676"
"A3JTDNRJYVCGQD","cs_wg_rev_mem_pilot1","3FE7TXL1LIO2H2HQIVHAH6AVDFSQ2A","52","0","SAUCE","2","RABBIT","4","1","795",,,,,"0","2018-10-02 22:40:53","241677"
"A3JTDNRJYVCGQD","cs_wg_rev_mem_pilot1","3FE7TXL1LIO2H2HQIVHAH6AVDFSQ2A","53","0","SAUCE","2","COWBOY","3","1","860",,,,,"0","2018-10-02 22:40:55","241678"
"A3JTDNRJYVCGQD","cs_wg_rev_mem_pilot1","3FE7TXL1LIO2H2HQIVHAH6AVDFSQ2A","54","0","COSTUME","4","PUMPKIN","5","1","1131",,,,,"0","2018-10-02 22:40:58","241679"
"A3JTDNRJYVCGQD","cs_wg_rev_mem_pilot1","3FE7TXL1LIO2H2HQIVHAH6AVDFSQ2A","55","0","NAPKIN","4","PERFUME","4","1","3411",,,,,"0","2018-10-02 22:41:04","241680"
"A3JTDNRJYVCGQD","cs_wg_rev_mem_pilot1","3FE7TXL1LIO2H2HQIVHAH6AVDFSQ2A","56","0","NAPKIN","4","CHICKEN","5","1","916",,,,,"0","2018-10-02 22:41:06","241681"
"A3JTDNRJYVCGQD","cs_wg_rev_mem_pilot1","3FE7TXL1LIO2H2HQIVHAH6AVDFSQ2A","57","0","RABBIT","4","PALACE","3","0","1737",,,,,"0","2018-10-02 22:41:10","241682"
"A3JTDNRJYVCGQD","cs_wg_rev_mem_pilot1","3FE7TXL1LIO2H2HQIVHAH6AVDFSQ2A","58","0","RABBIT","4","ISLAND","4","0","2857",,,,,"0","2018-10-02 22:41:15","241683"
"A3JTDNRJYVCGQD","cs_wg_rev_mem_pilot1","3FE7TXL1LIO2H2HQIVHAH6AVDFSQ2A","59","0","COWBOY","3","RABBIT","4","1","2282",,,,,"0","2018-10-02 22:41:19","241684"
"A3JTDNRJYVCGQD","cs_wg_rev_mem_pilot1","3FE7TXL1LIO2H2HQIVHAH6AVDFSQ2A","60","0","COSTUME","4","COWBOY","3","0","5248",,,,,"0","2018-10-02 22:41:28","241685"
"A3JTDNRJYVCGQD","cs_wg_rev_mem_pilot1","3FE7TXL1LIO2H2HQIVHAH6AVDFSQ2A","61","0","NAPKIN","4","ISLAND","4","1","3815",,,,,"0","2018-10-02 22:41:34","241686"
"A3JTDNRJYVCGQD","cs_wg_rev_mem_pilot1","3FE7TXL1LIO2H2HQIVHAH6AVDFSQ2A","62","0","RABBIT","4","SAUCE","2","0","908",,,,,"0","2018-10-02 22:41:36","241687"
"A3JTDNRJYVCGQD","cs_wg_rev_mem_pilot1","3FE7TXL1LIO2H2HQIVHAH6AVDFSQ2A","63","0","RABBIT","4","JACKET","4","1","2550",,,,,"0","2018-10-02 22:41:41","241688"
"A3JTDNRJYVCGQD","cs_wg_rev_mem_pilot1","3FE7TXL1LIO2H2HQIVHAH6AVDFSQ2A","64","0","JACKET","4","COWBOY","3","0","1854",,,,,"0","2018-10-02 22:41:44","241689"
"A3JTDNRJYVCGQD","cs_wg_rev_mem_pilot1","3FE7TXL1LIO2H2HQIVHAH6AVDFSQ2A","65","0","RABBIT","4","SQUID","3","0","1940",,,,,"0","2018-10-02 22:41:52","241690"
"A3JTDNRJYVCGQD","cs_wg_rev_mem_pilot1","3FE7TXL1LIO2H2HQIVHAH6AVDFSQ2A","66","0","SAUCE","2","JACKET","4","1","969",,,,,"0","2018-10-02 22:41:55","241691"
"A3JTDNRJYVCGQD","cs_wg_rev_mem_pilot1","3FE7TXL1LIO2H2HQIVHAH6AVDFSQ2A","67","0","ISLAND","4","PUMPKIN","5","1","856",,,,,"0","2018-10-02 22:41:58","241692"
"A3JTDNRJYVCGQD","cs_wg_rev_mem_pilot1","3FE7TXL1LIO2H2HQIVHAH6AVDFSQ2A","68","0","RABBIT","4","NAPKIN","4","1","1294",,,,,"0","2018-10-02 22:42:01","241693"
"A3JTDNRJYVCGQD","cs_wg_rev_mem_pilot1","3FE7TXL1LIO2H2HQIVHAH6AVDFSQ2A","69","0","CHICKEN","5","NAPKIN","4","0","799",,,,,"0","2018-10-02 22:42:04","241694"
"A3JTDNRJYVCGQD","cs_wg_rev_mem_pilot1","3FE7TXL1LIO2H2HQIVHAH6AVDFSQ2A","70","0","SAUCE","2","PERFUME","4","1","983",,,,,"0","2018-10-02 22:42:07","241695"
"A3JTDNRJYVCGQD","cs_wg_rev_mem_pilot1","3FE7TXL1LIO2H2HQIVHAH6AVDFSQ2A","71","0","PUMPKIN","5","PERFUME","4","0","1175",,,,,"0","2018-10-02 22:42:10","241696"
"A3JTDNRJYVCGQD","cs_wg_rev_mem_pilot1","3FE7TXL1LIO2H2HQIVHAH6AVDFSQ2A","72","0","SQUID","3","PALACE","3","1","746",,,,,"0","2018-10-02 22:42:12","241697"
"A3JTDNRJYVCGQD","cs_wg_rev_mem_pilot1","3FE7TXL1LIO2H2HQIVHAH6AVDFSQ2A","73","0","COSTUME","4","SAUCE","2","0","1363",,,,,"0","2018-10-02 22:42:15","241698"
"A3JTDNRJYVCGQD","cs_wg_rev_mem_pilot1","3FE7TXL1LIO2H2HQIVHAH6AVDFSQ2A","74","0","JACKET","4","ISLAND","4","1","1268",,,,,"0","2018-10-02 22:42:18","241699"
"A3JTDNRJYVCGQD","cs_wg_rev_mem_pilot1","3FE7TXL1LIO2H2HQIVHAH6AVDFSQ2A","75","0","PALACE","3","CHICKEN","5","1","1102",,,,,"0","2018-10-02 22:42:21","241700"
"A3JTDNRJYVCGQD","cs_wg_rev_mem_pilot1","3FE7TXL1LIO2H2HQIVHAH6AVDFSQ2A","76","0","ISLAND","4","COWBOY","3","0","1547",,,,,"0","2018-10-02 22:42:24","241701"
"A3JTDNRJYVCGQD","cs_wg_rev_mem_pilot1","3FE7TXL1LIO2H2HQIVHAH6AVDFSQ2A","77","0","SAUCE","2","SQUID","3","0","3301",,,,,"0","2018-10-02 22:42:30","241702"
"A3JTDNRJYVCGQD","cs_wg_rev_mem_pilot1","3FE7TXL1LIO2H2HQIVHAH6AVDFSQ2A","78","0","PUMPKIN","5","COSTUME","4","0","1271",,,,,"0","2018-10-02 22:42:33","241703"
"A3JTDNRJYVCGQD","cs_wg_rev_mem_pilot1","3FE7TXL1LIO2H2HQIVHAH6AVDFSQ2A","79","0","ISLAND","4","SAUCE","2","0","1292",,,,,"0","2018-10-02 22:42:36","241704"
"A3JTDNRJYVCGQD","cs_wg_rev_mem_pilot1","3FE7TXL1LIO2H2HQIVHAH6AVDFSQ2A","80","0","SAUCE","2","CHICKEN","5","1","1687",,,,,"0","2018-10-02 22:42:40","241705"
"A3JTDNRJYVCGQD","cs_wg_rev_mem_pilot1","3FE7TXL1LIO2H2HQIVHAH6AVDFSQ2A","81","0","SQUID","3","PUMPKIN","5","1","830",,,,,"0","2018-10-02 22:42:42","241706"
"A3JTDNRJYVCGQD","cs_wg_rev_mem_pilot1","3FE7TXL1LIO2H2HQIVHAH6AVDFSQ2A","82","0","ISLAND","4","PERFUME","4","1","1496",,,,,"0","2018-10-02 22:42:45","241707"
"A3JTDNRJYVCGQD","cs_wg_rev_mem_pilot1","3FE7TXL1LIO2H2HQIVHAH6AVDFSQ2A","83","0","COWBOY","3","NAPKIN","4","1","1407",,,,,"0","2018-10-02 22:42:48","241708"
"A3JTDNRJYVCGQD","cs_wg_rev_mem_pilot1","3FE7TXL1LIO2H2HQIVHAH6AVDFSQ2A","84","0","COWBOY","3","CHICKEN","5","1","849",,,,,"0","2018-10-02 22:42:51","241709"
"A3JTDNRJYVCGQD","cs_wg_rev_mem_pilot1","3FE7TXL1LIO2H2HQIVHAH6AVDFSQ2A","85","0","COSTUME","4","SQUID","3","0","1017",,,,,"0","2018-10-02 22:42:54","241710"
"A3JTDNRJYVCGQD","cs_wg_rev_mem_pilot1","3FE7TXL1LIO2H2HQIVHAH6AVDFSQ2A","86","0","COWBOY","3","PUMPKIN","5","1","825",,,,,"0","2018-10-02 22:42:56","241711"
"A3JTDNRJYVCGQD","cs_wg_rev_mem_pilot1","3FE7TXL1LIO2H2HQIVHAH6AVDFSQ2A","87","0","PERFUME","4","NAPKIN","4","0","738",,,,,"0","2018-10-02 22:43:00","241712"
"A3JTDNRJYVCGQD","cs_wg_rev_mem_pilot1","3FE7TXL1LIO2H2HQIVHAH6AVDFSQ2A","88","0","PALACE","3","SQUID","3","0","872",,,,,"0","2018-10-02 22:43:02","241713"
"A3JTDNRJYVCGQD","cs_wg_rev_mem_pilot1","3FE7TXL1LIO2H2HQIVHAH6AVDFSQ2A","89","0","SAUCE","2","PALACE","3","1","1178",,,,,"0","2018-10-02 22:43:05","241714"
"A3JTDNRJYVCGQD","cs_wg_rev_mem_pilot1","3FE7TXL1LIO2H2HQIVHAH6AVDFSQ2A","90","0","COSTUME","4","NAPKIN","4","1","2051",,,,,"0","2018-10-02 22:43:09","241715"
"A3JTDNRJYVCGQD","cs_wg_rev_mem_pilot1","3FE7TXL1LIO2H2HQIVHAH6AVDFSQ2A","91","0","COSTUME","4","JACKET","4","1","947",,,,,"0","2018-10-02 22:43:12","241716"
"A3JTDNRJYVCGQD","cs_wg_rev_mem_pilot1","3FE7TXL1LIO2H2HQIVHAH6AVDFSQ2A","92","0","COWBOY","3","JACKET","4","1","877",,,,,"0","2018-10-02 22:43:14","241717"
"A3JTDNRJYVCGQD","cs_wg_rev_mem_pilot1","3FE7TXL1LIO2H2HQIVHAH6AVDFSQ2A","93","0","JACKET","4","SQUID","3","0","912",,,,,"0","2018-10-02 22:43:17","241718"
"A3JTDNRJYVCGQD","cs_wg_rev_mem_pilot1","3FE7TXL1LIO2H2HQIVHAH6AVDFSQ2A","94","0","PUMPKIN","5","JACKET","4","0","1048",,,,,"0","2018-10-02 22:43:20","241719"
"A3JTDNRJYVCGQD","cs_wg_rev_mem_pilot1","3FE7TXL1LIO2H2HQIVHAH6AVDFSQ2A","95","0","SAUCE","2","NAPKIN","4","1","939",,,,,"0","2018-10-02 22:43:22","241720"
"A3JTDNRJYVCGQD","cs_wg_rev_mem_pilot1","3FE7TXL1LIO2H2HQIVHAH6AVDFSQ2A","96","0","PERFUME","4","COWBOY","3","0","945",,,,,"0","2018-10-02 22:43:25","241721"
"A3JTDNRJYVCGQD","cs_wg_rev_mem_pilot1","3FE7TXL1LIO2H2HQIVHAH6AVDFSQ2A","97","0","CHICKEN","5","SQUID","3","0","1045",,,,,"0","2018-10-02 22:43:28","241722"
"A3JTDNRJYVCGQD","cs_wg_rev_mem_pilot1","3FE7TXL1LIO2H2HQIVHAH6AVDFSQ2A","98","0","PALACE","3","COSTUME","4","1","2666",,,,,"0","2018-10-02 22:43:32","241723"
"A3JTDNRJYVCGQD","cs_wg_rev_mem_pilot1","3FE7TXL1LIO2H2HQIVHAH6AVDFSQ2A","99","0","SQUID","3","SAUCE","2","0","1157",,,,,"0","2018-10-02 22:43:35","241724"
"A3JTDNRJYVCGQD","cs_wg_rev_mem_pilot1","3FE7TXL1LIO2H2HQIVHAH6AVDFSQ2A","100","0","PERFUME","4","COSTUME","4","0","3104",,,,,"0","2018-10-02 22:43:40","241725"
"A3JTDNRJYVCGQD","cs_wg_rev_mem_pilot1","3FE7TXL1LIO2H2HQIVHAH6AVDFSQ2A","101","0","NAPKIN","4","COWBOY","3","0","1115",,,,,"0","2018-10-02 22:43:43","241726"
"A3JTDNRJYVCGQD","cs_wg_rev_mem_pilot1","3FE7TXL1LIO2H2HQIVHAH6AVDFSQ2A","102","0","RABBIT","4","COWBOY","3","0","1404",,,,,"0","2018-10-02 22:43:46","241727"
"A3JTDNRJYVCGQD","cs_wg_rev_mem_pilot1","3FE7TXL1LIO2H2HQIVHAH6AVDFSQ2A","103","0","NAPKIN","4","PUMPKIN","5","1","862",,,,,"0","2018-10-02 22:43:49","241728"
"A3JTDNRJYVCGQD","cs_wg_rev_mem_pilot1","3FE7TXL1LIO2H2HQIVHAH6AVDFSQ2A","104","0","NAPKIN","4","SQUID","3","0","1406",,,,,"0","2018-10-02 22:43:52","241729"
"A3JTDNRJYVCGQD","cs_wg_rev_mem_pilot1","3FE7TXL1LIO2H2HQIVHAH6AVDFSQ2A","105","0","ISLAND","4","NAPKIN","4","1","1730",,,,,"0","2018-10-02 22:43:56","241730"
"A3JTDNRJYVCGQD","cs_wg_rev_mem_pilot1","3FE7TXL1LIO2H2HQIVHAH6AVDFSQ2A","106","0","JACKET","4","PUMPKIN","5","1","1483",,,,,"0","2018-10-02 22:43:59","241731"
"A3JTDNRJYVCGQD","cs_wg_rev_mem_pilot1","3FE7TXL1LIO2H2HQIVHAH6AVDFSQ2A","107","0","ISLAND","4","PALACE","3","0","2892",,,,,"0","2018-10-02 22:44:04","241732"
"A3JTDNRJYVCGQD","cs_wg_rev_mem_pilot1","3FE7TXL1LIO2H2HQIVHAH6AVDFSQ2A","108","0","PUMPKIN","5","NAPKIN","4","0","659",,,,,"0","2018-10-02 22:44:06","241733"
"A3JTDNRJYVCGQD","cs_wg_rev_mem_pilot1","3FE7TXL1LIO2H2HQIVHAH6AVDFSQ2A","109","0","NAPKIN","4","PALACE","3","0","1412",,,,,"0","2018-10-02 22:44:10","241734"
"A3JTDNRJYVCGQD","cs_wg_rev_mem_pilot1","3FE7TXL1LIO2H2HQIVHAH6AVDFSQ2A","110","0","COSTUME","4","PERFUME","4","1","2892",,,,,"0","2018-10-02 22:44:15","241735"
"A3JTDNRJYVCGQD","cs_wg_rev_mem_pilot1","3FE7TXL1LIO2H2HQIVHAH6AVDFSQ2A","111","0","NAPKIN","4","COSTUME","4","0","1355",,,,,"0","2018-10-02 22:44:18","241736"
"A3JTDNRJYVCGQD","cs_wg_rev_mem_pilot1","3FE7TXL1LIO2H2HQIVHAH6AVDFSQ2A","112","0","COWBOY","3","COSTUME","4","1","786",,,,,"0","2018-10-02 22:44:20","241737"
"A3JTDNRJYVCGQD","cs_wg_rev_mem_pilot1","3FE7TXL1LIO2H2HQIVHAH6AVDFSQ2A","113","0","PALACE","3","COWBOY","3","0","1984",,,,,"0","2018-10-02 22:44:24","241738"
"A3JTDNRJYVCGQD","cs_wg_rev_mem_pilot1","3FE7TXL1LIO2H2HQIVHAH6AVDFSQ2A","114","0","RABBIT","4","COSTUME","4","0","2158",,,,,"0","2018-10-02 22:44:28","241739"
"A3JTDNRJYVCGQD","cs_wg_rev_mem_pilot1","3FE7TXL1LIO2H2HQIVHAH6AVDFSQ2A","115","0","PUMPKIN","5","COWBOY","3","0","1088",,,,,"0","2018-10-02 22:44:31","241740"
"A3JTDNRJYVCGQD","cs_wg_rev_mem_pilot1","3FE7TXL1LIO2H2HQIVHAH6AVDFSQ2A","116","0","PALACE","3","ISLAND","4","1","1872",,,,,"0","2018-10-02 22:44:34","241741"
"A3JTDNRJYVCGQD","cs_wg_rev_mem_pilot1","3FE7TXL1LIO2H2HQIVHAH6AVDFSQ2A","117","0","PALACE","3","RABBIT","4","1","1599",,,,,"0","2018-10-02 22:44:38","241742"
"A3JTDNRJYVCGQD","cs_wg_rev_mem_pilot1","3FE7TXL1LIO2H2HQIVHAH6AVDFSQ2A","118","0","PERFUME","4","PALACE","3","0","999",,,,,"0","2018-10-02 22:44:41","241743"
"A3JTDNRJYVCGQD","cs_wg_rev_mem_pilot1","3FE7TXL1LIO2H2HQIVHAH6AVDFSQ2A","119","0","JACKET","4","COSTUME","4","1","1455",,,,,"0","2018-10-02 22:44:44","241744"
"A3JTDNRJYVCGQD","cs_wg_rev_mem_pilot1","3FE7TXL1LIO2H2HQIVHAH6AVDFSQ2A","120","0","SQUID","3","CHICKEN","5","1","730",,,,,"0","2018-10-02 22:44:47","241745"
"A3JTDNRJYVCGQD","cs_wg_rev_mem_pilot1","3FE7TXL1LIO2H2HQIVHAH6AVDFSQ2A","121","0","COWBOY","3","SQUID","3","0","748",,,,,"0","2018-10-02 22:44:49","241746"
"A3JTDNRJYVCGQD","cs_wg_rev_mem_pilot1","3FE7TXL1LIO2H2HQIVHAH6AVDFSQ2A","122","0","COSTUME","4","ISLAND","4","0","810",,,,,"0","2018-10-02 22:44:52","241747"
"A3JTDNRJYVCGQD","cs_wg_rev_mem_pilot1","3FE7TXL1LIO2H2HQIVHAH6AVDFSQ2A","123","0","CHICKEN","5","COWBOY","3","0","742",,,,,"0","2018-10-02 22:44:55","241748"
"A3JTDNRJYVCGQD","cs_wg_rev_mem_pilot1","3FE7TXL1LIO2H2HQIVHAH6AVDFSQ2A","124","0","PERFUME","4","JACKET","4","0","759",,,,,"0","2018-10-02 22:44:58","241749"
"A3JTDNRJYVCGQD","cs_wg_rev_mem_pilot1","3FE7TXL1LIO2H2HQIVHAH6AVDFSQ2A","125","0","NAPKIN","4","SAUCE","2","0","986",,,,,"0","2018-10-02 22:45:01","241750"
"A3JTDNRJYVCGQD","cs_wg_rev_mem_pilot1","3FE7TXL1LIO2H2HQIVHAH6AVDFSQ2A","126","0","PALACE","3","JACKET","4","1","1567",,,,,"0","2018-10-02 22:45:04","241751"
"A3JTDNRJYVCGQD","cs_wg_rev_mem_pilot1","3FE7TXL1LIO2H2HQIVHAH6AVDFSQ2A","127","0","JACKET","4","RABBIT","4","0","980",,,,,"0","2018-10-02 22:45:07","241752"
"A3JTDNRJYVCGQD","cs_wg_rev_mem_pilot1","3FE7TXL1LIO2H2HQIVHAH6AVDFSQ2A","128","0","RABBIT","4","PERFUME","4","1","2935",,,,,"0","2018-10-02 22:45:12","241753"
"A3JTDNRJYVCGQD","cs_wg_rev_mem_pilot1","3FE7TXL1LIO2H2HQIVHAH6AVDFSQ2A","129","0","PALACE","3","NAPKIN","4","1","1115",,,,,"0","2018-10-02 22:45:15","241754"
"A3JTDNRJYVCGQD","cs_wg_rev_mem_pilot1","3FE7TXL1LIO2H2HQIVHAH6AVDFSQ2A","130","0","SQUID","3","ISLAND","4","1","871",,,,,"0","2018-10-02 22:45:18","241755"
"A3JTDNRJYVCGQD","cs_wg_rev_mem_pilot1","3FE7TXL1LIO2H2HQIVHAH6AVDFSQ2A","131","0","SQUID","3","PERFUME","4","1","1132",,,,,"0","2018-10-02 22:45:21","241756"
"A24AMUTP80VAVO","cs_wg_rev_mem_pilot1","31LVTDXBL7B8UPIY5GOF1SJ9F1LLRV","0","0","LIQUID","3","ARCADE","3","0","3365",,,,,"0","2018-10-02 23:06:21","241757"
"A24AMUTP80VAVO","cs_wg_rev_mem_pilot1","31LVTDXBL7B8UPIY5GOF1SJ9F1LLRV","1","0","PALACE","3","CRICKET","5","1","2521",,,,,"0","2018-10-02 23:06:28","241758"
"A24AMUTP80VAVO","cs_wg_rev_mem_pilot1","31LVTDXBL7B8UPIY5GOF1SJ9F1LLRV","2","0","COSTUME","4","LIQUID","3","0","1846",,,,,"0","2018-10-02 23:06:34","241759"
"A24AMUTP80VAVO","cs_wg_rev_mem_pilot1","31LVTDXBL7B8UPIY5GOF1SJ9F1LLRV","3","0","RABBIT","4","VULTURE","4","1","2892",,,,,"0","2018-10-02 23:06:41","241760"
"A24AMUTP80VAVO","cs_wg_rev_mem_pilot1","31LVTDXBL7B8UPIY5GOF1SJ9F1LLRV","4","0","JACKET","4","CRICKET","5","0","1781",,,,,"0","2018-10-02 23:06:45","241761"
"A24AMUTP80VAVO","cs_wg_rev_mem_pilot1","31LVTDXBL7B8UPIY5GOF1SJ9F1LLRV","5","0","LIQUID","3","COOKIE","2","1","2331",,,,,"0","2018-10-02 23:06:49","241762"
"A24AMUTP80VAVO","cs_wg_rev_mem_pilot1","31LVTDXBL7B8UPIY5GOF1SJ9F1LLRV","6","0","CRICKET","5","ARCADE","3","0","5841",,,,,"0","2018-10-02 23:06:57","241763"
"A24AMUTP80VAVO","cs_wg_rev_mem_pilot1","31LVTDXBL7B8UPIY5GOF1SJ9F1LLRV","7","0","LIQUID","3","BAMBOO","3","0","2146",,,,,"0","2018-10-02 23:07:01","241764"
"A24AMUTP80VAVO","cs_wg_rev_mem_pilot1","31LVTDXBL7B8UPIY5GOF1SJ9F1LLRV","8","0","COSTUME","4","RABBIT","4","1","2732",,,,,"0","2018-10-02 23:07:06","241765"
"A24AMUTP80VAVO","cs_wg_rev_mem_pilot1","31LVTDXBL7B8UPIY5GOF1SJ9F1LLRV","9","0","COSTUME","4","PALACE","3","0","2377",,,,,"0","2018-10-02 23:07:14","241766"
"A24AMUTP80VAVO","cs_wg_rev_mem_pilot1","31LVTDXBL7B8UPIY5GOF1SJ9F1LLRV","10","0","LIQUID","3","SQUID","3","1","2405",,,,,"0","2018-10-02 23:07:19","241767"
"A24AMUTP80VAVO","cs_wg_rev_mem_pilot1","31LVTDXBL7B8UPIY5GOF1SJ9F1LLRV","11","0","BAMBOO","3","PALACE","3","0","6117",,,,,"0","2018-10-02 23:07:27","241768"
"A24AMUTP80VAVO","cs_wg_rev_mem_pilot1","31LVTDXBL7B8UPIY5GOF1SJ9F1LLRV","12","0","CRICKET","5","BAMBOO","3","0","2550",,,,,"0","2018-10-02 23:07:32","241769"
"A24AMUTP80VAVO","cs_wg_rev_mem_pilot1","31LVTDXBL7B8UPIY5GOF1SJ9F1LLRV","13","0","ARCADE","3","WHISKER","5","0","966",,,,,"0","2018-10-02 23:07:35","241770"
"A24AMUTP80VAVO","cs_wg_rev_mem_pilot1","31LVTDXBL7B8UPIY5GOF1SJ9F1LLRV","14","0","VULTURE","4","COSTUME","4","0","1036",,,,,"0","2018-10-02 23:07:38","241771"
"A24AMUTP80VAVO","cs_wg_rev_mem_pilot1","31LVTDXBL7B8UPIY5GOF1SJ9F1LLRV","15","0","ARCADE","3","RABBIT","4","0","1597",,,,,"0","2018-10-02 23:07:41","241772"
"A24AMUTP80VAVO","cs_wg_rev_mem_pilot1","31LVTDXBL7B8UPIY5GOF1SJ9F1LLRV","16","0","VULTURE","4","RABBIT","4","1","1060",,,,,"0","2018-10-02 23:07:44","241773"
"A24AMUTP80VAVO","cs_wg_rev_mem_pilot1","31LVTDXBL7B8UPIY5GOF1SJ9F1LLRV","17","0","ARCADE","3","BAMBOO","3","0","1821",,,,,"0","2018-10-02 23:07:48","241774"
"A24AMUTP80VAVO","cs_wg_rev_mem_pilot1","31LVTDXBL7B8UPIY5GOF1SJ9F1LLRV","18","0","ARCADE","3","CRICKET","5","1","3104",,,,,"0","2018-10-02 23:07:53","241775"
"A24AMUTP80VAVO","cs_wg_rev_mem_pilot1","31LVTDXBL7B8UPIY5GOF1SJ9F1LLRV","19","0","WHISKER","5","COOKIE","2","0","517",,,,,"0","2018-10-02 23:08:00","241776"
"A24AMUTP80VAVO","cs_wg_rev_mem_pilot1","31LVTDXBL7B8UPIY5GOF1SJ9F1LLRV","20","0","LIQUID","3","PALACE","3","0","1803",,,,,"0","2018-10-02 23:08:04","241777"
"A24AMUTP80VAVO","cs_wg_rev_mem_pilot1","31LVTDXBL7B8UPIY5GOF1SJ9F1LLRV","21","0","PALACE","3","VULTURE","4","1","884",,,,,"0","2018-10-02 23:08:07","241778"
"A24AMUTP80VAVO","cs_wg_rev_mem_pilot1","31LVTDXBL7B8UPIY5GOF1SJ9F1LLRV","22","0","BAMBOO","3","VULTURE","4","0","724",,,,,"0","2018-10-02 23:08:10","241779"
"A24AMUTP80VAVO","cs_wg_rev_mem_pilot1","31LVTDXBL7B8UPIY5GOF1SJ9F1LLRV","23","0","RABBIT","4","COSTUME","4","0","571",,,,,"0","2018-10-02 23:08:13","241780"
"A24AMUTP80VAVO","cs_wg_rev_mem_pilot1","31LVTDXBL7B8UPIY5GOF1SJ9F1LLRV","24","0","JACKET","4","PALACE","3","0","255",,,,,"0","2018-10-02 23:08:15","241781"
"A24AMUTP80VAVO","cs_wg_rev_mem_pilot1","31LVTDXBL7B8UPIY5GOF1SJ9F1LLRV","25","0","RABBIT","4","CRICKET","5","0","253",,,,,"0","2018-10-02 23:08:17","241782"
"A24AMUTP80VAVO","cs_wg_rev_mem_pilot1","31LVTDXBL7B8UPIY5GOF1SJ9F1LLRV","26","0","COOKIE","2","LIQUID","3","0","164",,,,,"0","2018-10-02 23:08:18","241783"
"A24AMUTP80VAVO","cs_wg_rev_mem_pilot1","31LVTDXBL7B8UPIY5GOF1SJ9F1LLRV","27","0","WHISKER","5","RABBIT","4","0","101",,,,,"0","2018-10-02 23:08:19","241784"
"A24AMUTP80VAVO","cs_wg_rev_mem_pilot1","31LVTDXBL7B8UPIY5GOF1SJ9F1LLRV","28","0","ARCADE","3","COOKIE","2","0","99",,,,,"0","2018-10-02 23:08:21","241785"
"A24AMUTP80VAVO","cs_wg_rev_mem_pilot1","31LVTDXBL7B8UPIY5GOF1SJ9F1LLRV","29","0","BAMBOO","3","ARCADE","3","0","81",,,,,"0","2018-10-02 23:08:22","241786"
"A24AMUTP80VAVO","cs_wg_rev_mem_pilot1","31LVTDXBL7B8UPIY5GOF1SJ9F1LLRV","30","0","ARCADE","3","JACKET","4","0","178",,,,,"0","2018-10-02 23:08:23","241787"
"A24AMUTP80VAVO","cs_wg_rev_mem_pilot1","31LVTDXBL7B8UPIY5GOF1SJ9F1LLRV","31","0","JACKET","4","LIQUID","3","0","187",,,,,"0","2018-10-02 23:08:24","241788"
"A24AMUTP80VAVO","cs_wg_rev_mem_pilot1","31LVTDXBL7B8UPIY5GOF1SJ9F1LLRV","32","0","COOKIE","2","JACKET","4","0","131",,,,,"0","2018-10-02 23:08:26","241789"
"A24AMUTP80VAVO","cs_wg_rev_mem_pilot1","31LVTDXBL7B8UPIY5GOF1SJ9F1LLRV","33","0","ARCADE","3","LIQUID","3","0","220",,,,,"0","2018-10-02 23:08:27","241790"
"A24AMUTP80VAVO","cs_wg_rev_mem_pilot1","31LVTDXBL7B8UPIY5GOF1SJ9F1LLRV","34","0","SQUID","3","JACKET","4","0","243",,,,,"0","2018-10-02 23:08:29","241791"
"A24AMUTP80VAVO","cs_wg_rev_mem_pilot1","31LVTDXBL7B8UPIY5GOF1SJ9F1LLRV","35","0","COSTUME","4","WHISKER","5","0","93",,,,,"0","2018-10-02 23:08:30","241792"
"A24AMUTP80VAVO","cs_wg_rev_mem_pilot1","31LVTDXBL7B8UPIY5GOF1SJ9F1LLRV","36","0","LIQUID","3","RABBIT","4","0","85",,,,,"0","2018-10-02 23:08:31","241793"
"A24AMUTP80VAVO","cs_wg_rev_mem_pilot1","31LVTDXBL7B8UPIY5GOF1SJ9F1LLRV","37","0","CRICKET","5","COOKIE","2","0","187",,,,,"0","2018-10-02 23:08:33","241794"
"A24AMUTP80VAVO","cs_wg_rev_mem_pilot1","31LVTDXBL7B8UPIY5GOF1SJ9F1LLRV","38","0","WHISKER","5","SQUID","3","0","148",,,,,"0","2018-10-02 23:08:34","241795"
"A24AMUTP80VAVO","cs_wg_rev_mem_pilot1","31LVTDXBL7B8UPIY5GOF1SJ9F1LLRV","39","0","SQUID","3","VULTURE","4","0","171",,,,,"0","2018-10-02 23:08:36","241796"
"A24AMUTP80VAVO","cs_wg_rev_mem_pilot1","31LVTDXBL7B8UPIY5GOF1SJ9F1LLRV","40","0","RABBIT","4","PALACE","3","1","1117",,,,,"0","2018-10-02 23:08:39","241797"
"A24AMUTP80VAVO","cs_wg_rev_mem_pilot1","31LVTDXBL7B8UPIY5GOF1SJ9F1LLRV","41","0","COOKIE","2","ARCADE","3","0","211",,,,,"0","2018-10-02 23:08:41","241798"
"A24AMUTP80VAVO","cs_wg_rev_mem_pilot1","31LVTDXBL7B8UPIY5GOF1SJ9F1LLRV","42","0","CRICKET","5","VULTURE","4","0","259",,,,,"0","2018-10-02 23:08:42","241799"
"A24AMUTP80VAVO","cs_wg_rev_mem_pilot1","31LVTDXBL7B8UPIY5GOF1SJ9F1LLRV","43","0","BAMBOO","3","COSTUME","4","0","124",,,,,"0","2018-10-02 23:08:44","241800"
"A24AMUTP80VAVO","cs_wg_rev_mem_pilot1","31LVTDXBL7B8UPIY5GOF1SJ9F1LLRV","44","0","SQUID","3","RABBIT","4","1","301",,,,,"0","2018-10-02 23:08:45","241801"
"A24AMUTP80VAVO","cs_wg_rev_mem_pilot1","31LVTDXBL7B8UPIY5GOF1SJ9F1LLRV","45","0","COOKIE","2","SQUID","3","1","75",,,,,"0","2018-10-02 23:08:47","241802"
"A24AMUTP80VAVO","cs_wg_rev_mem_pilot1","31LVTDXBL7B8UPIY5GOF1SJ9F1LLRV","46","0","PALACE","3","ARCADE","3","0","69",,,,,"0","2018-10-02 23:08:48","241803"
"A24AMUTP80VAVO","cs_wg_rev_mem_pilot1","31LVTDXBL7B8UPIY5GOF1SJ9F1LLRV","47","0","LIQUID","3","JACKET","4","0","203",,,,,"0","2018-10-02 23:08:50","241804"
"A24AMUTP80VAVO","cs_wg_rev_mem_pilot1","31LVTDXBL7B8UPIY5GOF1SJ9F1LLRV","48","0","JACKET","4","COSTUME","4","1","147",,,,,"0","2018-10-02 23:08:53","241805"
"A24AMUTP80VAVO","cs_wg_rev_mem_pilot1","31LVTDXBL7B8UPIY5GOF1SJ9F1LLRV","49","0","SQUID","3","COOKIE","2","0","54",,,,,"0","2018-10-02 23:08:54","241806"
"A24AMUTP80VAVO","cs_wg_rev_mem_pilot1","31LVTDXBL7B8UPIY5GOF1SJ9F1LLRV","50","0","VULTURE","4","PALACE","3","0","74",,,,,"0","2018-10-02 23:08:56","241807"
"A24AMUTP80VAVO","cs_wg_rev_mem_pilot1","31LVTDXBL7B8UPIY5GOF1SJ9F1LLRV","51","0","PALACE","3","BAMBOO","3","1","226",,,,,"0","2018-10-02 23:08:58","241808"
"A24AMUTP80VAVO","cs_wg_rev_mem_pilot1","31LVTDXBL7B8UPIY5GOF1SJ9F1LLRV","52","0","BAMBOO","3","WHISKER","5","1","227",,,,,"0","2018-10-02 23:09:00","241809"
"A24AMUTP80VAVO","cs_wg_rev_mem_pilot1","31LVTDXBL7B8UPIY5GOF1SJ9F1LLRV","53","0","PALACE","3","SQUID","3","0","9",,,,,"0","2018-10-02 23:09:01","241810"
"A24AMUTP80VAVO","cs_wg_rev_mem_pilot1","31LVTDXBL7B8UPIY5GOF1SJ9F1LLRV","54","0","VULTURE","4","JACKET","4","0","195",,,,,"0","2018-10-02 23:09:03","241811"
"A24AMUTP80VAVO","cs_wg_rev_mem_pilot1","31LVTDXBL7B8UPIY5GOF1SJ9F1LLRV","55","0","PALACE","3","COSTUME","4","1","88",,,,,"0","2018-10-02 23:09:05","241812"
"A24AMUTP80VAVO","cs_wg_rev_mem_pilot1","31LVTDXBL7B8UPIY5GOF1SJ9F1LLRV","56","0","SQUID","3","LIQUID","3","0","28",,,,,"0","2018-10-02 23:09:06","241813"
"A24AMUTP80VAVO","cs_wg_rev_mem_pilot1","31LVTDXBL7B8UPIY5GOF1SJ9F1LLRV","57","0","RABBIT","4","LIQUID","3","0","1837",,,,,"0","2018-10-02 23:09:09","241814"
"A24AMUTP80VAVO","cs_wg_rev_mem_pilot1","31LVTDXBL7B8UPIY5GOF1SJ9F1LLRV","58","0","WHISKER","5","PALACE","3","0","140",,,,,"0","2018-10-02 23:09:11","241815"
"A24AMUTP80VAVO","cs_wg_rev_mem_pilot1","31LVTDXBL7B8UPIY5GOF1SJ9F1LLRV","59","0","COOKIE","2","COSTUME","4","0","188",,,,,"0","2018-10-02 23:09:12","241816"
"A24AMUTP80VAVO","cs_wg_rev_mem_pilot1","31LVTDXBL7B8UPIY5GOF1SJ9F1LLRV","60","0","VULTURE","4","ARCADE","3","0","197",,,,,"0","2018-10-02 23:09:14","241817"
"A24AMUTP80VAVO","cs_wg_rev_mem_pilot1","31LVTDXBL7B8UPIY5GOF1SJ9F1LLRV","61","0","SQUID","3","WHISKER","5","0","213",,,,,"0","2018-10-02 23:09:15","241818"
"A24AMUTP80VAVO","cs_wg_rev_mem_pilot1","31LVTDXBL7B8UPIY5GOF1SJ9F1LLRV","62","0","LIQUID","3","VULTURE","4","0","36",,,,,"0","2018-10-02 23:09:16","241819"
"A24AMUTP80VAVO","cs_wg_rev_mem_pilot1","31LVTDXBL7B8UPIY5GOF1SJ9F1LLRV","63","0","SQUID","3","CRICKET","5","0","307",,,,,"0","2018-10-02 23:09:18","241820"
"A24AMUTP80VAVO","cs_wg_rev_mem_pilot1","31LVTDXBL7B8UPIY5GOF1SJ9F1LLRV","64","0","PALACE","3","JACKET","4","0","140",,,,,"0","2018-10-02 23:09:19","241821"
"A24AMUTP80VAVO","cs_wg_rev_mem_pilot1","31LVTDXBL7B8UPIY5GOF1SJ9F1LLRV","65","0","COSTUME","4","ARCADE","3","0","42",,,,,"0","2018-10-02 23:09:21","241822"
"A24AMUTP80VAVO","cs_wg_rev_mem_pilot1","31LVTDXBL7B8UPIY5GOF1SJ9F1LLRV","66","0","COOKIE","2","CRICKET","5","0","159",,,,,"0","2018-10-02 23:09:22","241823"
"A24AMUTP80VAVO","cs_wg_rev_mem_pilot1","31LVTDXBL7B8UPIY5GOF1SJ9F1LLRV","67","0","VULTURE","4","CRICKET","5","0","53",,,,,"0","2018-10-02 23:09:23","241824"
"A24AMUTP80VAVO","cs_wg_rev_mem_pilot1","31LVTDXBL7B8UPIY5GOF1SJ9F1LLRV","68","0","BAMBOO","3","COOKIE","2","0","248",,,,,"0","2018-10-02 23:09:25","241825"
"A24AMUTP80VAVO","cs_wg_rev_mem_pilot1","31LVTDXBL7B8UPIY5GOF1SJ9F1LLRV","69","0","BAMBOO","3","SQUID","3","1","35",,,,,"0","2018-10-02 23:09:26","241826"
"A24AMUTP80VAVO","cs_wg_rev_mem_pilot1","31LVTDXBL7B8UPIY5GOF1SJ9F1LLRV","70","0","LIQUID","3","COSTUME","4","1","444",,,,,"0","2018-10-02 23:09:28","241827"
"A24AMUTP80VAVO","cs_wg_rev_mem_pilot1","31LVTDXBL7B8UPIY5GOF1SJ9F1LLRV","71","0","RABBIT","4","COOKIE","2","1","223",,,,,"0","2018-10-02 23:09:29","241828"
"A24AMUTP80VAVO","cs_wg_rev_mem_pilot1","31LVTDXBL7B8UPIY5GOF1SJ9F1LLRV","72","0","CRICKET","5","SQUID","3","1","128",,,,,"0","2018-10-02 23:09:31","241829"
"A24AMUTP80VAVO","cs_wg_rev_mem_pilot1","31LVTDXBL7B8UPIY5GOF1SJ9F1LLRV","73","0","CRICKET","5","WHISKER","5","1","169",,,,,"0","2018-10-02 23:09:32","241830"
"A24AMUTP80VAVO","cs_wg_rev_mem_pilot1","31LVTDXBL7B8UPIY5GOF1SJ9F1LLRV","74","0","WHISKER","5","ARCADE","3","1","301",,,,,"0","2018-10-02 23:09:34","241831"
"A24AMUTP80VAVO","cs_wg_rev_mem_pilot1","31LVTDXBL7B8UPIY5GOF1SJ9F1LLRV","75","0","WHISKER","5","VULTURE","4","1","13",,,,,"0","2018-10-02 23:09:35","241832"
"A24AMUTP80VAVO","cs_wg_rev_mem_pilot1","31LVTDXBL7B8UPIY5GOF1SJ9F1LLRV","76","0","COOKIE","2","PALACE","3","1","203",,,,,"0","2018-10-02 23:09:36","241833"
"A24AMUTP80VAVO","cs_wg_rev_mem_pilot1","31LVTDXBL7B8UPIY5GOF1SJ9F1LLRV","77","0","BAMBOO","3","JACKET","4","1","245",,,,,"0","2018-10-02 23:09:38","241834"
"A24AMUTP80VAVO","cs_wg_rev_mem_pilot1","31LVTDXBL7B8UPIY5GOF1SJ9F1LLRV","78","0","COOKIE","2","WHISKER","5","0","197",,,,,"0","2018-10-02 23:09:39","241835"
"A24AMUTP80VAVO","cs_wg_rev_mem_pilot1","31LVTDXBL7B8UPIY5GOF1SJ9F1LLRV","79","0","RABBIT","4","ARCADE","3","1","371",,,,,"0","2018-10-02 23:09:41","241836"
"A24AMUTP80VAVO","cs_wg_rev_mem_pilot1","31LVTDXBL7B8UPIY5GOF1SJ9F1LLRV","80","0","ARCADE","3","VULTURE","4","0","469",,,,,"0","2018-10-02 23:09:43","241837"
"A24AMUTP80VAVO","cs_wg_rev_mem_pilot1","31LVTDXBL7B8UPIY5GOF1SJ9F1LLRV","81","0","PALACE","3","RABBIT","4","0","99",,,,,"0","2018-10-02 23:09:45","241838"
"A24AMUTP80VAVO","cs_wg_rev_mem_pilot1","31LVTDXBL7B8UPIY5GOF1SJ9F1LLRV","82","0","JACKET","4","ARCADE","3","1","261",,,,,"0","2018-10-02 23:09:46","241839"
"A24AMUTP80VAVO","cs_wg_rev_mem_pilot1","31LVTDXBL7B8UPIY5GOF1SJ9F1LLRV","83","0","VULTURE","4","LIQUID","3","1","4",,,,,"0","2018-10-02 23:09:48","241840"
"A24AMUTP80VAVO","cs_wg_rev_mem_pilot1","31LVTDXBL7B8UPIY5GOF1SJ9F1LLRV","84","0","COSTUME","4","VULTURE","4","0","44",,,,,"0","2018-10-02 23:09:49","241841"
"A24AMUTP80VAVO","cs_wg_rev_mem_pilot1","31LVTDXBL7B8UPIY5GOF1SJ9F1LLRV","85","0","VULTURE","4","BAMBOO","3","0","27",,,,,"0","2018-10-02 23:09:50","241842"
"A24AMUTP80VAVO","cs_wg_rev_mem_pilot1","31LVTDXBL7B8UPIY5GOF1SJ9F1LLRV","86","0","COSTUME","4","JACKET","4","0","75",,,,,"0","2018-10-02 23:09:52","241843"
"A24AMUTP80VAVO","cs_wg_rev_mem_pilot1","31LVTDXBL7B8UPIY5GOF1SJ9F1LLRV","87","0","CRICKET","5","PALACE","3","0","82",,,,,"0","2018-10-02 23:09:53","241844"
"A24AMUTP80VAVO","cs_wg_rev_mem_pilot1","31LVTDXBL7B8UPIY5GOF1SJ9F1LLRV","88","0","WHISKER","5","LIQUID","3","1","42",,,,,"0","2018-10-02 23:09:56","241845"
"A24AMUTP80VAVO","cs_wg_rev_mem_pilot1","31LVTDXBL7B8UPIY5GOF1SJ9F1LLRV","89","0","JACKET","4","WHISKER","5","0","94",,,,,"0","2018-10-02 23:09:58","241846"
"A24AMUTP80VAVO","cs_wg_rev_mem_pilot1","31LVTDXBL7B8UPIY5GOF1SJ9F1LLRV","90","0","COSTUME","4","BAMBOO","3","1","5",,,,,"0","2018-10-02 23:09:59","241847"
"A24AMUTP80VAVO","cs_wg_rev_mem_pilot1","31LVTDXBL7B8UPIY5GOF1SJ9F1LLRV","91","0","PALACE","3","LIQUID","3","0","213",,,,,"0","2018-10-02 23:10:01","241848"
"A24AMUTP80VAVO","cs_wg_rev_mem_pilot1","31LVTDXBL7B8UPIY5GOF1SJ9F1LLRV","92","0","WHISKER","5","BAMBOO","3","0","120",,,,,"0","2018-10-02 23:10:02","241849"
"A24AMUTP80VAVO","cs_wg_rev_mem_pilot1","31LVTDXBL7B8UPIY5GOF1SJ9F1LLRV","93","0","BAMBOO","3","CRICKET","5","0","188",,,,,"0","2018-10-02 23:10:07","241850"
"A24AMUTP80VAVO","cs_wg_rev_mem_pilot1","31LVTDXBL7B8UPIY5GOF1SJ9F1LLRV","94","0","WHISKER","5","JACKET","4","0","50",,,,,"0","2018-10-02 23:10:08","241851"
"A24AMUTP80VAVO","cs_wg_rev_mem_pilot1","31LVTDXBL7B8UPIY5GOF1SJ9F1LLRV","95","0","VULTURE","4","WHISKER","5","1","138",,,,,"0","2018-10-02 23:10:09","241852"
"A24AMUTP80VAVO","cs_wg_rev_mem_pilot1","31LVTDXBL7B8UPIY5GOF1SJ9F1LLRV","96","0","COSTUME","4","SQUID","3","0","138",,,,,"0","2018-10-02 23:10:10","241853"
"A24AMUTP80VAVO","cs_wg_rev_mem_pilot1","31LVTDXBL7B8UPIY5GOF1SJ9F1LLRV","97","0","SQUID","3","PALACE","3","0","37",,,,,"0","2018-10-02 23:10:11","241854"
"A24AMUTP80VAVO","cs_wg_rev_mem_pilot1","31LVTDXBL7B8UPIY5GOF1SJ9F1LLRV","98","0","BAMBOO","3","RABBIT","4","0","320",,,,,"0","2018-10-02 23:10:12","241855"
"A24AMUTP80VAVO","cs_wg_rev_mem_pilot1","31LVTDXBL7B8UPIY5GOF1SJ9F1LLRV","99","0","ARCADE","3","SQUID","3","1","123",,,,,"0","2018-10-02 23:10:13","241856"
"A24AMUTP80VAVO","cs_wg_rev_mem_pilot1","31LVTDXBL7B8UPIY5GOF1SJ9F1LLRV","100","0","JACKET","4","RABBIT","4","0","18",,,,,"0","2018-10-02 23:10:14","241857"
"A24AMUTP80VAVO","cs_wg_rev_mem_pilot1","31LVTDXBL7B8UPIY5GOF1SJ9F1LLRV","101","0","CRICKET","5","RABBIT","4","1","188",,,,,"0","2018-10-02 23:10:16","241858"
"A24AMUTP80VAVO","cs_wg_rev_mem_pilot1","31LVTDXBL7B8UPIY5GOF1SJ9F1LLRV","102","0","CRICKET","5","COSTUME","4","0","250",,,,,"0","2018-10-02 23:10:17","241859"
"A24AMUTP80VAVO","cs_wg_rev_mem_pilot1","31LVTDXBL7B8UPIY5GOF1SJ9F1LLRV","103","0","RABBIT","4","WHISKER","5","0","118",,,,,"0","2018-10-02 23:10:19","241860"
"A24AMUTP80VAVO","cs_wg_rev_mem_pilot1","31LVTDXBL7B8UPIY5GOF1SJ9F1LLRV","104","0","WHISKER","5","COSTUME","4","0","90",,,,,"0","2018-10-02 23:10:20","241861"
"A24AMUTP80VAVO","cs_wg_rev_mem_pilot1","31LVTDXBL7B8UPIY5GOF1SJ9F1LLRV","105","0","COSTUME","4","CRICKET","5","0","28",,,,,"0","2018-10-02 23:10:21","241862"
"A24AMUTP80VAVO","cs_wg_rev_mem_pilot1","31LVTDXBL7B8UPIY5GOF1SJ9F1LLRV","106","0","PALACE","3","WHISKER","5","0","275",,,,,"0","2018-10-02 23:10:23","241863"
"A24AMUTP80VAVO","cs_wg_rev_mem_pilot1","31LVTDXBL7B8UPIY5GOF1SJ9F1LLRV","107","0","VULTURE","4","SQUID","3","1","158",,,,,"0","2018-10-02 23:10:24","241864"
"A24AMUTP80VAVO","cs_wg_rev_mem_pilot1","31LVTDXBL7B8UPIY5GOF1SJ9F1LLRV","108","0","LIQUID","3","WHISKER","5","1","253",,,,,"0","2018-10-02 23:10:26","241865"
"A24AMUTP80VAVO","cs_wg_rev_mem_pilot1","31LVTDXBL7B8UPIY5GOF1SJ9F1LLRV","109","0","SQUID","3","COSTUME","4","0","108",,,,,"0","2018-10-02 23:10:27","241866"
"A24AMUTP80VAVO","cs_wg_rev_mem_pilot1","31LVTDXBL7B8UPIY5GOF1SJ9F1LLRV","110","0","PALACE","3","COOKIE","2","0","68",,,,,"0","2018-10-02 23:10:28","241867"
"A24AMUTP80VAVO","cs_wg_rev_mem_pilot1","31LVTDXBL7B8UPIY5GOF1SJ9F1LLRV","111","0","LIQUID","3","CRICKET","5","0","220",,,,,"0","2018-10-02 23:10:30","241868"
"A24AMUTP80VAVO","cs_wg_rev_mem_pilot1","31LVTDXBL7B8UPIY5GOF1SJ9F1LLRV","112","0","JACKET","4","COOKIE","2","1","857",,,,,"0","2018-10-02 23:10:32","241869"
"A24AMUTP80VAVO","cs_wg_rev_mem_pilot1","31LVTDXBL7B8UPIY5GOF1SJ9F1LLRV","113","0","JACKET","4","SQUID","3","1","70",,,,,"0","2018-10-02 23:10:33","241870"
"A24AMUTP80VAVO","cs_wg_rev_mem_pilot1","31LVTDXBL7B8UPIY5GOF1SJ9F1LLRV","114","0","JACKET","4","BAMBOO","3","1","15",,,,,"0","2018-10-02 23:10:35","241871"
"A24AMUTP80VAVO","cs_wg_rev_mem_pilot1","31LVTDXBL7B8UPIY5GOF1SJ9F1LLRV","115","0","COOKIE","2","RABBIT","4","1","204",,,,,"0","2018-10-02 23:10:36","241872"
"A24AMUTP80VAVO","cs_wg_rev_mem_pilot1","31LVTDXBL7B8UPIY5GOF1SJ9F1LLRV","116","0","COOKIE","2","BAMBOO","3","1","5",,,,,"0","2018-10-02 23:10:37","241873"
"A24AMUTP80VAVO","cs_wg_rev_mem_pilot1","31LVTDXBL7B8UPIY5GOF1SJ9F1LLRV","117","0","COSTUME","4","COOKIE","2","1","163",,,,,"0","2018-10-02 23:10:39","241874"
"A24AMUTP80VAVO","cs_wg_rev_mem_pilot1","31LVTDXBL7B8UPIY5GOF1SJ9F1LLRV","118","0","ARCADE","3","COSTUME","4","1","100",,,,,"0","2018-10-02 23:10:40","241875"
"A24AMUTP80VAVO","cs_wg_rev_mem_pilot1","31LVTDXBL7B8UPIY5GOF1SJ9F1LLRV","119","0","RABBIT","4","BAMBOO","3","1","235",,,,,"0","2018-10-02 23:10:41","241876"
"A24AMUTP80VAVO","cs_wg_rev_mem_pilot1","31LVTDXBL7B8UPIY5GOF1SJ9F1LLRV","120","0","CRICKET","5","LIQUID","3","1","115",,,,,"0","2018-10-02 23:10:43","241877"
"A24AMUTP80VAVO","cs_wg_rev_mem_pilot1","31LVTDXBL7B8UPIY5GOF1SJ9F1LLRV","121","0","COOKIE","2","VULTURE","4","1","210",,,,,"0","2018-10-02 23:10:44","241878"
"A24AMUTP80VAVO","cs_wg_rev_mem_pilot1","31LVTDXBL7B8UPIY5GOF1SJ9F1LLRV","122","0","SQUID","3","ARCADE","3","0","1028",,,,,"0","2018-10-02 23:10:46","241879"
"A24AMUTP80VAVO","cs_wg_rev_mem_pilot1","31LVTDXBL7B8UPIY5GOF1SJ9F1LLRV","123","0","WHISKER","5","CRICKET","5","0","875",,,,,"0","2018-10-02 23:10:49","241880"
"A24AMUTP80VAVO","cs_wg_rev_mem_pilot1","31LVTDXBL7B8UPIY5GOF1SJ9F1LLRV","124","0","ARCADE","3","PALACE","3","0","187",,,,,"0","2018-10-02 23:10:51","241881"
"A24AMUTP80VAVO","cs_wg_rev_mem_pilot1","31LVTDXBL7B8UPIY5GOF1SJ9F1LLRV","125","0","RABBIT","4","JACKET","4","0","1",,,,,"0","2018-10-02 23:10:52","241882"
"A24AMUTP80VAVO","cs_wg_rev_mem_pilot1","31LVTDXBL7B8UPIY5GOF1SJ9F1LLRV","126","0","BAMBOO","3","LIQUID","3","0","121",,,,,"0","2018-10-02 23:10:54","241883"
"A24AMUTP80VAVO","cs_wg_rev_mem_pilot1","31LVTDXBL7B8UPIY5GOF1SJ9F1LLRV","127","0","SQUID","3","BAMBOO","3","1","1483",,,,,"0","2018-10-02 23:10:57","241884"
"A24AMUTP80VAVO","cs_wg_rev_mem_pilot1","31LVTDXBL7B8UPIY5GOF1SJ9F1LLRV","128","0","RABBIT","4","SQUID","3","1","74",,,,,"0","2018-10-02 23:10:58","241885"
"A24AMUTP80VAVO","cs_wg_rev_mem_pilot1","31LVTDXBL7B8UPIY5GOF1SJ9F1LLRV","129","0","CRICKET","5","JACKET","4","1","531",,,,,"0","2018-10-02 23:11:00","241886"
"A24AMUTP80VAVO","cs_wg_rev_mem_pilot1","31LVTDXBL7B8UPIY5GOF1SJ9F1LLRV","130","0","JACKET","4","VULTURE","4","1","281",,,,,"0","2018-10-02 23:11:02","241887"
"A24AMUTP80VAVO","cs_wg_rev_mem_pilot1","31LVTDXBL7B8UPIY5GOF1SJ9F1LLRV","131","0","VULTURE","4","COOKIE","2","1","1214",,,,,"0","2018-10-02 23:11:05","241888"
"A3T69NQWD8L22Z","cs_wg_rev_mem_pilot1","3A4NIXBJ760HX95608SYFTPZ9EMLM7","0","0","FLUTE","3","CANCER","4","1","142665",,,,,"0","2018-10-02 23:25:57","241889"
"A3T69NQWD8L22Z","cs_wg_rev_mem_pilot1","3A4NIXBJ760HX95608SYFTPZ9EMLM7","1","0","DONKEY","3","CRICKET","5","0","1404",,,,,"0","2018-10-02 23:26:00","241890"
"A3T69NQWD8L22Z","cs_wg_rev_mem_pilot1","3A4NIXBJ760HX95608SYFTPZ9EMLM7","2","0","FLUTE","3","SEAGULL","4","0","58552",,,,,"0","2018-10-02 23:27:01","241891"
"A3T69NQWD8L22Z","cs_wg_rev_mem_pilot1","3A4NIXBJ760HX95608SYFTPZ9EMLM7","3","0","CRICKET","5","WHISKER","5","1","1820",,,,,"0","2018-10-02 23:27:06","241892"
"A3T69NQWD8L22Z","cs_wg_rev_mem_pilot1","3A4NIXBJ760HX95608SYFTPZ9EMLM7","4","0","VOLCANO","4","COWBOY","3","0","3922",,,,,"0","2018-10-02 23:27:11","241893"
"A3T69NQWD8L22Z","cs_wg_rev_mem_pilot1","3A4NIXBJ760HX95608SYFTPZ9EMLM7","5","0","CRICKET","5","WIZARD","4","0","357",,,,,"0","2018-10-02 23:27:13","241894"
"A3T69NQWD8L22Z","cs_wg_rev_mem_pilot1","3A4NIXBJ760HX95608SYFTPZ9EMLM7","6","0","CANCER","4","DONKEY","3","0","345",,,,,"0","2018-10-02 23:27:16","241895"
"A3T69NQWD8L22Z","cs_wg_rev_mem_pilot1","3A4NIXBJ760HX95608SYFTPZ9EMLM7","7","0","VOLCANO","4","CANCER","4","1","2851",,,,,"0","2018-10-02 23:27:21","241896"
"A3T69NQWD8L22Z","cs_wg_rev_mem_pilot1","3A4NIXBJ760HX95608SYFTPZ9EMLM7","8","0","CRICKET","5","DONKEY","3","0","3868",,,,,"0","2018-10-02 23:27:27","241897"
"A3T69NQWD8L22Z","cs_wg_rev_mem_pilot1","3A4NIXBJ760HX95608SYFTPZ9EMLM7","9","0","COWBOY","3","DONKEY","3","1","627",,,,,"0","2018-10-02 23:27:29","241898"
"A3T69NQWD8L22Z","cs_wg_rev_mem_pilot1","3A4NIXBJ760HX95608SYFTPZ9EMLM7","10","0","SEAGULL","4","SCUBA","3","1","319",,,,,"0","2018-10-02 23:27:31","241899"
"A3T69NQWD8L22Z","cs_wg_rev_mem_pilot1","3A4NIXBJ760HX95608SYFTPZ9EMLM7","11","0","CANCER","4","SQUID","3","0","403",,,,,"0","2018-10-02 23:27:33","241900"
"A3T69NQWD8L22Z","cs_wg_rev_mem_pilot1","3A4NIXBJ760HX95608SYFTPZ9EMLM7","12","0","FLUTE","3","CRICKET","5","0","317",,,,,"0","2018-10-02 23:27:35","241901"
"A3T69NQWD8L22Z","cs_wg_rev_mem_pilot1","3A4NIXBJ760HX95608SYFTPZ9EMLM7","13","0","WIZARD","4","VOLCANO","4","1","308",,,,,"0","2018-10-02 23:27:37","241902"
"A3T69NQWD8L22Z","cs_wg_rev_mem_pilot1","3A4NIXBJ760HX95608SYFTPZ9EMLM7","14","0","DONKEY","3","BLANKET","5","0","364",,,,,"0","2018-10-02 23:27:39","241903"
"A3T69NQWD8L22Z","cs_wg_rev_mem_pilot1","3A4NIXBJ760HX95608SYFTPZ9EMLM7","15","0","VOLCANO","4","CRICKET","5","0","548",,,,,"0","2018-10-02 23:27:42","241904"
"A3T69NQWD8L22Z","cs_wg_rev_mem_pilot1","3A4NIXBJ760HX95608SYFTPZ9EMLM7","16","0","COWBOY","3","WHISKER","5","1","343",,,,,"0","2018-10-02 23:27:44","241905"
"A3T69NQWD8L22Z","cs_wg_rev_mem_pilot1","3A4NIXBJ760HX95608SYFTPZ9EMLM7","17","0","DONKEY","3","WIZARD","4","0","701",,,,,"0","2018-10-02 23:27:47","241906"
"A3T69NQWD8L22Z","cs_wg_rev_mem_pilot1","3A4NIXBJ760HX95608SYFTPZ9EMLM7","18","0","SCUBA","3","WHISKER","5","1","750",,,,,"0","2018-10-02 23:27:50","241907"
"A3T69NQWD8L22Z","cs_wg_rev_mem_pilot1","3A4NIXBJ760HX95608SYFTPZ9EMLM7","19","0","WHISKER","5","SQUID","3","0","775",,,,,"0","2018-10-02 23:27:52","241908"
"A3T69NQWD8L22Z","cs_wg_rev_mem_pilot1","3A4NIXBJ760HX95608SYFTPZ9EMLM7","20","0","CRICKET","5","VOLCANO","4","1","477",,,,,"0","2018-10-02 23:27:55","241909"
"A3T69NQWD8L22Z","cs_wg_rev_mem_pilot1","3A4NIXBJ760HX95608SYFTPZ9EMLM7","21","0","COWBOY","3","CANCER","4","0","1006",,,,,"0","2018-10-02 23:27:57","241910"
"A3T69NQWD8L22Z","cs_wg_rev_mem_pilot1","3A4NIXBJ760HX95608SYFTPZ9EMLM7","22","0","WIZARD","4","WHISKER","5","1","284",,,,,"0","2018-10-02 23:28:00","241911"
"A3T69NQWD8L22Z","cs_wg_rev_mem_pilot1","3A4NIXBJ760HX95608SYFTPZ9EMLM7","23","0","SQUID","3","VOLCANO","4","0","532",,,,,"0","2018-10-02 23:28:02","241912"
"A3T69NQWD8L22Z","cs_wg_rev_mem_pilot1","3A4NIXBJ760HX95608SYFTPZ9EMLM7","24","0","WIZARD","4","CRICKET","5","0","1364",,,,,"0","2018-10-02 23:28:05","241913"
"A3T69NQWD8L22Z","cs_wg_rev_mem_pilot1","3A4NIXBJ760HX95608SYFTPZ9EMLM7","25","0","SCUBA","3","WIZARD","4","1","709",,,,,"0","2018-10-02 23:28:08","241914"
"A3T69NQWD8L22Z","cs_wg_rev_mem_pilot1","3A4NIXBJ760HX95608SYFTPZ9EMLM7","26","0","FLUTE","3","SCUBA","3","0","460",,,,,"0","2018-10-02 23:28:10","241915"
"A3T69NQWD8L22Z","cs_wg_rev_mem_pilot1","3A4NIXBJ760HX95608SYFTPZ9EMLM7","27","0","SQUID","3","DONKEY","3","0","389",,,,,"0","2018-10-02 23:28:12","241916"
"A3T69NQWD8L22Z","cs_wg_rev_mem_pilot1","3A4NIXBJ760HX95608SYFTPZ9EMLM7","28","0","COWBOY","3","BLANKET","5","0","519",,,,,"0","2018-10-02 23:28:21","241917"
"A3T69NQWD8L22Z","cs_wg_rev_mem_pilot1","3A4NIXBJ760HX95608SYFTPZ9EMLM7","29","0","VOLCANO","4","DONKEY","3","0","663",,,,,"0","2018-10-02 23:28:24","241918"
"A3T69NQWD8L22Z","cs_wg_rev_mem_pilot1","3A4NIXBJ760HX95608SYFTPZ9EMLM7","30","0","BLANKET","5","CRICKET","5","1","3452",,,,,"0","2018-10-02 23:28:30","241919"
"A3T69NQWD8L22Z","cs_wg_rev_mem_pilot1","3A4NIXBJ760HX95608SYFTPZ9EMLM7","31","0","CANCER","4","WHISKER","5","1","576",,,,,"0","2018-10-02 23:28:32","241920"
"A3T69NQWD8L22Z","cs_wg_rev_mem_pilot1","3A4NIXBJ760HX95608SYFTPZ9EMLM7","32","0","CANCER","4","VOLCANO","4","0","379",,,,,"0","2018-10-02 23:28:34","241921"
"A3T69NQWD8L22Z","cs_wg_rev_mem_pilot1","3A4NIXBJ760HX95608SYFTPZ9EMLM7","33","0","SCUBA","3","SEAGULL","4","1","472",,,,,"0","2018-10-02 23:28:36","241922"
"A3T69NQWD8L22Z","cs_wg_rev_mem_pilot1","3A4NIXBJ760HX95608SYFTPZ9EMLM7","34","0","SEAGULL","4","COWBOY","3","0","821",,,,,"0","2018-10-02 23:28:38","241923"
"A3T69NQWD8L22Z","cs_wg_rev_mem_pilot1","3A4NIXBJ760HX95608SYFTPZ9EMLM7","35","0","CRICKET","5","CANCER","4","0","558",,,,,"0","2018-10-02 23:28:41","241924"
"A3T69NQWD8L22Z","cs_wg_rev_mem_pilot1","3A4NIXBJ760HX95608SYFTPZ9EMLM7","36","0","SQUID","3","FLUTE","3","1","776",,,,,"0","2018-10-02 23:28:43","241925"
"A3T69NQWD8L22Z","cs_wg_rev_mem_pilot1","3A4NIXBJ760HX95608SYFTPZ9EMLM7","37","0","VOLCANO","4","BLANKET","5","0","372",,,,,"0","2018-10-02 23:28:45","241926"
"A3T69NQWD8L22Z","cs_wg_rev_mem_pilot1","3A4NIXBJ760HX95608SYFTPZ9EMLM7","38","0","FLUTE","3","DONKEY","3","1","739",,,,,"0","2018-10-02 23:28:47","241927"
"A3T69NQWD8L22Z","cs_wg_rev_mem_pilot1","3A4NIXBJ760HX95608SYFTPZ9EMLM7","39","0","CANCER","4","SEAGULL","4","1","893",,,,,"0","2018-10-02 23:28:49","241928"
"A3T69NQWD8L22Z","cs_wg_rev_mem_pilot1","3A4NIXBJ760HX95608SYFTPZ9EMLM7","40","0","DONKEY","3","SQUID","3","0","1338",,,,,"0","2018-10-02 23:28:52","241929"
"A3T69NQWD8L22Z","cs_wg_rev_mem_pilot1","3A4NIXBJ760HX95608SYFTPZ9EMLM7","41","0","WIZARD","4","DONKEY","3","0","667",,,,,"0","2018-10-02 23:28:54","241930"
"A3T69NQWD8L22Z","cs_wg_rev_mem_pilot1","3A4NIXBJ760HX95608SYFTPZ9EMLM7","42","0","SQUID","3","WHISKER","5","1","442",,,,,"0","2018-10-02 23:28:56","241931"
"A3T69NQWD8L22Z","cs_wg_rev_mem_pilot1","3A4NIXBJ760HX95608SYFTPZ9EMLM7","43","0","DONKEY","3","CANCER","4","0","619",,,,,"0","2018-10-02 23:28:58","241932"
"A3T69NQWD8L22Z","cs_wg_rev_mem_pilot1","3A4NIXBJ760HX95608SYFTPZ9EMLM7","44","0","CRICKET","5","BLANKET","5","1","1017",,,,,"0","2018-10-02 23:29:01","241933"
"A3T69NQWD8L22Z","cs_wg_rev_mem_pilot1","3A4NIXBJ760HX95608SYFTPZ9EMLM7","45","0","COWBOY","3","SEAGULL","4","0","877",,,,,"0","2018-10-02 23:29:03","241934"
"A3T69NQWD8L22Z","cs_wg_rev_mem_pilot1","3A4NIXBJ760HX95608SYFTPZ9EMLM7","46","0","BLANKET","5","FLUTE","3","1","657",,,,,"0","2018-10-02 23:29:05","241935"
"A3T69NQWD8L22Z","cs_wg_rev_mem_pilot1","3A4NIXBJ760HX95608SYFTPZ9EMLM7","47","0","SEAGULL","4","WHISKER","5","0","387",,,,,"0","2018-10-02 23:29:07","241936"
"A3T69NQWD8L22Z","cs_wg_rev_mem_pilot1","3A4NIXBJ760HX95608SYFTPZ9EMLM7","48","0","WIZARD","4","SCUBA","3","1","652",,,,,"0","2018-10-02 23:29:09","241937"
"A3T69NQWD8L22Z","cs_wg_rev_mem_pilot1","3A4NIXBJ760HX95608SYFTPZ9EMLM7","49","0","SCUBA","3","BLANKET","5","0","246",,,,,"0","2018-10-02 23:29:11","241938"
"A3T69NQWD8L22Z","cs_wg_rev_mem_pilot1","3A4NIXBJ760HX95608SYFTPZ9EMLM7","50","0","SEAGULL","4","VOLCANO","4","0","356",,,,,"0","2018-10-02 23:29:12","241939"
"A3T69NQWD8L22Z","cs_wg_rev_mem_pilot1","3A4NIXBJ760HX95608SYFTPZ9EMLM7","51","0","SQUID","3","SCUBA","3","1","716",,,,,"0","2018-10-02 23:29:14","241940"
"A3T69NQWD8L22Z","cs_wg_rev_mem_pilot1","3A4NIXBJ760HX95608SYFTPZ9EMLM7","52","0","SCUBA","3","DONKEY","3","0","378",,,,,"0","2018-10-02 23:29:17","241941"
"A3T69NQWD8L22Z","cs_wg_rev_mem_pilot1","3A4NIXBJ760HX95608SYFTPZ9EMLM7","53","0","COWBOY","3","VOLCANO","4","1","621",,,,,"0","2018-10-02 23:29:19","241942"
"A3T69NQWD8L22Z","cs_wg_rev_mem_pilot1","3A4NIXBJ760HX95608SYFTPZ9EMLM7","54","0","FLUTE","3","VOLCANO","4","0","355",,,,,"0","2018-10-02 23:29:20","241943"
"A3T69NQWD8L22Z","cs_wg_rev_mem_pilot1","3A4NIXBJ760HX95608SYFTPZ9EMLM7","55","0","BLANKET","5","SQUID","3","1","347",,,,,"0","2018-10-02 23:29:22","241944"
"A3T69NQWD8L22Z","cs_wg_rev_mem_pilot1","3A4NIXBJ760HX95608SYFTPZ9EMLM7","56","0","VOLCANO","4","SCUBA","3","0","145",,,,,"0","2018-10-02 23:29:23","241945"
"A3T69NQWD8L22Z","cs_wg_rev_mem_pilot1","3A4NIXBJ760HX95608SYFTPZ9EMLM7","57","0","SCUBA","3","SQUID","3","1","346",,,,,"0","2018-10-02 23:29:25","241946"
"A3T69NQWD8L22Z","cs_wg_rev_mem_pilot1","3A4NIXBJ760HX95608SYFTPZ9EMLM7","58","0","CANCER","4","BLANKET","5","0","310",,,,,"0","2018-10-02 23:29:27","241947"
"A3T69NQWD8L22Z","cs_wg_rev_mem_pilot1","3A4NIXBJ760HX95608SYFTPZ9EMLM7","59","0","DONKEY","3","WHISKER","5","1","229",,,,,"0","2018-10-02 23:29:28","241948"
"A3T69NQWD8L22Z","cs_wg_rev_mem_pilot1","3A4NIXBJ760HX95608SYFTPZ9EMLM7","60","0","SQUID","3","COWBOY","3","0","343",,,,,"0","2018-10-02 23:29:30","241949"
"A3T69NQWD8L22Z","cs_wg_rev_mem_pilot1","3A4NIXBJ760HX95608SYFTPZ9EMLM7","61","0","CANCER","4","WIZARD","4","1","312",,,,,"0","2018-10-02 23:29:31","241950"
"A3T69NQWD8L22Z","cs_wg_rev_mem_pilot1","3A4NIXBJ760HX95608SYFTPZ9EMLM7","62","0","CANCER","4","SCUBA","3","0","298",,,,,"0","2018-10-02 23:29:33","241951"
"A3T69NQWD8L22Z","cs_wg_rev_mem_pilot1","3A4NIXBJ760HX95608SYFTPZ9EMLM7","63","0","BLANKET","5","CANCER","4","1","290",,,,,"0","2018-10-02 23:29:34","241952"
"A3T69NQWD8L22Z","cs_wg_rev_mem_pilot1","3A4NIXBJ760HX95608SYFTPZ9EMLM7","64","0","WHISKER","5","VOLCANO","4","0","329",,,,,"0","2018-10-02 23:29:36","241953"
"A3T69NQWD8L22Z","cs_wg_rev_mem_pilot1","3A4NIXBJ760HX95608SYFTPZ9EMLM7","65","0","WHISKER","5","CANCER","4","1","347",,,,,"0","2018-10-02 23:29:38","241954"
"A3T69NQWD8L22Z","cs_wg_rev_mem_pilot1","3A4NIXBJ760HX95608SYFTPZ9EMLM7","66","0","FLUTE","3","BLANKET","5","0","331",,,,,"0","2018-10-02 23:29:39","241955"
"A3T69NQWD8L22Z","cs_wg_rev_mem_pilot1","3A4NIXBJ760HX95608SYFTPZ9EMLM7","67","0","CANCER","4","FLUTE","3","1","335",,,,,"0","2018-10-02 23:29:41","241956"
"A3T69NQWD8L22Z","cs_wg_rev_mem_pilot1","3A4NIXBJ760HX95608SYFTPZ9EMLM7","68","0","DONKEY","3","VOLCANO","4","0","368",,,,,"0","2018-10-02 23:29:42","241957"
"A3T69NQWD8L22Z","cs_wg_rev_mem_pilot1","3A4NIXBJ760HX95608SYFTPZ9EMLM7","69","0","CANCER","4","COWBOY","3","1","491",,,,,"0","2018-10-02 23:29:44","241958"
"A3T69NQWD8L22Z","cs_wg_rev_mem_pilot1","3A4NIXBJ760HX95608SYFTPZ9EMLM7","70","0","SEAGULL","4","WIZARD","4","0","340",,,,,"0","2018-10-02 23:29:46","241959"
"A3T69NQWD8L22Z","cs_wg_rev_mem_pilot1","3A4NIXBJ760HX95608SYFTPZ9EMLM7","71","0","SCUBA","3","VOLCANO","4","1","301",,,,,"0","2018-10-02 23:29:47","241960"
"A3T69NQWD8L22Z","cs_wg_rev_mem_pilot1","3A4NIXBJ760HX95608SYFTPZ9EMLM7","72","0","WHISKER","5","FLUTE","3","0","311",,,,,"0","2018-10-02 23:29:49","241961"
"A3T69NQWD8L22Z","cs_wg_rev_mem_pilot1","3A4NIXBJ760HX95608SYFTPZ9EMLM7","73","0","WHISKER","5","BLANKET","5","1","336",,,,,"0","2018-10-02 23:29:51","241962"
"A3T69NQWD8L22Z","cs_wg_rev_mem_pilot1","3A4NIXBJ760HX95608SYFTPZ9EMLM7","74","0","SEAGULL","4","BLANKET","5","1","475",,,,,"0","2018-10-02 23:29:52","241963"
"A3T69NQWD8L22Z","cs_wg_rev_mem_pilot1","3A4NIXBJ760HX95608SYFTPZ9EMLM7","75","0","WIZARD","4","SQUID","3","1","330",,,,,"0","2018-10-02 23:29:54","241964"
"A3T69NQWD8L22Z","cs_wg_rev_mem_pilot1","3A4NIXBJ760HX95608SYFTPZ9EMLM7","76","0","SQUID","3","WIZARD","4","1","321",,,,,"0","2018-10-02 23:29:55","241965"
"A3T69NQWD8L22Z","cs_wg_rev_mem_pilot1","3A4NIXBJ760HX95608SYFTPZ9EMLM7","77","0","SCUBA","3","FLUTE","3","0","371",,,,,"0","2018-10-02 23:29:57","241966"
"A3T69NQWD8L22Z","cs_wg_rev_mem_pilot1","3A4NIXBJ760HX95608SYFTPZ9EMLM7","78","0","COWBOY","3","CRICKET","5","0","315",,,,,"0","2018-10-02 23:29:59","241967"
"A3T69NQWD8L22Z","cs_wg_rev_mem_pilot1","3A4NIXBJ760HX95608SYFTPZ9EMLM7","79","0","BLANKET","5","SCUBA","3","0","356",,,,,"0","2018-10-02 23:30:00","241968"
"A3T69NQWD8L22Z","cs_wg_rev_mem_pilot1","3A4NIXBJ760HX95608SYFTPZ9EMLM7","80","0","SQUID","3","BLANKET","5","1","323",,,,,"0","2018-10-02 23:30:02","241969"
"A3T69NQWD8L22Z","cs_wg_rev_mem_pilot1","3A4NIXBJ760HX95608SYFTPZ9EMLM7","81","0","BLANKET","5","WIZARD","4","1","283",,,,,"0","2018-10-02 23:30:04","241970"
"A3T69NQWD8L22Z","cs_wg_rev_mem_pilot1","3A4NIXBJ760HX95608SYFTPZ9EMLM7","82","0","WHISKER","5","COWBOY","3","1","338",,,,,"0","2018-10-02 23:30:05","241971"
"A3T69NQWD8L22Z","cs_wg_rev_mem_pilot1","3A4NIXBJ760HX95608SYFTPZ9EMLM7","83","0","SEAGULL","4","CANCER","4","0","931",,,,,"0","2018-10-02 23:30:08","241972"
"A3T69NQWD8L22Z","cs_wg_rev_mem_pilot1","3A4NIXBJ760HX95608SYFTPZ9EMLM7","84","0","CRICKET","5","SQUID","3","0","498",,,,,"0","2018-10-02 23:30:10","241973"
"A3T69NQWD8L22Z","cs_wg_rev_mem_pilot1","3A4NIXBJ760HX95608SYFTPZ9EMLM7","85","0","DONKEY","3","SCUBA","3","1","1795",,,,,"0","2018-10-02 23:30:13","241974"
"A3T69NQWD8L22Z","cs_wg_rev_mem_pilot1","3A4NIXBJ760HX95608SYFTPZ9EMLM7","86","0","WIZARD","4","CANCER","4","0","234",,,,,"0","2018-10-02 23:30:14","241975"
"A3T69NQWD8L22Z","cs_wg_rev_mem_pilot1","3A4NIXBJ760HX95608SYFTPZ9EMLM7","87","0","VOLCANO","4","SQUID","3","1","226",,,,,"0","2018-10-02 23:30:16","241976"
"A3T69NQWD8L22Z","cs_wg_rev_mem_pilot1","3A4NIXBJ760HX95608SYFTPZ9EMLM7","88","0","SQUID","3","CANCER","4","1","311",,,,,"0","2018-10-02 23:30:17","241977"
"A3T69NQWD8L22Z","cs_wg_rev_mem_pilot1","3A4NIXBJ760HX95608SYFTPZ9EMLM7","89","0","WHISKER","5","CRICKET","5","0","348",,,,,"0","2018-10-02 23:30:21","241978"
"A3T69NQWD8L22Z","cs_wg_rev_mem_pilot1","3A4NIXBJ760HX95608SYFTPZ9EMLM7","90","0","WHISKER","5","DONKEY","3","0","827",,,,,"0","2018-10-02 23:30:23","241979"
"A3T69NQWD8L22Z","cs_wg_rev_mem_pilot1","3A4NIXBJ760HX95608SYFTPZ9EMLM7","91","0","BLANKET","5","WHISKER","5","0","378",,,,,"0","2018-10-02 23:30:25","241980"
"A3T69NQWD8L22Z","cs_wg_rev_mem_pilot1","3A4NIXBJ760HX95608SYFTPZ9EMLM7","92","0","CRICKET","5","COWBOY","3","1","512",,,,,"0","2018-10-02 23:30:27","241981"
"A3T69NQWD8L22Z","cs_wg_rev_mem_pilot1","3A4NIXBJ760HX95608SYFTPZ9EMLM7","93","0","CRICKET","5","FLUTE","3","1","1996",,,,,"0","2018-10-02 23:30:30","241982"
"A3T69NQWD8L22Z","cs_wg_rev_mem_pilot1","3A4NIXBJ760HX95608SYFTPZ9EMLM7","94","0","COWBOY","3","FLUTE","3","0","999",,,,,"0","2018-10-02 23:30:32","241983"
"A3T69NQWD8L22Z","cs_wg_rev_mem_pilot1","3A4NIXBJ760HX95608SYFTPZ9EMLM7","95","0","BLANKET","5","DONKEY","3","0","582",,,,,"0","2018-10-02 23:30:35","241984"
"A3T69NQWD8L22Z","cs_wg_rev_mem_pilot1","3A4NIXBJ760HX95608SYFTPZ9EMLM7","96","0","VOLCANO","4","WIZARD","4","0","477",,,,,"0","2018-10-02 23:30:37","241985"
"A3T69NQWD8L22Z","cs_wg_rev_mem_pilot1","3A4NIXBJ760HX95608SYFTPZ9EMLM7","97","0","WHISKER","5","WIZARD","4","1","739",,,,,"0","2018-10-02 23:30:39","241986"
"A3T69NQWD8L22Z","cs_wg_rev_mem_pilot1","3A4NIXBJ760HX95608SYFTPZ9EMLM7","98","0","SQUID","3","SEAGULL","4","0","539",,,,,"0","2018-10-02 23:30:41","241987"
"A3T69NQWD8L22Z","cs_wg_rev_mem_pilot1","3A4NIXBJ760HX95608SYFTPZ9EMLM7","99","0","SQUID","3","CRICKET","5","1","794",,,,,"0","2018-10-02 23:30:43","241988"
"A3T69NQWD8L22Z","cs_wg_rev_mem_pilot1","3A4NIXBJ760HX95608SYFTPZ9EMLM7","100","0","BLANKET","5","COWBOY","3","0","441",,,,,"0","2018-10-02 23:30:45","241989"
"A3T69NQWD8L22Z","cs_wg_rev_mem_pilot1","3A4NIXBJ760HX95608SYFTPZ9EMLM7","101","0","FLUTE","3","COWBOY","3","1","337",,,,,"0","2018-10-02 23:30:47","241990"
"A3T69NQWD8L22Z","cs_wg_rev_mem_pilot1","3A4NIXBJ760HX95608SYFTPZ9EMLM7","102","0","SEAGULL","4","SQUID","3","0","346",,,,,"0","2018-10-02 23:30:49","241991"
"A3T69NQWD8L22Z","cs_wg_rev_mem_pilot1","3A4NIXBJ760HX95608SYFTPZ9EMLM7","103","0","WHISKER","5","SEAGULL","4","1","67379",,,,,"0","2018-10-02 23:31:58","241992"
"A3T69NQWD8L22Z","cs_wg_rev_mem_pilot1","3A4NIXBJ760HX95608SYFTPZ9EMLM7","104","0","VOLCANO","4","FLUTE","3","0","2116",,,,,"0","2018-10-02 23:32:02","241993"
"A3T69NQWD8L22Z","cs_wg_rev_mem_pilot1","3A4NIXBJ760HX95608SYFTPZ9EMLM7","105","0","BLANKET","5","SEAGULL","4","1","432",,,,,"0","2018-10-02 23:32:04","241994"
"A3T69NQWD8L22Z","cs_wg_rev_mem_pilot1","3A4NIXBJ760HX95608SYFTPZ9EMLM7","106","0","WIZARD","4","BLANKET","5","0","342",,,,,"0","2018-10-02 23:32:06","241995"
"A3T69NQWD8L22Z","cs_wg_rev_mem_pilot1","3A4NIXBJ760HX95608SYFTPZ9EMLM7","107","0","CRICKET","5","SCUBA","3","1","345",,,,,"0","2018-10-02 23:32:07","241996"
"A3T69NQWD8L22Z","cs_wg_rev_mem_pilot1","3A4NIXBJ760HX95608SYFTPZ9EMLM7","108","0","DONKEY","3","SEAGULL","4","0","331",,,,,"0","2018-10-02 23:32:09","241997"
"A3T69NQWD8L22Z","cs_wg_rev_mem_pilot1","3A4NIXBJ760HX95608SYFTPZ9EMLM7","109","0","COWBOY","3","SCUBA","3","1","323",,,,,"0","2018-10-02 23:32:11","241998"
"A3T69NQWD8L22Z","cs_wg_rev_mem_pilot1","3A4NIXBJ760HX95608SYFTPZ9EMLM7","110","0","FLUTE","3","WHISKER","5","0","261",,,,,"0","2018-10-02 23:32:12","241999"
"A3T69NQWD8L22Z","cs_wg_rev_mem_pilot1","3A4NIXBJ760HX95608SYFTPZ9EMLM7","111","0","VOLCANO","4","SEAGULL","4","1","139",,,,,"0","2018-10-02 23:32:14","242000"
"A3T69NQWD8L22Z","cs_wg_rev_mem_pilot1","3A4NIXBJ760HX95608SYFTPZ9EMLM7","112","0","FLUTE","3","WIZARD","4","0","442",,,,,"0","2018-10-02 23:32:16","242001"
"A3T69NQWD8L22Z","cs_wg_rev_mem_pilot1","3A4NIXBJ760HX95608SYFTPZ9EMLM7","113","0","SCUBA","3","COWBOY","3","1","235",,,,,"0","2018-10-02 23:32:17","242002"
"A3T69NQWD8L22Z","cs_wg_rev_mem_pilot1","3A4NIXBJ760HX95608SYFTPZ9EMLM7","114","0","VOLCANO","4","WHISKER","5","0","257",,,,,"0","2018-10-02 23:32:19","242003"
"A3T69NQWD8L22Z","cs_wg_rev_mem_pilot1","3A4NIXBJ760HX95608SYFTPZ9EMLM7","115","0","WHISKER","5","SCUBA","3","0","5352",,,,,"0","2018-10-02 23:32:26","242004"
"A3T69NQWD8L22Z","cs_wg_rev_mem_pilot1","3A4NIXBJ760HX95608SYFTPZ9EMLM7","116","0","COWBOY","3","SQUID","3","1","418",,,,,"0","2018-10-02 23:32:28","242005"
"A3T69NQWD8L22Z","cs_wg_rev_mem_pilot1","3A4NIXBJ760HX95608SYFTPZ9EMLM7","117","0","SEAGULL","4","CRICKET","5","1","637",,,,,"0","2018-10-02 23:32:30","242006"
"A3T69NQWD8L22Z","cs_wg_rev_mem_pilot1","3A4NIXBJ760HX95608SYFTPZ9EMLM7","118","0","CRICKET","5","SEAGULL","4","1","1378",,,,,"0","2018-10-02 23:32:33","242007"
"A3T69NQWD8L22Z","cs_wg_rev_mem_pilot1","3A4NIXBJ760HX95608SYFTPZ9EMLM7","119","0","SEAGULL","4","DONKEY","3","0","469",,,,,"0","2018-10-02 23:32:35","242008"
"A3T69NQWD8L22Z","cs_wg_rev_mem_pilot1","3A4NIXBJ760HX95608SYFTPZ9EMLM7","120","0","SCUBA","3","CANCER","4","0","202",,,,,"0","2018-10-02 23:32:36","242009"
"A3T69NQWD8L22Z","cs_wg_rev_mem_pilot1","3A4NIXBJ760HX95608SYFTPZ9EMLM7","121","0","BLANKET","5","VOLCANO","4","1","346",,,,,"0","2018-10-02 23:32:38","242010"
"A3T69NQWD8L22Z","cs_wg_rev_mem_pilot1","3A4NIXBJ760HX95608SYFTPZ9EMLM7","122","0","COWBOY","3","WIZARD","4","1","323",,,,,"0","2018-10-02 23:32:40","242011"
"A3T69NQWD8L22Z","cs_wg_rev_mem_pilot1","3A4NIXBJ760HX95608SYFTPZ9EMLM7","123","0","WIZARD","4","FLUTE","3","0","529",,,,,"0","2018-10-02 23:32:41","242012"
"A3T69NQWD8L22Z","cs_wg_rev_mem_pilot1","3A4NIXBJ760HX95608SYFTPZ9EMLM7","124","0","SCUBA","3","CRICKET","5","0","337",,,,,"0","2018-10-02 23:32:43","242013"
"A3T69NQWD8L22Z","cs_wg_rev_mem_pilot1","3A4NIXBJ760HX95608SYFTPZ9EMLM7","125","0","WIZARD","4","COWBOY","3","1","280",,,,,"0","2018-10-02 23:32:45","242014"
"A3T69NQWD8L22Z","cs_wg_rev_mem_pilot1","3A4NIXBJ760HX95608SYFTPZ9EMLM7","126","0","FLUTE","3","SQUID","3","1","298",,,,,"0","2018-10-02 23:32:46","242015"
"A3T69NQWD8L22Z","cs_wg_rev_mem_pilot1","3A4NIXBJ760HX95608SYFTPZ9EMLM7","127","0","SEAGULL","4","FLUTE","3","0","532",,,,,"0","2018-10-02 23:32:48","242016"
"A3T69NQWD8L22Z","cs_wg_rev_mem_pilot1","3A4NIXBJ760HX95608SYFTPZ9EMLM7","128","0","WIZARD","4","SEAGULL","4","0","430",,,,,"0","2018-10-02 23:32:50","242017"
"A3T69NQWD8L22Z","cs_wg_rev_mem_pilot1","3A4NIXBJ760HX95608SYFTPZ9EMLM7","129","0","CANCER","4","CRICKET","5","1","558",,,,,"0","2018-10-02 23:32:52","242018"
"A3T69NQWD8L22Z","cs_wg_rev_mem_pilot1","3A4NIXBJ760HX95608SYFTPZ9EMLM7","130","0","DONKEY","3","FLUTE","3","1","500",,,,,"0","2018-10-02 23:32:54","242019"
"A3T69NQWD8L22Z","cs_wg_rev_mem_pilot1","3A4NIXBJ760HX95608SYFTPZ9EMLM7","131","0","DONKEY","3","COWBOY","3","0","299",,,,,"0","2018-10-02 23:32:55","242020"
"AZZ8LHBJU74S4","cs_wg_rev_mem_pilot1","3MD9PLUKKIF7KG7ARAY70NPXTD4NZS","0","0","CHICKEN","5","ISLAND","4","0","11628",,,,,"0","2018-10-02 23:33:41","242021"
"AZZ8LHBJU74S4","cs_wg_rev_mem_pilot1","3MD9PLUKKIF7KG7ARAY70NPXTD4NZS","1","0","POTATO","3","LIQUID","3","0","8267",,,,,"0","2018-10-02 23:33:53","242022"
"AZZ8LHBJU74S4","cs_wg_rev_mem_pilot1","3MD9PLUKKIF7KG7ARAY70NPXTD4NZS","2","0","ISLAND","4","MOUTH","3","0","8667",,,,,"0","2018-10-02 23:34:04","242023"
"AZZ8LHBJU74S4","cs_wg_rev_mem_pilot1","3MD9PLUKKIF7KG7ARAY70NPXTD4NZS","3","0","BUCKET","4","GRENADE","4","0","8357",,,,,"0","2018-10-02 23:34:14","242024"
"AZZ8LHBJU74S4","cs_wg_rev_mem_pilot1","3MD9PLUKKIF7KG7ARAY70NPXTD4NZS","4","0","HOCKEY","3","ISLAND","4","0","7586",,,,,"0","2018-10-02 23:34:34","242025"
"AZZ8LHBJU74S4","cs_wg_rev_mem_pilot1","3MD9PLUKKIF7KG7ARAY70NPXTD4NZS","5","0","CHICKEN","5","MOUTH","3","0","10350",,,,,"0","2018-10-02 23:34:47","242026"
"AZZ8LHBJU74S4","cs_wg_rev_mem_pilot1","3MD9PLUKKIF7KG7ARAY70NPXTD4NZS","6","0","LETTUCE","4","CHICKEN","5","1","14489",,,,,"0","2018-10-02 23:35:04","242027"
"AZZ8LHBJU74S4","cs_wg_rev_mem_pilot1","3MD9PLUKKIF7KG7ARAY70NPXTD4NZS","7","0","BICYCLE","4","LIQUID","3","0","9488",,,,,"0","2018-10-02 23:35:19","242028"
"AZZ8LHBJU74S4","cs_wg_rev_mem_pilot1","3MD9PLUKKIF7KG7ARAY70NPXTD4NZS","8","0","CHICKEN","5","GRENADE","4","0","8783",,,,,"0","2018-10-02 23:35:30","242029"
"AZZ8LHBJU74S4","cs_wg_rev_mem_pilot1","3MD9PLUKKIF7KG7ARAY70NPXTD4NZS","9","0","GRENADE","4","BAKER","3","0","8146",,,,,"0","2018-10-02 23:35:41","242030"
"A3T69NQWD8L22Z","cs_wg_rev_mem_pilot1","3A4NIXBJ760HX95608SYFTPZ9EMLM7","0","0","HOUSE","2","ANKLE","3","0","20303",,,,,"0","2018-10-02 23:35:42","242031"
"AZZ8LHBJU74S4","cs_wg_rev_mem_pilot1","3MD9PLUKKIF7KG7ARAY70NPXTD4NZS","10","0","POTATO","3","COSTUME","4","1","6076",,,,,"0","2018-10-02 23:35:49","242032"
"AZZ8LHBJU74S4","cs_wg_rev_mem_pilot1","3MD9PLUKKIF7KG7ARAY70NPXTD4NZS","11","0","POTATO","3","GRENADE","4","1","3797",,,,,"0","2018-10-02 23:35:55","242033"
"A3T69NQWD8L22Z","cs_wg_rev_mem_pilot1","3A4NIXBJ760HX95608SYFTPZ9EMLM7","1","0","BICYCLE","4","PALACE","3","1","14750",,,,,"0","2018-10-02 23:35:59","242034"
"AZZ8LHBJU74S4","cs_wg_rev_mem_pilot1","3MD9PLUKKIF7KG7ARAY70NPXTD4NZS","12","0","HOCKEY","3","COSTUME","4","1","11813",,,,,"0","2018-10-02 23:36:09","242035"
"A3T69NQWD8L22Z","cs_wg_rev_mem_pilot1","3A4NIXBJ760HX95608SYFTPZ9EMLM7","2","0","BICYCLE","4","GRENADE","4","1","13418",,,,,"0","2018-10-02 23:36:14","242036"
"AZZ8LHBJU74S4","cs_wg_rev_mem_pilot1","3MD9PLUKKIF7KG7ARAY70NPXTD4NZS","13","0","CHICKEN","5","COSTUME","4","0","5448",,,,,"0","2018-10-02 23:36:17","242037"
"AZZ8LHBJU74S4","cs_wg_rev_mem_pilot1","3MD9PLUKKIF7KG7ARAY70NPXTD4NZS","14","0","LETTUCE","4","GRENADE","4","1","9169",,,,,"0","2018-10-02 23:36:28","242038"
"AZZ8LHBJU74S4","cs_wg_rev_mem_pilot1","3MD9PLUKKIF7KG7ARAY70NPXTD4NZS","15","0","LIQUID","3","BICYCLE","4","1","8316",,,,,"0","2018-10-02 23:36:40","242039"
"AZZ8LHBJU74S4","cs_wg_rev_mem_pilot1","3MD9PLUKKIF7KG7ARAY70NPXTD4NZS","16","0","COSTUME","4","MOUTH","3","0","5646",,,,,"0","2018-10-02 23:36:48","242040"
"AZZ8LHBJU74S4","cs_wg_rev_mem_pilot1","3MD9PLUKKIF7KG7ARAY70NPXTD4NZS","17","0","COSTUME","4","POTATO","3","0","6804",,,,,"0","2018-10-02 23:36:57","242041"
"AZZ8LHBJU74S4","cs_wg_rev_mem_pilot1","3MD9PLUKKIF7KG7ARAY70NPXTD4NZS","18","0","LIQUID","3","HOCKEY","3","1","10218",,,,,"0","2018-10-02 23:37:09","242042"
"AZZ8LHBJU74S4","cs_wg_rev_mem_pilot1","3MD9PLUKKIF7KG7ARAY70NPXTD4NZS","19","0","BAKER","3","ISLAND","4","1","4832",,,,,"0","2018-10-02 23:37:16","242043"
"AZZ8LHBJU74S4","cs_wg_rev_mem_pilot1","3MD9PLUKKIF7KG7ARAY70NPXTD4NZS","20","0","MOUTH","3","POTATO","3","0","7815",,,,,"0","2018-10-02 23:37:26","242044"
"AZZ8LHBJU74S4","cs_wg_rev_mem_pilot1","3MD9PLUKKIF7KG7ARAY70NPXTD4NZS","21","0","POTATO","3","BUCKET","4","1","4543",,,,,"0","2018-10-02 23:37:34","242045"
"AZZ8LHBJU74S4","cs_wg_rev_mem_pilot1","3MD9PLUKKIF7KG7ARAY70NPXTD4NZS","22","0","LETTUCE","4","MOUTH","3","0","6116",,,,,"0","2018-10-02 23:37:42","242046"
"AZZ8LHBJU74S4","cs_wg_rev_mem_pilot1","3MD9PLUKKIF7KG7ARAY70NPXTD4NZS","23","0","CHICKEN","5","BICYCLE","4","0","7267",,,,,"0","2018-10-02 23:37:51","242047"
"AZZ8LHBJU74S4","cs_wg_rev_mem_pilot1","3MD9PLUKKIF7KG7ARAY70NPXTD4NZS","24","0","BICYCLE","4","BAKER","3","0","5390",,,,,"0","2018-10-02 23:37:59","242048"
"AZZ8LHBJU74S4","cs_wg_rev_mem_pilot1","3MD9PLUKKIF7KG7ARAY70NPXTD4NZS","25","0","MOUTH","3","BUCKET","4","1","4670",,,,,"0","2018-10-02 23:38:05","242049"
"AZZ8LHBJU74S4","cs_wg_rev_mem_pilot1","3MD9PLUKKIF7KG7ARAY70NPXTD4NZS","26","0","BAKER","3","GRENADE","4","1","6453",,,,,"0","2018-10-02 23:38:14","242050"
"AZZ8LHBJU74S4","cs_wg_rev_mem_pilot1","3MD9PLUKKIF7KG7ARAY70NPXTD4NZS","27","0","BAKER","3","HOCKEY","3","1","5387",,,,,"0","2018-10-02 23:38:22","242051"
"AZZ8LHBJU74S4","cs_wg_rev_mem_pilot1","3MD9PLUKKIF7KG7ARAY70NPXTD4NZS","28","0","LETTUCE","4","LIQUID","3","0","4614",,,,,"0","2018-10-02 23:38:28","242052"
"AZZ8LHBJU74S4","cs_wg_rev_mem_pilot1","3MD9PLUKKIF7KG7ARAY70NPXTD4NZS","29","0","BICYCLE","4","CHICKEN","5","1","5386",,,,,"0","2018-10-02 23:38:36","242053"
"AZZ8LHBJU74S4","cs_wg_rev_mem_pilot1","3MD9PLUKKIF7KG7ARAY70NPXTD4NZS","30","0","BAKER","3","COSTUME","4","1","4956",,,,,"0","2018-10-02 23:38:43","242054"
"AZZ8LHBJU74S4","cs_wg_rev_mem_pilot1","3MD9PLUKKIF7KG7ARAY70NPXTD4NZS","31","0","COSTUME","4","BICYCLE","4","1","14031",,,,,"0","2018-10-02 23:38:59","242055"
"AZZ8LHBJU74S4","cs_wg_rev_mem_pilot1","3MD9PLUKKIF7KG7ARAY70NPXTD4NZS","32","0","BICYCLE","4","COSTUME","4","1","6001",,,,,"0","2018-10-02 23:39:07","242056"
"AZZ8LHBJU74S4","cs_wg_rev_mem_pilot1","3MD9PLUKKIF7KG7ARAY70NPXTD4NZS","33","0","GRENADE","4","ISLAND","4","1","6089",,,,,"0","2018-10-02 23:39:16","242057"
"AZZ8LHBJU74S4","cs_wg_rev_mem_pilot1","3MD9PLUKKIF7KG7ARAY70NPXTD4NZS","34","0","GRENADE","4","POTATO","3","0","4834",,,,,"0","2018-10-02 23:39:23","242058"
"AZZ8LHBJU74S4","cs_wg_rev_mem_pilot1","3MD9PLUKKIF7KG7ARAY70NPXTD4NZS","35","0","ISLAND","4","BUCKET","4","1","4878",,,,,"0","2018-10-02 23:39:30","242059"
"AZZ8LHBJU74S4","cs_wg_rev_mem_pilot1","3MD9PLUKKIF7KG7ARAY70NPXTD4NZS","36","0","COSTUME","4","ISLAND","4","1","6583",,,,,"0","2018-10-02 23:39:39","242060"
"AZZ8LHBJU74S4","cs_wg_rev_mem_pilot1","3MD9PLUKKIF7KG7ARAY70NPXTD4NZS","37","0","COSTUME","4","GRENADE","4","1","6429",,,,,"0","2018-10-02 23:39:47","242061"
"AZZ8LHBJU74S4","cs_wg_rev_mem_pilot1","3MD9PLUKKIF7KG7ARAY70NPXTD4NZS","38","0","ISLAND","4","LETTUCE","4","1","5145",,,,,"0","2018-10-02 23:39:55","242062"
"AZZ8LHBJU74S4","cs_wg_rev_mem_pilot1","3MD9PLUKKIF7KG7ARAY70NPXTD4NZS","39","0","LIQUID","3","BAKER","3","1","3426",,,,,"0","2018-10-02 23:40:01","242063"
"AZZ8LHBJU74S4","cs_wg_rev_mem_pilot1","3MD9PLUKKIF7KG7ARAY70NPXTD4NZS","40","0","POTATO","3","ISLAND","4","1","3810",,,,,"0","2018-10-02 23:40:07","242064"
"AZZ8LHBJU74S4","cs_wg_rev_mem_pilot1","3MD9PLUKKIF7KG7ARAY70NPXTD4NZS","41","0","POTATO","3","MOUTH","3","1","3446",,,,,"0","2018-10-02 23:40:12","242065"
"AZZ8LHBJU74S4","cs_wg_rev_mem_pilot1","3MD9PLUKKIF7KG7ARAY70NPXTD4NZS","42","0","MOUTH","3","LIQUID","3","1","4497",,,,,"0","2018-10-02 23:40:19","242066"
"AZZ8LHBJU74S4","cs_wg_rev_mem_pilot1","3MD9PLUKKIF7KG7ARAY70NPXTD4NZS","43","0","LETTUCE","4","BICYCLE","4","1","11510",,,,,"0","2018-10-02 23:40:33","242067"
"AZZ8LHBJU74S4","cs_wg_rev_mem_pilot1","3MD9PLUKKIF7KG7ARAY70NPXTD4NZS","44","0","BICYCLE","4","GRENADE","4","1","7220",,,,,"0","2018-10-02 23:40:43","242068"
"AZZ8LHBJU74S4","cs_wg_rev_mem_pilot1","3MD9PLUKKIF7KG7ARAY70NPXTD4NZS","45","0","LETTUCE","4","BAKER","3","0","3509",,,,,"0","2018-10-02 23:40:49","242069"
"AZZ8LHBJU74S4","cs_wg_rev_mem_pilot1","3MD9PLUKKIF7KG7ARAY70NPXTD4NZS","46","0","COSTUME","4","HOCKEY","3","0","7830",,,,,"0","2018-10-02 23:40:59","242070"
"AZZ8LHBJU74S4","cs_wg_rev_mem_pilot1","3MD9PLUKKIF7KG7ARAY70NPXTD4NZS","47","0","POTATO","3","HOCKEY","3","1","4611",,,,,"0","2018-10-02 23:41:06","242071"
"AZZ8LHBJU74S4","cs_wg_rev_mem_pilot1","3MD9PLUKKIF7KG7ARAY70NPXTD4NZS","48","0","LETTUCE","4","COSTUME","4","0","5260",,,,,"0","2018-10-02 23:41:14","242072"
"AZZ8LHBJU74S4","cs_wg_rev_mem_pilot1","3MD9PLUKKIF7KG7ARAY70NPXTD4NZS","49","0","BAKER","3","BICYCLE","4","1","5355",,,,,"0","2018-10-02 23:41:22","242073"
"AZZ8LHBJU74S4","cs_wg_rev_mem_pilot1","3MD9PLUKKIF7KG7ARAY70NPXTD4NZS","50","0","BUCKET","4","ISLAND","4","1","4577",,,,,"0","2018-10-02 23:41:28","242074"
"AZZ8LHBJU74S4","cs_wg_rev_mem_pilot1","3MD9PLUKKIF7KG7ARAY70NPXTD4NZS","51","0","CHICKEN","5","POTATO","3","0","4915",,,,,"0","2018-10-02 23:41:35","242075"
"AZZ8LHBJU74S4","cs_wg_rev_mem_pilot1","3MD9PLUKKIF7KG7ARAY70NPXTD4NZS","52","0","LIQUID","3","ISLAND","4","1","5122",,,,,"0","2018-10-02 23:41:43","242076"
"AZZ8LHBJU74S4","cs_wg_rev_mem_pilot1","3MD9PLUKKIF7KG7ARAY70NPXTD4NZS","53","0","BAKER","3","CHICKEN","5","1","4383",,,,,"0","2018-10-02 23:41:49","242077"
"AZZ8LHBJU74S4","cs_wg_rev_mem_pilot1","3MD9PLUKKIF7KG7ARAY70NPXTD4NZS","54","0","BAKER","3","LIQUID","3","1","4486",,,,,"0","2018-10-02 23:41:56","242078"
"AZZ8LHBJU74S4","cs_wg_rev_mem_pilot1","3MD9PLUKKIF7KG7ARAY70NPXTD4NZS","55","0","BUCKET","4","LETTUCE","4","1","6665",,,,,"0","2018-10-02 23:42:05","242079"
"AZZ8LHBJU74S4","cs_wg_rev_mem_pilot1","3MD9PLUKKIF7KG7ARAY70NPXTD4NZS","56","0","ISLAND","4","HOCKEY","3","0","5295",,,,,"0","2018-10-02 23:42:12","242080"
"AZZ8LHBJU74S4","cs_wg_rev_mem_pilot1","3MD9PLUKKIF7KG7ARAY70NPXTD4NZS","57","0","GRENADE","4","LETTUCE","4","1","4692",,,,,"0","2018-10-02 23:42:19","242081"
"AZZ8LHBJU74S4","cs_wg_rev_mem_pilot1","3MD9PLUKKIF7KG7ARAY70NPXTD4NZS","58","0","MOUTH","3","COSTUME","4","1","6836",,,,,"0","2018-10-02 23:42:29","242082"
"AZZ8LHBJU74S4","cs_wg_rev_mem_pilot1","3MD9PLUKKIF7KG7ARAY70NPXTD4NZS","59","0","LIQUID","3","GRENADE","4","1","3616",,,,,"0","2018-10-02 23:42:34","242083"
"AZZ8LHBJU74S4","cs_wg_rev_mem_pilot1","3MD9PLUKKIF7KG7ARAY70NPXTD4NZS","60","0","LIQUID","3","MOUTH","3","1","3200",,,,,"0","2018-10-02 23:42:40","242084"
"AZZ8LHBJU74S4","cs_wg_rev_mem_pilot1","3MD9PLUKKIF7KG7ARAY70NPXTD4NZS","61","0","HOCKEY","3","BICYCLE","4","1","4750",,,,,"0","2018-10-02 23:42:47","242085"
"AZZ8LHBJU74S4","cs_wg_rev_mem_pilot1","3MD9PLUKKIF7KG7ARAY70NPXTD4NZS","62","0","GRENADE","4","COSTUME","4","1","7699",,,,,"0","2018-10-02 23:42:57","242086"
"AZZ8LHBJU74S4","cs_wg_rev_mem_pilot1","3MD9PLUKKIF7KG7ARAY70NPXTD4NZS","63","0","LIQUID","3","BUCKET","4","1","3917",,,,,"0","2018-10-02 23:43:03","242087"
"AZZ8LHBJU74S4","cs_wg_rev_mem_pilot1","3MD9PLUKKIF7KG7ARAY70NPXTD4NZS","64","0","MOUTH","3","BICYCLE","4","1","4502",,,,,"0","2018-10-02 23:43:12","242088"
"AZZ8LHBJU74S4","cs_wg_rev_mem_pilot1","3MD9PLUKKIF7KG7ARAY70NPXTD4NZS","65","0","GRENADE","4","MOUTH","3","0","3826",,,,,"0","2018-10-02 23:43:18","242089"
"AZZ8LHBJU74S4","cs_wg_rev_mem_pilot1","3MD9PLUKKIF7KG7ARAY70NPXTD4NZS","66","0","HOCKEY","3","GRENADE","4","1","3510",,,,,"0","2018-10-02 23:43:23","242090"
"AZZ8LHBJU74S4","cs_wg_rev_mem_pilot1","3MD9PLUKKIF7KG7ARAY70NPXTD4NZS","67","0","HOCKEY","3","MOUTH","3","0","6292",,,,,"0","2018-10-02 23:43:32","242091"
"AZZ8LHBJU74S4","cs_wg_rev_mem_pilot1","3MD9PLUKKIF7KG7ARAY70NPXTD4NZS","68","0","LIQUID","3","LETTUCE","4","1","3909",,,,,"0","2018-10-02 23:43:37","242092"
"AZZ8LHBJU74S4","cs_wg_rev_mem_pilot1","3MD9PLUKKIF7KG7ARAY70NPXTD4NZS","69","0","POTATO","3","LETTUCE","4","1","3382",,,,,"0","2018-10-02 23:43:43","242093"
"AZZ8LHBJU74S4","cs_wg_rev_mem_pilot1","3MD9PLUKKIF7KG7ARAY70NPXTD4NZS","70","0","COSTUME","4","LETTUCE","4","1","8423",,,,,"0","2018-10-02 23:43:54","242094"
"AZZ8LHBJU74S4","cs_wg_rev_mem_pilot1","3MD9PLUKKIF7KG7ARAY70NPXTD4NZS","71","0","GRENADE","4","BUCKET","4","1","4069",,,,,"0","2018-10-02 23:44:00","242095"
"AZZ8LHBJU74S4","cs_wg_rev_mem_pilot1","3MD9PLUKKIF7KG7ARAY70NPXTD4NZS","72","0","HOCKEY","3","BAKER","3","1","5020",,,,,"0","2018-10-02 23:44:07","242096"
"AZZ8LHBJU74S4","cs_wg_rev_mem_pilot1","3MD9PLUKKIF7KG7ARAY70NPXTD4NZS","73","0","HOCKEY","3","LIQUID","3","1","3095",,,,,"0","2018-10-02 23:44:12","242097"
"AZZ8LHBJU74S4","cs_wg_rev_mem_pilot1","3MD9PLUKKIF7KG7ARAY70NPXTD4NZS","74","0","LETTUCE","4","POTATO","3","0","3825",,,,,"0","2018-10-02 23:44:18","242098"
"AZZ8LHBJU74S4","cs_wg_rev_mem_pilot1","3MD9PLUKKIF7KG7ARAY70NPXTD4NZS","75","0","BAKER","3","LETTUCE","4","1","2289",,,,,"0","2018-10-02 23:44:23","242099"
"AZZ8LHBJU74S4","cs_wg_rev_mem_pilot1","3MD9PLUKKIF7KG7ARAY70NPXTD4NZS","76","0","BICYCLE","4","POTATO","3","0","3883",,,,,"0","2018-10-02 23:44:29","242100"
"AZZ8LHBJU74S4","cs_wg_rev_mem_pilot1","3MD9PLUKKIF7KG7ARAY70NPXTD4NZS","77","0","MOUTH","3","CHICKEN","5","1","3332",,,,,"0","2018-10-02 23:44:34","242101"
"AZZ8LHBJU74S4","cs_wg_rev_mem_pilot1","3MD9PLUKKIF7KG7ARAY70NPXTD4NZS","78","0","BUCKET","4","BICYCLE","4","1","3527",,,,,"0","2018-10-02 23:44:40","242102"
"AZZ8LHBJU74S4","cs_wg_rev_mem_pilot1","3MD9PLUKKIF7KG7ARAY70NPXTD4NZS","79","0","CHICKEN","5","LETTUCE","4","0","4172",,,,,"0","2018-10-02 23:44:47","242103"
"AZZ8LHBJU74S4","cs_wg_rev_mem_pilot1","3MD9PLUKKIF7KG7ARAY70NPXTD4NZS","80","0","BAKER","3","BUCKET","4","1","4059",,,,,"0","2018-10-02 23:44:53","242104"
"AZZ8LHBJU74S4","cs_wg_rev_mem_pilot1","3MD9PLUKKIF7KG7ARAY70NPXTD4NZS","81","0","BUCKET","4","POTATO","3","0","3322",,,,,"0","2018-10-02 23:45:00","242105"
"AZZ8LHBJU74S4","cs_wg_rev_mem_pilot1","3MD9PLUKKIF7KG7ARAY70NPXTD4NZS","82","0","ISLAND","4","BAKER","3","0","3904",,,,,"0","2018-10-02 23:45:05","242106"
"AZZ8LHBJU74S4","cs_wg_rev_mem_pilot1","3MD9PLUKKIF7KG7ARAY70NPXTD4NZS","83","0","BUCKET","4","BAKER","3","0","5511",,,,,"0","2018-10-02 23:45:13","242107"
"AZZ8LHBJU74S4","cs_wg_rev_mem_pilot1","3MD9PLUKKIF7KG7ARAY70NPXTD4NZS","84","0","ISLAND","4","COSTUME","4","0","7746",,,,,"0","2018-10-02 23:45:24","242108"
"AZZ8LHBJU74S4","cs_wg_rev_mem_pilot1","3MD9PLUKKIF7KG7ARAY70NPXTD4NZS","85","0","ISLAND","4","LIQUID","3","0","2735",,,,,"0","2018-10-02 23:45:29","242109"
"AZZ8LHBJU74S4","cs_wg_rev_mem_pilot1","3MD9PLUKKIF7KG7ARAY70NPXTD4NZS","86","0","MOUTH","3","LETTUCE","4","1","2277",,,,,"0","2018-10-02 23:45:35","242110"
"AZZ8LHBJU74S4","cs_wg_rev_mem_pilot1","3MD9PLUKKIF7KG7ARAY70NPXTD4NZS","87","0","GRENADE","4","HOCKEY","3","0","5226",,,,,"0","2018-10-02 23:45:42","242111"
"AZZ8LHBJU74S4","cs_wg_rev_mem_pilot1","3MD9PLUKKIF7KG7ARAY70NPXTD4NZS","88","0","HOCKEY","3","POTATO","3","1","2625",,,,,"0","2018-10-02 23:45:47","242112"
"AZZ8LHBJU74S4","cs_wg_rev_mem_pilot1","3MD9PLUKKIF7KG7ARAY70NPXTD4NZS","89","0","COSTUME","4","BUCKET","4","1","4117",,,,,"0","2018-10-02 23:45:53","242113"
"AZZ8LHBJU74S4","cs_wg_rev_mem_pilot1","3MD9PLUKKIF7KG7ARAY70NPXTD4NZS","90","0","GRENADE","4","LIQUID","3","0","3930",,,,,"0","2018-10-02 23:46:00","242114"
"AZZ8LHBJU74S4","cs_wg_rev_mem_pilot1","3MD9PLUKKIF7KG7ARAY70NPXTD4NZS","91","0","LETTUCE","4","BUCKET","4","1","3925",,,,,"0","2018-10-02 23:46:06","242115"
"AZZ8LHBJU74S4","cs_wg_rev_mem_pilot1","3MD9PLUKKIF7KG7ARAY70NPXTD4NZS","92","0","POTATO","3","CHICKEN","5","1","2440",,,,,"0","2018-10-02 23:46:10","242116"
"AZZ8LHBJU74S4","cs_wg_rev_mem_pilot1","3MD9PLUKKIF7KG7ARAY70NPXTD4NZS","93","0","BUCKET","4","COSTUME","4","1","4742",,,,,"0","2018-10-02 23:46:17","242117"
"AZZ8LHBJU74S4","cs_wg_rev_mem_pilot1","3MD9PLUKKIF7KG7ARAY70NPXTD4NZS","94","0","CHICKEN","5","BAKER","3","0","5258",,,,,"0","2018-10-02 23:46:24","242118"
"AZZ8LHBJU74S4","cs_wg_rev_mem_pilot1","3MD9PLUKKIF7KG7ARAY70NPXTD4NZS","95","0","HOCKEY","3","CHICKEN","5","1","3649",,,,,"0","2018-10-02 23:46:30","242119"
"AZZ8LHBJU74S4","cs_wg_rev_mem_pilot1","3MD9PLUKKIF7KG7ARAY70NPXTD4NZS","96","0","ISLAND","4","POTATO","3","0","3977",,,,,"0","2018-10-02 23:46:36","242120"
"AZZ8LHBJU74S4","cs_wg_rev_mem_pilot1","3MD9PLUKKIF7KG7ARAY70NPXTD4NZS","97","0","BUCKET","4","LIQUID","3","0","3578",,,,,"0","2018-10-02 23:46:42","242121"
"AZZ8LHBJU74S4","cs_wg_rev_mem_pilot1","3MD9PLUKKIF7KG7ARAY70NPXTD4NZS","98","0","LIQUID","3","POTATO","3","1","2685",,,,,"0","2018-10-02 23:46:47","242122"
"AZZ8LHBJU74S4","cs_wg_rev_mem_pilot1","3MD9PLUKKIF7KG7ARAY70NPXTD4NZS","99","0","BICYCLE","4","BUCKET","4","1","4051",,,,,"0","2018-10-02 23:46:53","242123"
"AZZ8LHBJU74S4","cs_wg_rev_mem_pilot1","3MD9PLUKKIF7KG7ARAY70NPXTD4NZS","100","0","POTATO","3","BAKER","3","1","2803",,,,,"0","2018-10-02 23:46:58","242124"
"AZZ8LHBJU74S4","cs_wg_rev_mem_pilot1","3MD9PLUKKIF7KG7ARAY70NPXTD4NZS","101","0","MOUTH","3","GRENADE","4","1","3188",,,,,"0","2018-10-02 23:47:03","242125"
