"subject","version","assignmentId","trial","trial_type","word","value","alt","choice","rt","resp","resp2","stamp","id"
"A1MYLQQL8BBOYT","cs_wg_v10_pilot1","33FOTY3KEMMRYGPBU9G1SIB8VNC1CW","0","0","MACHINE","0","5","0","3340","machine","0","2018-01-25 22:49:16","168526"
"A1MYLQQL8BBOYT","cs_wg_v10_pilot1","33FOTY3KEMMRYGPBU9G1SIB8VNC1CW","1","0","HELICOPTER","10","5","0","2753","helicopter","10","2018-01-25 22:49:32","168527"
"A1MYLQQL8BBOYT","cs_wg_v10_pilot1","33FOTY3KEMMRYGPBU9G1SIB8VNC1CW","2","0","FOOTBALL","10","5","0","1465","football","10","2018-01-25 22:49:45","168528"
"A32QWM7BWCSPTS","cs_wg_v10_pilot1","3GD6L00D3SY472127YAFVEGKP1G1ME","0","0","STOMACH","0","5","0","4283","stomach","0","2018-01-25 22:49:52","168529"
"A1MYLQQL8BBOYT","cs_wg_v10_pilot1","33FOTY3KEMMRYGPBU9G1SIB8VNC1CW","3","0","COMMUNITY","10","5","0","2192","community","10","2018-01-25 22:49:55","168530"
"A1MYLQQL8BBOYT","cs_wg_v10_pilot1","33FOTY3KEMMRYGPBU9G1SIB8VNC1CW","4","0","STOMACH","1","5","0","1234","stomach","1","2018-01-25 22:50:03","168531"
"A1MYLQQL8BBOYT","cs_wg_v10_pilot1","33FOTY3KEMMRYGPBU9G1SIB8VNC1CW","5","0","BASKET","9","5","0","1647","basket","9","2018-01-25 22:50:14","168532"
"A32QWM7BWCSPTS","cs_wg_v10_pilot1","3GD6L00D3SY472127YAFVEGKP1G1ME","1","0","HELICOPTER","10","5","0","5200","helicopter","10","2018-01-25 22:50:20","168533"
"A1MYLQQL8BBOYT","cs_wg_v10_pilot1","33FOTY3KEMMRYGPBU9G1SIB8VNC1CW","6","0","UMBRELLA","9","5","0","1302","umbrella","9","2018-01-25 22:50:24","168534"
"A1MYLQQL8BBOYT","cs_wg_v10_pilot1","33FOTY3KEMMRYGPBU9G1SIB8VNC1CW","7","0","STOMACH","1","5","0","3707","stomach","1","2018-01-25 22:50:36","168535"
"A1MYLQQL8BBOYT","cs_wg_v10_pilot1","33FOTY3KEMMRYGPBU9G1SIB8VNC1CW","8","0","DOORWAY","0","5","0","1067","doorway","0","2018-01-25 22:50:44","168536"
"A32QWM7BWCSPTS","cs_wg_v10_pilot1","3GD6L00D3SY472127YAFVEGKP1G1ME","2","0","STRUCTURE","0","5","0","4436","STRUCTURE","0","2018-01-25 22:50:47","168537"
"A1MYLQQL8BBOYT","cs_wg_v10_pilot1","33FOTY3KEMMRYGPBU9G1SIB8VNC1CW","9","0","COMMUNITY","10","5","0","950","community","10","2018-01-25 22:50:54","168538"
"A1MYLQQL8BBOYT","cs_wg_v10_pilot1","33FOTY3KEMMRYGPBU9G1SIB8VNC1CW","10","0","KEYBOARD","9","5","0","1027","keyboard","9","2018-01-25 22:51:02","168539"
"A32QWM7BWCSPTS","cs_wg_v10_pilot1","3GD6L00D3SY472127YAFVEGKP1G1ME","3","0","LADDER","10","5","0","2594","LADDER","10","2018-01-25 22:51:02","168540"
"A1MYLQQL8BBOYT","cs_wg_v10_pilot1","33FOTY3KEMMRYGPBU9G1SIB8VNC1CW","11","0","HELICOPTER","10","5","0","1326","helicopter","10","2018-01-25 22:51:11","168541"
"A1MYLQQL8BBOYT","cs_wg_v10_pilot1","33FOTY3KEMMRYGPBU9G1SIB8VNC1CW","12","0","STRUCTURE","10","5","0","1336","structure","10","2018-01-25 22:51:20","168542"
"A1MYLQQL8BBOYT","cs_wg_v10_pilot1","33FOTY3KEMMRYGPBU9G1SIB8VNC1CW","13","0","COMMUNITY","10","5","0","1721","ccommunity","10","2018-01-25 22:51:31","168543"
"A32QWM7BWCSPTS","cs_wg_v10_pilot1","3GD6L00D3SY472127YAFVEGKP1G1ME","4","0","KEYBOARD","1","5","0","2513","KEYBOARD","1","2018-01-25 22:51:31","168544"
"A3SX229VS1X6B6","cs_wg_v10_pilot1","3EG49X351UDA8013RBO51RNZ4GFX6R","0","0","WEDDING","9","5","0","3559","WEDDING","9","2018-01-25 22:51:35","168545"
"A1MYLQQL8BBOYT","cs_wg_v10_pilot1","33FOTY3KEMMRYGPBU9G1SIB8VNC1CW","14","0","FOOTBALL","10","5","1","2173","football","10","2018-01-25 22:51:41","168546"
"A1MYLQQL8BBOYT","cs_wg_v10_pilot1","33FOTY3KEMMRYGPBU9G1SIB8VNC1CW","15","0","BASKET","9","5","0","1403","basket","9","2018-01-25 22:51:49","168547"
"A32QWM7BWCSPTS","cs_wg_v10_pilot1","3GD6L00D3SY472127YAFVEGKP1G1ME","5","0","STRUCTURE","0","5","1","5244","STRUCTURE","0","2018-01-25 22:51:54","168548"
"A1MYLQQL8BBOYT","cs_wg_v10_pilot1","33FOTY3KEMMRYGPBU9G1SIB8VNC1CW","16","0","DOORWAY","0","5","0","822","doorway","0","2018-01-25 22:51:57","168549"
"A1MYLQQL8BBOYT","cs_wg_v10_pilot1","33FOTY3KEMMRYGPBU9G1SIB8VNC1CW","17","0","WEDDING","1","5","0","1231","wedding","1","2018-01-25 22:52:05","168550"
"A32QWM7BWCSPTS","cs_wg_v10_pilot1","3GD6L00D3SY472127YAFVEGKP1G1ME","6","0","STOMACH","0","5","1","2558","STOMACH","0","2018-01-25 22:52:08","168551"
"A3SX229VS1X6B6","cs_wg_v10_pilot1","3EG49X351UDA8013RBO51RNZ4GFX6R","1","0","FOOTBALL","10","5","1","4621","FOOTBALL","10","2018-01-25 22:52:10","168552"
"A1MYLQQL8BBOYT","cs_wg_v10_pilot1","33FOTY3KEMMRYGPBU9G1SIB8VNC1CW","18","0","STRUCTURE","10","5","0","1292","structure","10","2018-01-25 22:52:13","168553"
"A3SX229VS1X6B6","cs_wg_v10_pilot1","3EG49X351UDA8013RBO51RNZ4GFX6R","2","0","BASKET","10","5","0","2143","BASKET","10","2018-01-25 22:52:22","168554"
"A1MYLQQL8BBOYT","cs_wg_v10_pilot1","33FOTY3KEMMRYGPBU9G1SIB8VNC1CW","19","0","BOOKSHELF","0","5","0","1056","bookshelf","0","2018-01-25 22:52:23","168555"
"A32QWM7BWCSPTS","cs_wg_v10_pilot1","3GD6L00D3SY472127YAFVEGKP1G1ME","7","0","WEDDING","9","5","0","2510","WEDDING","9","2018-01-25 22:52:28","168556"
"A1MYLQQL8BBOYT","cs_wg_v10_pilot1","33FOTY3KEMMRYGPBU9G1SIB8VNC1CW","20","0","TRAFFIC","1","5","0","721","traffic","1","2018-01-25 22:52:30","168557"
"A1MYLQQL8BBOYT","cs_wg_v10_pilot1","33FOTY3KEMMRYGPBU9G1SIB8VNC1CW","21","0","FOOTBALL","10","5","0","649","football","10","2018-01-25 22:52:39","168558"
"A32QWM7BWCSPTS","cs_wg_v10_pilot1","3GD6L00D3SY472127YAFVEGKP1G1ME","8","0","MACHINE","0","5","0","3133","MACHINE","0","2018-01-25 22:52:42","168559"
"A1MYLQQL8BBOYT","cs_wg_v10_pilot1","33FOTY3KEMMRYGPBU9G1SIB8VNC1CW","22","0","BOOKSHELF","0","5","1","1365","bookshelf","0","2018-01-25 22:52:48","168560"
"A1MYLQQL8BBOYT","cs_wg_v10_pilot1","33FOTY3KEMMRYGPBU9G1SIB8VNC1CW","23","0","WEDDING","1","5","1","1175","wedding","1","2018-01-25 22:52:56","168561"
"A32QWM7BWCSPTS","cs_wg_v10_pilot1","3GD6L00D3SY472127YAFVEGKP1G1ME","9","0","MACHINE","0","5","1","2708","MACHINE","0","2018-01-25 22:52:59","168562"
"A1MYLQQL8BBOYT","cs_wg_v10_pilot1","33FOTY3KEMMRYGPBU9G1SIB8VNC1CW","24","0","LADDER","0","5","0","870","ladder","0","2018-01-25 22:53:03","168563"
"A1MYLQQL8BBOYT","cs_wg_v10_pilot1","33FOTY3KEMMRYGPBU9G1SIB8VNC1CW","25","0","UMBRELLA","9","5","0","965","umbrella","9","2018-01-25 22:53:11","168564"
"A32QWM7BWCSPTS","cs_wg_v10_pilot1","3GD6L00D3SY472127YAFVEGKP1G1ME","10","0","LADDER","10","5","0","8471","LADDER","10","2018-01-25 22:53:18","168565"
"A1MYLQQL8BBOYT","cs_wg_v10_pilot1","33FOTY3KEMMRYGPBU9G1SIB8VNC1CW","26","0","DOORWAY","0","5","1","1516","doorway","0","2018-01-25 22:53:19","168566"
"A1MYLQQL8BBOYT","cs_wg_v10_pilot1","33FOTY3KEMMRYGPBU9G1SIB8VNC1CW","27","0","BASKET","9","5","0","1234","basket","9","2018-01-25 22:53:27","168567"
"A32QWM7BWCSPTS","cs_wg_v10_pilot1","3GD6L00D3SY472127YAFVEGKP1G1ME","11","0","LADDER","10","5","0","2093","LADDER","10","2018-01-25 22:53:30","168568"
"A1MYLQQL8BBOYT","cs_wg_v10_pilot1","33FOTY3KEMMRYGPBU9G1SIB8VNC1CW","28","0","HELICOPTER","10","5","0","903","helicopter","10","2018-01-25 22:53:35","168569"
"A3SX229VS1X6B6","cs_wg_v10_pilot1","3EG49X351UDA8013RBO51RNZ4GFX6R","3","0","UMBRELLA","1","5","0","2020","UMBRELLA","1","2018-01-25 22:53:38","168570"
"A1MYLQQL8BBOYT","cs_wg_v10_pilot1","33FOTY3KEMMRYGPBU9G1SIB8VNC1CW","29","0","HELICOPTER","10","5","0","753","helicopter","10","2018-01-25 22:53:43","168571"
"A1MYLQQL8BBOYT","cs_wg_v10_pilot1","33FOTY3KEMMRYGPBU9G1SIB8VNC1CW","30","0","COMMUNITY","10","5","0","775","community","10","2018-01-25 22:53:51","168572"
"A3SX229VS1X6B6","cs_wg_v10_pilot1","3EG49X351UDA8013RBO51RNZ4GFX6R","4","0","BASKET","10","5","0","3260","BASKET","10","2018-01-25 22:53:52","168573"
"A32QWM7BWCSPTS","cs_wg_v10_pilot1","3GD6L00D3SY472127YAFVEGKP1G1ME","12","0","KEYBOARD","1","5","1","4105","KEYBOARD","1","2018-01-25 22:53:58","168574"
"A1MYLQQL8BBOYT","cs_wg_v10_pilot1","33FOTY3KEMMRYGPBU9G1SIB8VNC1CW","31","0","HELICOPTER","10","5","0","672","helicopter","10","2018-01-25 22:53:58","168575"
"A1MYLQQL8BBOYT","cs_wg_v10_pilot1","33FOTY3KEMMRYGPBU9G1SIB8VNC1CW","32","0","WEDDING","1","5","1","1049","wedding","1","2018-01-25 22:54:06","168576"
"A3SX229VS1X6B6","cs_wg_v10_pilot1","3EG49X351UDA8013RBO51RNZ4GFX6R","5","0","BASKET","10","5","0","6777","BASKET","10","2018-01-25 22:54:06","168577"
"A32QWM7BWCSPTS","cs_wg_v10_pilot1","3GD6L00D3SY472127YAFVEGKP1G1ME","13","0","MACHINE","0","5","1","4824","MACHINE","0","2018-01-25 22:54:13","168578"
"A3SX229VS1X6B6","cs_wg_v10_pilot1","3EG49X351UDA8013RBO51RNZ4GFX6R","6","0","BASKET","10","5","0","1197","BASKET","10","2018-01-25 22:54:15","168579"
"A1MYLQQL8BBOYT","cs_wg_v10_pilot1","33FOTY3KEMMRYGPBU9G1SIB8VNC1CW","33","0","COMMUNITY","10","5","0","588","community","10","2018-01-25 22:54:16","168580"
"A1MYLQQL8BBOYT","cs_wg_v10_pilot1","33FOTY3KEMMRYGPBU9G1SIB8VNC1CW","34","0","MACHINE","0","5","0","754","machine","0","2018-01-25 22:54:24","168581"
"A3SX229VS1X6B6","cs_wg_v10_pilot1","3EG49X351UDA8013RBO51RNZ4GFX6R","7","0","STRUCTURE","1","5","0","1546","STRUCTURE","1","2018-01-25 22:54:26","168582"
"A1MYLQQL8BBOYT","cs_wg_v10_pilot1","33FOTY3KEMMRYGPBU9G1SIB8VNC1CW","35","0","DOORWAY","0","5","1","1475","doorway","0","2018-01-25 22:54:32","168583"
"A32QWM7BWCSPTS","cs_wg_v10_pilot1","3GD6L00D3SY472127YAFVEGKP1G1ME","14","0","TRAFFIC","1","5","0","5396","TRAFFIC","1","2018-01-25 22:54:38","168584"
"A1MYLQQL8BBOYT","cs_wg_v10_pilot1","33FOTY3KEMMRYGPBU9G1SIB8VNC1CW","36","0","WEDDING","1","5","1","1224","wedding","1","2018-01-25 22:54:40","168585"
"A3SX229VS1X6B6","cs_wg_v10_pilot1","3EG49X351UDA8013RBO51RNZ4GFX6R","8","0","HELICOPTER","0","5","1","2854","HELICOPTER","0","2018-01-25 22:54:41","168586"
"A1MYLQQL8BBOYT","cs_wg_v10_pilot1","33FOTY3KEMMRYGPBU9G1SIB8VNC1CW","37","0","TRAFFIC","1","5","1","1372","traffic","1","2018-01-25 22:54:48","168587"
"A1MYLQQL8BBOYT","cs_wg_v10_pilot1","33FOTY3KEMMRYGPBU9G1SIB8VNC1CW","38","0","STOMACH","1","5","0","1032","stomach","1","2018-01-25 22:54:55","168588"
"A32QWM7BWCSPTS","cs_wg_v10_pilot1","3GD6L00D3SY472127YAFVEGKP1G1ME","15","0","UMBRELLA","9","5","0","2983","UMBRELLA","9","2018-01-25 22:54:56","168589"
"A1MYLQQL8BBOYT","cs_wg_v10_pilot1","33FOTY3KEMMRYGPBU9G1SIB8VNC1CW","39","0","BOOKSHELF","0","5","1","2653","bookshelf","0","2018-01-25 22:55:05","168590"
"A3SX229VS1X6B6","cs_wg_v10_pilot1","3EG49X351UDA8013RBO51RNZ4GFX6R","9","0","HELICOPTER","0","5","1","1530","HELICOPTER","0","2018-01-25 22:55:12","168591"
"A1MYLQQL8BBOYT","cs_wg_v10_pilot1","33FOTY3KEMMRYGPBU9G1SIB8VNC1CW","40","0","DOORWAY","0","5","1","1029","doorway","0","2018-01-25 22:55:13","168592"
"A32QWM7BWCSPTS","cs_wg_v10_pilot1","3GD6L00D3SY472127YAFVEGKP1G1ME","16","0","WEDDING","9","5","0","7982","WEDDING","9","2018-01-25 22:55:17","168593"
"A1MYLQQL8BBOYT","cs_wg_v10_pilot1","33FOTY3KEMMRYGPBU9G1SIB8VNC1CW","41","0","FOOTBALL","10","5","0","763","football","10","2018-01-25 22:55:22","168594"
"A3SX229VS1X6B6","cs_wg_v10_pilot1","3EG49X351UDA8013RBO51RNZ4GFX6R","10","0","WEDDING","9","5","0","2644","WEDDING","9","2018-01-25 22:55:23","168595"
"A32QWM7BWCSPTS","cs_wg_v10_pilot1","3GD6L00D3SY472127YAFVEGKP1G1ME","17","0","FOOTBALL","9","5","0","1604","FOOTBALL","9","2018-01-25 22:55:29","168596"
"A1MYLQQL8BBOYT","cs_wg_v10_pilot1","33FOTY3KEMMRYGPBU9G1SIB8VNC1CW","42","0","TRAFFIC","1","5","1","1274","traffic","1","2018-01-25 22:55:30","168597"
"A3SX229VS1X6B6","cs_wg_v10_pilot1","3EG49X351UDA8013RBO51RNZ4GFX6R","11","0","WEDDING","9","5","0","1330","WEDDING","9","2018-01-25 22:55:31","168598"
"A1MYLQQL8BBOYT","cs_wg_v10_pilot1","33FOTY3KEMMRYGPBU9G1SIB8VNC1CW","43","0","WEDDING","1","5","1","1164","wedding","1","2018-01-25 22:55:38","168599"
"A3SX229VS1X6B6","cs_wg_v10_pilot1","3EG49X351UDA8013RBO51RNZ4GFX6R","12","0","DOORWAY","9","5","0","1296","DOORWAY","9","2018-01-25 22:55:39","168600"
"A1MYLQQL8BBOYT","cs_wg_v10_pilot1","33FOTY3KEMMRYGPBU9G1SIB8VNC1CW","44","0","STRUCTURE","10","5","0","1284","structure","10","2018-01-25 22:55:46","168601"
"A32QWM7BWCSPTS","cs_wg_v10_pilot1","3GD6L00D3SY472127YAFVEGKP1G1ME","18","0","DOORWAY","10","5","0","4352","DOORWAY","10","2018-01-25 22:55:47","168602"
"A3SX229VS1X6B6","cs_wg_v10_pilot1","3EG49X351UDA8013RBO51RNZ4GFX6R","13","0","UMBRELLA","1","5","1","1857","UMBRELLA","1","2018-01-25 22:55:50","168603"
"A1MYLQQL8BBOYT","cs_wg_v10_pilot1","33FOTY3KEMMRYGPBU9G1SIB8VNC1CW","45","0","HELICOPTER","10","5","0","1119","helicopter","10","2018-01-25 22:55:54","168604"
"A1MYLQQL8BBOYT","cs_wg_v10_pilot1","33FOTY3KEMMRYGPBU9G1SIB8VNC1CW","46","0","BASKET","9","5","0","1777","basket","9","2018-01-25 22:56:03","168605"
"A3SX229VS1X6B6","cs_wg_v10_pilot1","3EG49X351UDA8013RBO51RNZ4GFX6R","14","0","BASKET","10","5","0","4916","BASKET","10","2018-01-25 22:56:03","168606"
"A1MYLQQL8BBOYT","cs_wg_v10_pilot1","33FOTY3KEMMRYGPBU9G1SIB8VNC1CW","47","0","STRUCTURE","10","5","0","882","structure","10","2018-01-25 22:56:10","168607"
"A32QWM7BWCSPTS","cs_wg_v10_pilot1","3GD6L00D3SY472127YAFVEGKP1G1ME","19","0","TRAFFIC","1","5","1","12066","TRAFFIC","1","2018-01-25 22:56:14","168608"
"A3SX229VS1X6B6","cs_wg_v10_pilot1","3EG49X351UDA8013RBO51RNZ4GFX6R","15","0","STOMACH","9","5","1","5630","STOMACH","9","2018-01-25 22:56:17","168609"
"A1MYLQQL8BBOYT","cs_wg_v10_pilot1","33FOTY3KEMMRYGPBU9G1SIB8VNC1CW","48","0","COMMUNITY","10","5","0","1256","community","10","2018-01-25 22:56:19","168610"
"A1MYLQQL8BBOYT","cs_wg_v10_pilot1","33FOTY3KEMMRYGPBU9G1SIB8VNC1CW","49","0","KEYBOARD","9","5","0","918","keyboard","9","2018-01-25 22:56:27","168611"
"A3SX229VS1X6B6","cs_wg_v10_pilot1","3EG49X351UDA8013RBO51RNZ4GFX6R","16","0","DOORWAY","9","5","0","3755","DOORWAY","9","2018-01-25 22:56:28","168612"
"A32QWM7BWCSPTS","cs_wg_v10_pilot1","3GD6L00D3SY472127YAFVEGKP1G1ME","20","0","HELICOPTER","10","5","0","3803","HELICOPTER","10","2018-01-25 22:56:29","168613"
"A3SX229VS1X6B6","cs_wg_v10_pilot1","3EG49X351UDA8013RBO51RNZ4GFX6R","17","0","HELICOPTER","0","5","1","1916","HELICOPTER","0","2018-01-25 22:56:38","168614"
"A1MYLQQL8BBOYT","cs_wg_v10_pilot1","33FOTY3KEMMRYGPBU9G1SIB8VNC1CW","50","0","COMMUNITY","10","5","0","1165","community","10","2018-01-25 22:56:41","168615"
"A32QWM7BWCSPTS","cs_wg_v10_pilot1","3GD6L00D3SY472127YAFVEGKP1G1ME","21","0","MACHINE","0","5","1","2473","MACHINE","0","2018-01-25 22:56:43","168616"
"A3SX229VS1X6B6","cs_wg_v10_pilot1","3EG49X351UDA8013RBO51RNZ4GFX6R","18","0","LADDER","0","5","1","3400","LADDER","0","2018-01-25 22:56:49","168617"
"A1MYLQQL8BBOYT","cs_wg_v10_pilot1","33FOTY3KEMMRYGPBU9G1SIB8VNC1CW","51","0","MACHINE","0","5","1","1416","machine","0","2018-01-25 22:56:50","168618"
"A32QWM7BWCSPTS","cs_wg_v10_pilot1","3GD6L00D3SY472127YAFVEGKP1G1ME","22","0","DOORWAY","10","5","0","5544","DOORWAY","10","2018-01-25 22:56:58","168619"
"A1MYLQQL8BBOYT","cs_wg_v10_pilot1","33FOTY3KEMMRYGPBU9G1SIB8VNC1CW","52","0","KEYBOARD","9","5","0","896","keyboard","9","2018-01-25 22:56:58","168620"
"A3SX229VS1X6B6","cs_wg_v10_pilot1","3EG49X351UDA8013RBO51RNZ4GFX6R","19","0","TRAFFIC","1","5","1","1439","TRAFFIC","1","2018-01-25 22:57:02","168621"
"A1MYLQQL8BBOYT","cs_wg_v10_pilot1","33FOTY3KEMMRYGPBU9G1SIB8VNC1CW","53","0","LADDER","0","5","1","1555","ladder","0","2018-01-25 22:57:07","168622"
"A32QWM7BWCSPTS","cs_wg_v10_pilot1","3GD6L00D3SY472127YAFVEGKP1G1ME","23","0","COMMUNITY","10","5","0","1724","COMMUNITY","10","2018-01-25 22:57:12","168623"
"A1MYLQQL8BBOYT","cs_wg_v10_pilot1","33FOTY3KEMMRYGPBU9G1SIB8VNC1CW","54","0","FOOTBALL","10","5","0","598","football","10","2018-01-25 22:57:15","168624"
"A3SX229VS1X6B6","cs_wg_v10_pilot1","3EG49X351UDA8013RBO51RNZ4GFX6R","20","0","FOOTBALL","10","5","1","2536","FOOTBALL","10","2018-01-25 22:57:18","168625"
"A1MYLQQL8BBOYT","cs_wg_v10_pilot1","33FOTY3KEMMRYGPBU9G1SIB8VNC1CW","55","0","BASKET","9","5","1","1028","basket","9","2018-01-25 22:57:22","168626"
"A32QWM7BWCSPTS","cs_wg_v10_pilot1","3GD6L00D3SY472127YAFVEGKP1G1ME","24","0","UMBRELLA","9","5","0","3393","UMBRELLA","9","2018-01-25 22:57:26","168627"
"A3SX229VS1X6B6","cs_wg_v10_pilot1","3EG49X351UDA8013RBO51RNZ4GFX6R","21","0","STOMACH","9","5","1","1400","STOMACH","9","2018-01-25 22:57:26","168628"
"A1MYLQQL8BBOYT","cs_wg_v10_pilot1","33FOTY3KEMMRYGPBU9G1SIB8VNC1CW","56","0","STRUCTURE","10","5","0","695","structure","10","2018-01-25 22:57:31","168629"
"A3SX229VS1X6B6","cs_wg_v10_pilot1","3EG49X351UDA8013RBO51RNZ4GFX6R","22","0","STOMACH","9","5","0","1986","STOMACH","9","2018-01-25 22:57:34","168630"
"A32QWM7BWCSPTS","cs_wg_v10_pilot1","3GD6L00D3SY472127YAFVEGKP1G1ME","25","0","COMMUNITY","10","5","0","2719","COMMUNITY","10","2018-01-25 22:57:39","168631"
"A1MYLQQL8BBOYT","cs_wg_v10_pilot1","33FOTY3KEMMRYGPBU9G1SIB8VNC1CW","57","0","MACHINE","0","5","1","1450","machine","0","2018-01-25 22:57:39","168632"
"A3SX229VS1X6B6","cs_wg_v10_pilot1","3EG49X351UDA8013RBO51RNZ4GFX6R","23","0","MACHINE","10","5","1","1323","MACHINE","10","2018-01-25 22:57:43","168633"
"A1MYLQQL8BBOYT","cs_wg_v10_pilot1","33FOTY3KEMMRYGPBU9G1SIB8VNC1CW","58","0","STOMACH","1","5","1","1384","stomach","1","2018-01-25 22:57:48","168634"
"A32QWM7BWCSPTS","cs_wg_v10_pilot1","3GD6L00D3SY472127YAFVEGKP1G1ME","26","0","FOOTBALL","9","5","0","1447","FOOTBALL","9","2018-01-25 22:57:49","168635"
"A3SX229VS1X6B6","cs_wg_v10_pilot1","3EG49X351UDA8013RBO51RNZ4GFX6R","24","0","TRAFFIC","1","5","1","3101","TRAFFIC","1","2018-01-25 22:57:53","168636"
"A1MYLQQL8BBOYT","cs_wg_v10_pilot1","33FOTY3KEMMRYGPBU9G1SIB8VNC1CW","59","0","TRAFFIC","1","5","1","1737","traffic","1","2018-01-25 22:57:56","168637"
"A3SX229VS1X6B6","cs_wg_v10_pilot1","3EG49X351UDA8013RBO51RNZ4GFX6R","25","0","MACHINE","10","5","0","1521","MACHINE","10","2018-01-25 22:58:02","168638"
"A32QWM7BWCSPTS","cs_wg_v10_pilot1","3GD6L00D3SY472127YAFVEGKP1G1ME","27","0","DOORWAY","10","5","0","2772","DOORWAY","10","2018-01-25 22:58:02","168639"
"A1MYLQQL8BBOYT","cs_wg_v10_pilot1","33FOTY3KEMMRYGPBU9G1SIB8VNC1CW","60","0","STOMACH","1","5","1","944","stomach","1","2018-01-25 22:58:03","168640"
"A1MYLQQL8BBOYT","cs_wg_v10_pilot1","33FOTY3KEMMRYGPBU9G1SIB8VNC1CW","61","0","BASKET","9","5","0","1123","basket","9","2018-01-25 22:58:11","168641"
"A3SX229VS1X6B6","cs_wg_v10_pilot1","3EG49X351UDA8013RBO51RNZ4GFX6R","26","0","KEYBOARD","10","5","1","1173","KEYBOARD","10","2018-01-25 22:58:12","168642"
"A32QWM7BWCSPTS","cs_wg_v10_pilot1","3GD6L00D3SY472127YAFVEGKP1G1ME","28","0","FOOTBALL","9","5","0","1855","FOOTBALL","9","2018-01-25 22:58:13","168643"
"A1MYLQQL8BBOYT","cs_wg_v10_pilot1","33FOTY3KEMMRYGPBU9G1SIB8VNC1CW","62","0","STOMACH","1","5","1","1123","stomach","1","2018-01-25 22:58:18","168644"
"A3SX229VS1X6B6","cs_wg_v10_pilot1","3EG49X351UDA8013RBO51RNZ4GFX6R","27","0","BOOKSHELF","0","5","1","1931","BOOKSHELF","0","2018-01-25 22:58:22","168645"
"A1MYLQQL8BBOYT","cs_wg_v10_pilot1","33FOTY3KEMMRYGPBU9G1SIB8VNC1CW","63","0","FOOTBALL","10","5","0","604","football","10","2018-01-25 22:58:26","168646"
"A3SX229VS1X6B6","cs_wg_v10_pilot1","3EG49X351UDA8013RBO51RNZ4GFX6R","28","0","DOORWAY","9","5","0","1961","DOORWAY","9","2018-01-25 22:58:30","168647"
"A32QWM7BWCSPTS","cs_wg_v10_pilot1","3GD6L00D3SY472127YAFVEGKP1G1ME","29","0","KEYBOARD","1","5","1","3684","KEYBOARD","1","2018-01-25 22:58:34","168648"
"A1MYLQQL8BBOYT","cs_wg_v10_pilot1","33FOTY3KEMMRYGPBU9G1SIB8VNC1CW","64","0","BOOKSHELF","0","5","1","1052","bookshelf","0","2018-01-25 22:58:35","168649"
"A3SX229VS1X6B6","cs_wg_v10_pilot1","3EG49X351UDA8013RBO51RNZ4GFX6R","29","0","COMMUNITY","0","5","0","2007","COMMUNITY","0","2018-01-25 22:58:40","168650"
"A1MYLQQL8BBOYT","cs_wg_v10_pilot1","33FOTY3KEMMRYGPBU9G1SIB8VNC1CW","65","0","KEYBOARD","9","5","1","1307","keyboard","9","2018-01-25 22:58:43","168651"
"A32QWM7BWCSPTS","cs_wg_v10_pilot1","3GD6L00D3SY472127YAFVEGKP1G1ME","30","0","STRUCTURE","0","5","1","2462","STRUCTURE","0","2018-01-25 22:58:46","168652"
"A3SX229VS1X6B6","cs_wg_v10_pilot1","3EG49X351UDA8013RBO51RNZ4GFX6R","30","0","COMMUNITY","0","5","1","1514","COMMUNITY","0","2018-01-25 22:58:49","168653"
"A1MYLQQL8BBOYT","cs_wg_v10_pilot1","33FOTY3KEMMRYGPBU9G1SIB8VNC1CW","66","0","BOOKSHELF","0","5","1","1154","bookshelf","0","2018-01-25 22:58:51","168654"
"A32QWM7BWCSPTS","cs_wg_v10_pilot1","3GD6L00D3SY472127YAFVEGKP1G1ME","31","0","COMMUNITY","10","5","0","2431","COMMUNITY","10","2018-01-25 22:58:58","168655"
"A1MYLQQL8BBOYT","cs_wg_v10_pilot1","33FOTY3KEMMRYGPBU9G1SIB8VNC1CW","67","0","TRAFFIC","1","5","1","1636","traffic","1","2018-01-25 22:59:00","168656"
"A3SX229VS1X6B6","cs_wg_v10_pilot1","3EG49X351UDA8013RBO51RNZ4GFX6R","31","0","FOOTBALL","10","5","0","1860","FOOTBALL","10","2018-01-25 22:59:00","168657"
"A1MYLQQL8BBOYT","cs_wg_v10_pilot1","33FOTY3KEMMRYGPBU9G1SIB8VNC1CW","68","0","LADDER","0","5","0","1304","ladder","0","2018-01-25 22:59:08","168658"
"A3SX229VS1X6B6","cs_wg_v10_pilot1","3EG49X351UDA8013RBO51RNZ4GFX6R","32","0","STRUCTURE","1","5","1","1342","STRUCTURE","1","2018-01-25 22:59:12","168659"
"A32QWM7BWCSPTS","cs_wg_v10_pilot1","3GD6L00D3SY472127YAFVEGKP1G1ME","32","0","LADDER","10","5","0","2742","LADDER","10","2018-01-25 22:59:14","168660"
"A1MYLQQL8BBOYT","cs_wg_v10_pilot1","33FOTY3KEMMRYGPBU9G1SIB8VNC1CW","69","0","BASKET","9","5","0","753","basket","9","2018-01-25 22:59:15","168661"
"A3SX229VS1X6B6","cs_wg_v10_pilot1","3EG49X351UDA8013RBO51RNZ4GFX6R","33","0","MACHINE","10","5","0","2611","MACHINE","10","2018-01-25 22:59:22","168662"
"A1MYLQQL8BBOYT","cs_wg_v10_pilot1","33FOTY3KEMMRYGPBU9G1SIB8VNC1CW","70","0","HELICOPTER","10","5","0","1103","helicopter","10","2018-01-25 22:59:23","168663"
"A32QWM7BWCSPTS","cs_wg_v10_pilot1","3GD6L00D3SY472127YAFVEGKP1G1ME","33","0","BASKET","1","5","0","1617","BASKET","1","2018-01-25 22:59:24","168664"
"A1MYLQQL8BBOYT","cs_wg_v10_pilot1","33FOTY3KEMMRYGPBU9G1SIB8VNC1CW","71","0","WEDDING","1","5","1","1113","wedding","1","2018-01-25 22:59:30","168665"
"A3SX229VS1X6B6","cs_wg_v10_pilot1","3EG49X351UDA8013RBO51RNZ4GFX6R","34","0","BOOKSHELF","0","5","1","2879","BOOKSHELF","0","2018-01-25 22:59:32","168666"
"A32QWM7BWCSPTS","cs_wg_v10_pilot1","3GD6L00D3SY472127YAFVEGKP1G1ME","34","0","BOOKSHELF","0","5","0","1546","BOOKSHELF","0","2018-01-25 22:59:38","168667"
"A1MYLQQL8BBOYT","cs_wg_v10_pilot1","33FOTY3KEMMRYGPBU9G1SIB8VNC1CW","72","0","COMMUNITY","10","5","0","541","community","10","2018-01-25 22:59:38","168668"
"A3SX229VS1X6B6","cs_wg_v10_pilot1","3EG49X351UDA8013RBO51RNZ4GFX6R","35","0","BOOKSHELF","0","5","1","1827","BOOKSHELF","0","2018-01-25 22:59:42","168669"
"A1MYLQQL8BBOYT","cs_wg_v10_pilot1","33FOTY3KEMMRYGPBU9G1SIB8VNC1CW","73","0","STOMACH","1","5","1","1093","stomach","1","2018-01-25 22:59:46","168670"
"A32QWM7BWCSPTS","cs_wg_v10_pilot1","3GD6L00D3SY472127YAFVEGKP1G1ME","35","0","UMBRELLA","9","5","0","1838","UMBRELLA","9","2018-01-25 22:59:52","168671"
"A3SX229VS1X6B6","cs_wg_v10_pilot1","3EG49X351UDA8013RBO51RNZ4GFX6R","36","0","TRAFFIC","1","5","1","2417","TRAFFIC","1","2018-01-25 22:59:52","168672"
"A1MYLQQL8BBOYT","cs_wg_v10_pilot1","33FOTY3KEMMRYGPBU9G1SIB8VNC1CW","74","0","TRAFFIC","1","5","1","1042","traffic","1","2018-01-25 22:59:53","168673"
"A1MYLQQL8BBOYT","cs_wg_v10_pilot1","33FOTY3KEMMRYGPBU9G1SIB8VNC1CW","75","0","LADDER","0","5","1","973","ladder","1","2018-01-25 23:00:01","168674"
"A3SX229VS1X6B6","cs_wg_v10_pilot1","3EG49X351UDA8013RBO51RNZ4GFX6R","37","0","UMBRELLA","1","5","1","1363","UMBRELLA","1","2018-01-25 23:00:03","168675"
"A32QWM7BWCSPTS","cs_wg_v10_pilot1","3GD6L00D3SY472127YAFVEGKP1G1ME","36","0","DOORWAY","10","5","0","3060","DOORWAY","10","2018-01-25 23:00:04","168676"
"A1MYLQQL8BBOYT","cs_wg_v10_pilot1","33FOTY3KEMMRYGPBU9G1SIB8VNC1CW","76","0","DOORWAY","0","5","1","1178","doorway","0","2018-01-25 23:00:09","168677"
"A3SX229VS1X6B6","cs_wg_v10_pilot1","3EG49X351UDA8013RBO51RNZ4GFX6R","38","0","COMMUNITY","0","5","1","3287","COMMUNITY","0","2018-01-25 23:00:14","168678"
"A32QWM7BWCSPTS","cs_wg_v10_pilot1","3GD6L00D3SY472127YAFVEGKP1G1ME","37","0","WEDDING","9","5","0","1917","WEDDING","9","2018-01-25 23:00:14","168679"
"A1MYLQQL8BBOYT","cs_wg_v10_pilot1","33FOTY3KEMMRYGPBU9G1SIB8VNC1CW","77","0","WEDDING","1","5","1","1039","wedding","1","2018-01-25 23:00:19","168680"
"A1MYLQQL8BBOYT","cs_wg_v10_pilot1","33FOTY3KEMMRYGPBU9G1SIB8VNC1CW","78","0","KEYBOARD","9","5","1","1055","keyboard","9","2018-01-25 23:00:28","168681"
"A32QWM7BWCSPTS","cs_wg_v10_pilot1","3GD6L00D3SY472127YAFVEGKP1G1ME","38","0","BOOKSHELF","0","5","1","3581","BOOKSHELF","0","2018-01-25 23:00:29","168682"
"A1MYLQQL8BBOYT","cs_wg_v10_pilot1","33FOTY3KEMMRYGPBU9G1SIB8VNC1CW","79","0","STRUCTURE","10","5","0","955","structure","10","2018-01-25 23:00:36","168683"
"A1MYLQQL8BBOYT","cs_wg_v10_pilot1","33FOTY3KEMMRYGPBU9G1SIB8VNC1CW","80","0","LADDER","0","5","1","1218","ladder","0","2018-01-25 23:00:44","168684"
"A32QWM7BWCSPTS","cs_wg_v10_pilot1","3GD6L00D3SY472127YAFVEGKP1G1ME","39","0","BASKET","1","5","1","2567","BASKET","1","2018-01-25 23:00:47","168685"
"A1MYLQQL8BBOYT","cs_wg_v10_pilot1","33FOTY3KEMMRYGPBU9G1SIB8VNC1CW","81","0","LADDER","0","5","1","931","ladder","0","2018-01-25 23:00:51","168686"
"A1MYLQQL8BBOYT","cs_wg_v10_pilot1","33FOTY3KEMMRYGPBU9G1SIB8VNC1CW","82","0","BOOKSHELF","0","5","1","998","bookshelf","0","2018-01-25 23:00:59","168687"
"A32QWM7BWCSPTS","cs_wg_v10_pilot1","3GD6L00D3SY472127YAFVEGKP1G1ME","40","0","STOMACH","0","5","1","3978","STOMACH","0","2018-01-25 23:01:00","168688"
"A1MYLQQL8BBOYT","cs_wg_v10_pilot1","33FOTY3KEMMRYGPBU9G1SIB8VNC1CW","83","0","TRAFFIC","1","5","1","2125","traffic","1","2018-01-25 23:01:08","168689"
"A32QWM7BWCSPTS","cs_wg_v10_pilot1","3GD6L00D3SY472127YAFVEGKP1G1ME","41","0","FOOTBALL","9","5","0","1388","FOOTBALL","9","2018-01-25 23:01:10","168690"
"A3SX229VS1X6B6","cs_wg_v10_pilot1","3EG49X351UDA8013RBO51RNZ4GFX6R","39","0","MACHINE","10","5","0","2324","MACHINE","10","2018-01-25 23:01:16","168691"
"A1MYLQQL8BBOYT","cs_wg_v10_pilot1","33FOTY3KEMMRYGPBU9G1SIB8VNC1CW","84","0","UMBRELLA","9","5","0","747","umbrella","9","2018-01-25 23:01:17","168692"
"A32QWM7BWCSPTS","cs_wg_v10_pilot1","3GD6L00D3SY472127YAFVEGKP1G1ME","42","0","BASKET","1","5","1","2191","BASKET","1","2018-01-25 23:01:22","168693"
"A1MYLQQL8BBOYT","cs_wg_v10_pilot1","33FOTY3KEMMRYGPBU9G1SIB8VNC1CW","85","0","BASKET","9","5","0","570","basket","9","2018-01-25 23:01:24","168694"
"A3SX229VS1X6B6","cs_wg_v10_pilot1","3EG49X351UDA8013RBO51RNZ4GFX6R","40","0","UMBRELLA","1","5","1","1948","UMBRELLA","1","2018-01-25 23:01:25","168695"
"A1MYLQQL8BBOYT","cs_wg_v10_pilot1","33FOTY3KEMMRYGPBU9G1SIB8VNC1CW","86","0","STRUCTURE","10","5","0","919","structure","10","2018-01-25 23:01:32","168696"
"A32QWM7BWCSPTS","cs_wg_v10_pilot1","3GD6L00D3SY472127YAFVEGKP1G1ME","43","0","TRAFFIC","1","5","1","2511","TRAFFIC","1","2018-01-25 23:01:33","168697"
"A3SX229VS1X6B6","cs_wg_v10_pilot1","3EG49X351UDA8013RBO51RNZ4GFX6R","41","0","LADDER","0","5","0","2612","LADDER","0","2018-01-25 23:01:34","168698"
"A1MYLQQL8BBOYT","cs_wg_v10_pilot1","33FOTY3KEMMRYGPBU9G1SIB8VNC1CW","87","0","STRUCTURE","10","5","0","535","structure","10","2018-01-25 23:01:40","168699"
"A3SX229VS1X6B6","cs_wg_v10_pilot1","3EG49X351UDA8013RBO51RNZ4GFX6R","42","0","BASKET","10","5","0","1898","BASKET","10","2018-01-25 23:01:43","168700"
"A1MYLQQL8BBOYT","cs_wg_v10_pilot1","33FOTY3KEMMRYGPBU9G1SIB8VNC1CW","88","0","KEYBOARD","9","5","0","1027","keyboard","9","2018-01-25 23:01:48","168701"
"A32QWM7BWCSPTS","cs_wg_v10_pilot1","3GD6L00D3SY472127YAFVEGKP1G1ME","44","0","HELICOPTER","10","5","0","1412","HELICOPTER","10","2018-01-25 23:01:49","168702"
"A3SX229VS1X6B6","cs_wg_v10_pilot1","3EG49X351UDA8013RBO51RNZ4GFX6R","43","0","KEYBOARD","10","5","1","1864","KEYBOARD","10","2018-01-25 23:01:52","168703"
"A1MYLQQL8BBOYT","cs_wg_v10_pilot1","33FOTY3KEMMRYGPBU9G1SIB8VNC1CW","89","0","LADDER","0","5","1","1077","ladder","0","2018-01-25 23:01:56","168704"
"A32QWM7BWCSPTS","cs_wg_v10_pilot1","3GD6L00D3SY472127YAFVEGKP1G1ME","45","0","WEDDING","9","5","0","1535","WEDDING","9","2018-01-25 23:02:00","168705"
"A3SX229VS1X6B6","cs_wg_v10_pilot1","3EG49X351UDA8013RBO51RNZ4GFX6R","44","0","LADDER","0","5","1","1814","LADDER","0","2018-01-25 23:02:00","168706"
"A1MYLQQL8BBOYT","cs_wg_v10_pilot1","33FOTY3KEMMRYGPBU9G1SIB8VNC1CW","90","0","MACHINE","0","5","1","1101","machine","0","2018-01-25 23:02:03","168707"
"A3SX229VS1X6B6","cs_wg_v10_pilot1","3EG49X351UDA8013RBO51RNZ4GFX6R","45","0","LADDER","0","5","1","1124","LADDER","0","2018-01-25 23:02:07","168708"
"A32QWM7BWCSPTS","cs_wg_v10_pilot1","3GD6L00D3SY472127YAFVEGKP1G1ME","46","0","TRAFFIC","1","5","1","2215","TRAFFIC","1","2018-01-25 23:02:10","168709"
"A1MYLQQL8BBOYT","cs_wg_v10_pilot1","33FOTY3KEMMRYGPBU9G1SIB8VNC1CW","91","0","DOORWAY","0","5","1","1335","doorway","0","2018-01-25 23:02:11","168710"
"A3SX229VS1X6B6","cs_wg_v10_pilot1","3EG49X351UDA8013RBO51RNZ4GFX6R","46","0","KEYBOARD","10","5","0","1485","KEYBOARD","10","2018-01-25 23:02:16","168711"
"A1MYLQQL8BBOYT","cs_wg_v10_pilot1","33FOTY3KEMMRYGPBU9G1SIB8VNC1CW","92","0","STOMACH","1","5","1","1015","stomach","1","2018-01-25 23:02:19","168712"
"A32QWM7BWCSPTS","cs_wg_v10_pilot1","3GD6L00D3SY472127YAFVEGKP1G1ME","47","0","FOOTBALL","9","5","0","1314","FOOTBALL","9","2018-01-25 23:02:20","168713"
"A3SX229VS1X6B6","cs_wg_v10_pilot1","3EG49X351UDA8013RBO51RNZ4GFX6R","47","0","FOOTBALL","10","5","0","1695","FOOTBALL","10","2018-01-25 23:02:25","168714"
"A1MYLQQL8BBOYT","cs_wg_v10_pilot1","33FOTY3KEMMRYGPBU9G1SIB8VNC1CW","93","0","MACHINE","0","5","1","997","machine","0","2018-01-25 23:02:26","168715"
"A32QWM7BWCSPTS","cs_wg_v10_pilot1","3GD6L00D3SY472127YAFVEGKP1G1ME","48","0","TRAFFIC","1","5","1","2107","TRAFFIC","1","2018-01-25 23:02:31","168716"
"A3SX229VS1X6B6","cs_wg_v10_pilot1","3EG49X351UDA8013RBO51RNZ4GFX6R","48","0","STRUCTURE","1","5","1","1704","STRUCTURE","1","2018-01-25 23:02:33","168717"
"A1MYLQQL8BBOYT","cs_wg_v10_pilot1","33FOTY3KEMMRYGPBU9G1SIB8VNC1CW","94","0","KEYBOARD","9","5","0","939","keyboard","9","2018-01-25 23:02:35","168718"
"A32QWM7BWCSPTS","cs_wg_v10_pilot1","3GD6L00D3SY472127YAFVEGKP1G1ME","49","0","MACHINE","0","5","1","1876","MACHINE","0","2018-01-25 23:02:42","168719"
"A3SX229VS1X6B6","cs_wg_v10_pilot1","3EG49X351UDA8013RBO51RNZ4GFX6R","49","0","UMBRELLA","1","5","1","1361","UMBRELLA","1","2018-01-25 23:02:43","168720"
"A1MYLQQL8BBOYT","cs_wg_v10_pilot1","33FOTY3KEMMRYGPBU9G1SIB8VNC1CW","95","0","WEDDING","1","5","1","1112","wedding","1","2018-01-25 23:02:44","168721"
"A3SX229VS1X6B6","cs_wg_v10_pilot1","3EG49X351UDA8013RBO51RNZ4GFX6R","50","0","KEYBOARD","10","5","0","1826","KEYBOARD","10","2018-01-25 23:02:51","168722"
"A32QWM7BWCSPTS","cs_wg_v10_pilot1","3GD6L00D3SY472127YAFVEGKP1G1ME","50","0","BOOKSHELF","0","5","1","3363","BOOKSHELF","0","2018-01-25 23:02:55","168723"
"A1MYLQQL8BBOYT","cs_wg_v10_pilot1","33FOTY3KEMMRYGPBU9G1SIB8VNC1CW","96","0","FOOTBALL","10","5","0","2616","football","10","2018-01-25 23:02:56","168724"
"A3SX229VS1X6B6","cs_wg_v10_pilot1","3EG49X351UDA8013RBO51RNZ4GFX6R","51","0","STOMACH","9","5","0","3496","STOMACH","9","2018-01-25 23:03:01","168725"
"A1MYLQQL8BBOYT","cs_wg_v10_pilot1","33FOTY3KEMMRYGPBU9G1SIB8VNC1CW","97","0","UMBRELLA","9","5","0","2596","umbrella","9","2018-01-25 23:03:05","168726"
"A32QWM7BWCSPTS","cs_wg_v10_pilot1","3GD6L00D3SY472127YAFVEGKP1G1ME","51","0","HELICOPTER","10","5","0","1299","HELICOPTER","10","2018-01-25 23:03:07","168727"
"A3SX229VS1X6B6","cs_wg_v10_pilot1","3EG49X351UDA8013RBO51RNZ4GFX6R","52","0","MACHINE","10","5","1","2564","MACHINE","10","2018-01-25 23:03:11","168728"
"A1MYLQQL8BBOYT","cs_wg_v10_pilot1","33FOTY3KEMMRYGPBU9G1SIB8VNC1CW","98","0","BOOKSHELF","0","5","1","3764","bookshelf","0","2018-01-25 23:03:16","168729"
"A3SX229VS1X6B6","cs_wg_v10_pilot1","3EG49X351UDA8013RBO51RNZ4GFX6R","53","0","HELICOPTER","0","5","1","1530","HELICOPTER","0","2018-01-25 23:03:19","168730"
"A32QWM7BWCSPTS","cs_wg_v10_pilot1","3GD6L00D3SY472127YAFVEGKP1G1ME","52","0","BOOKSHELF","0","5","1","2138","BOOKSHELF","0","2018-01-25 23:03:19","168731"
"A1MYLQQL8BBOYT","cs_wg_v10_pilot1","33FOTY3KEMMRYGPBU9G1SIB8VNC1CW","99","0","DOORWAY","0","5","1","1633","doorway","0","2018-01-25 23:03:25","168732"
"A3SX229VS1X6B6","cs_wg_v10_pilot1","3EG49X351UDA8013RBO51RNZ4GFX6R","54","0","BASKET","10","5","0","1458","BASKET","10","2018-01-25 23:03:27","168733"
"A32QWM7BWCSPTS","cs_wg_v10_pilot1","3GD6L00D3SY472127YAFVEGKP1G1ME","53","0","UMBRELLA","9","5","0","1447","UMBRELLA","9","2018-01-25 23:03:30","168734"
"A1MYLQQL8BBOYT","cs_wg_v10_pilot1","33FOTY3KEMMRYGPBU9G1SIB8VNC1CW","100","0","LADDER","0","5","1","1132","ladder","0","2018-01-25 23:03:33","168735"
"A3SX229VS1X6B6","cs_wg_v10_pilot1","3EG49X351UDA8013RBO51RNZ4GFX6R","55","0","STRUCTURE","1","5","1","1181","STRUCTURE","1","2018-01-25 23:03:36","168736"
"A1MYLQQL8BBOYT","cs_wg_v10_pilot1","33FOTY3KEMMRYGPBU9G1SIB8VNC1CW","101","0","TRAFFIC","1","5","1","889","traffic","1","2018-01-25 23:03:40","168737"
"A32QWM7BWCSPTS","cs_wg_v10_pilot1","3GD6L00D3SY472127YAFVEGKP1G1ME","54","0","FOOTBALL","9","5","0","1151","FOOTBALL","9","2018-01-25 23:03:41","168738"
"A3SX229VS1X6B6","cs_wg_v10_pilot1","3EG49X351UDA8013RBO51RNZ4GFX6R","56","0","UMBRELLA","1","5","1","1372","UMBRELLA","1","2018-01-25 23:03:44","168739"
"A1MYLQQL8BBOYT","cs_wg_v10_pilot1","33FOTY3KEMMRYGPBU9G1SIB8VNC1CW","102","0","MACHINE","0","5","1","959","machine","0","2018-01-25 23:03:48","168740"
"A32QWM7BWCSPTS","cs_wg_v10_pilot1","3GD6L00D3SY472127YAFVEGKP1G1ME","55","0","WEDDING","9","5","0","1010","WEDDING","9","2018-01-25 23:03:50","168741"
"A1MYLQQL8BBOYT","cs_wg_v10_pilot1","33FOTY3KEMMRYGPBU9G1SIB8VNC1CW","103","0","FOOTBALL","10","5","0","584","football","10","2018-01-25 23:03:55","168742"
"A1MYLQQL8BBOYT","cs_wg_v10_pilot1","33FOTY3KEMMRYGPBU9G1SIB8VNC1CW","104","0","KEYBOARD","9","5","0","1349","keyboard","9","2018-01-25 23:04:03","168743"
"A32QWM7BWCSPTS","cs_wg_v10_pilot1","3GD6L00D3SY472127YAFVEGKP1G1ME","56","0","LADDER","10","5","0","1229","LADDER","10","2018-01-25 23:04:03","168744"
"A1MYLQQL8BBOYT","cs_wg_v10_pilot1","33FOTY3KEMMRYGPBU9G1SIB8VNC1CW","105","0","MACHINE","0","5","1","899","machine","0","2018-01-25 23:04:10","168745"
"A32QWM7BWCSPTS","cs_wg_v10_pilot1","3GD6L00D3SY472127YAFVEGKP1G1ME","57","0","TRAFFIC","1","5","1","2159","TRAFFIC","1","2018-01-25 23:04:14","168746"
"A1MYLQQL8BBOYT","cs_wg_v10_pilot1","33FOTY3KEMMRYGPBU9G1SIB8VNC1CW","106","0","UMBRELLA","9","5","0","597","umbrella","9","2018-01-25 23:04:18","168747"
"A1MYLQQL8BBOYT","cs_wg_v10_pilot1","33FOTY3KEMMRYGPBU9G1SIB8VNC1CW","107","0","UMBRELLA","9","5","0","592","umbrella","9","2018-01-25 23:04:25","168748"
"A32QWM7BWCSPTS","cs_wg_v10_pilot1","3GD6L00D3SY472127YAFVEGKP1G1ME","58","0","UMBRELLA","9","5","0","1550","UMBRELLA","9","2018-01-25 23:04:27","168749"
"A1MYLQQL8BBOYT","cs_wg_v10_pilot1","33FOTY3KEMMRYGPBU9G1SIB8VNC1CW","108","0","BOOKSHELF","0","5","1","960","bookshelf","1","2018-01-25 23:04:35","168750"
"A32QWM7BWCSPTS","cs_wg_v10_pilot1","3GD6L00D3SY472127YAFVEGKP1G1ME","59","0","STRUCTURE","0","5","1","1971","STRUCTURE","0","2018-01-25 23:04:37","168751"
"A1MYLQQL8BBOYT","cs_wg_v10_pilot1","33FOTY3KEMMRYGPBU9G1SIB8VNC1CW","109","0","UMBRELLA","9","5","0","1429","umbrella","9","2018-01-25 23:04:45","168752"
"A1MYLQQL8BBOYT","cs_wg_v10_pilot1","33FOTY3KEMMRYGPBU9G1SIB8VNC1CW","110","0","HELICOPTER","10","5","0","600","helicopter","10","2018-01-25 23:04:52","168753"
"A32QWM7BWCSPTS","cs_wg_v10_pilot1","3GD6L00D3SY472127YAFVEGKP1G1ME","60","0","TRAFFIC","1","5","1","3266","TRAFFIC","1","2018-01-25 23:04:53","168754"
"A1MYLQQL8BBOYT","cs_wg_v10_pilot1","33FOTY3KEMMRYGPBU9G1SIB8VNC1CW","111","0","UMBRELLA","9","5","0","571","umbrella","9","2018-01-25 23:04:59","168755"
"A3SX229VS1X6B6","cs_wg_v10_pilot1","3EG49X351UDA8013RBO51RNZ4GFX6R","57","0","FOOTBALL","10","5","0","1637","FOOTBALL","10","2018-01-25 23:05:07","168756"
"A32QWM7BWCSPTS","cs_wg_v10_pilot1","3GD6L00D3SY472127YAFVEGKP1G1ME","61","0","BOOKSHELF","0","5","1","1984","BOOKSHELF","0","2018-01-25 23:05:09","168757"
"A3SX229VS1X6B6","cs_wg_v10_pilot1","3EG49X351UDA8013RBO51RNZ4GFX6R","58","0","HELICOPTER","0","5","1","2469","HELICOPTER","0","2018-01-25 23:05:16","168758"
"A32QWM7BWCSPTS","cs_wg_v10_pilot1","3GD6L00D3SY472127YAFVEGKP1G1ME","62","0","MACHINE","0","5","1","2066","MACHINE","0","2018-01-25 23:05:19","168759"
"A3SX229VS1X6B6","cs_wg_v10_pilot1","3EG49X351UDA8013RBO51RNZ4GFX6R","59","0","HELICOPTER","0","5","1","1487","HELICOPTER","0","2018-01-25 23:05:23","168760"
"A3SX229VS1X6B6","cs_wg_v10_pilot1","3EG49X351UDA8013RBO51RNZ4GFX6R","60","0","HELICOPTER","0","5","1","1221","HELICOPTER","0","2018-01-25 23:05:31","168761"
"A32QWM7BWCSPTS","cs_wg_v10_pilot1","3GD6L00D3SY472127YAFVEGKP1G1ME","63","0","BASKET","1","5","1","2711","BASKET","1","2018-01-25 23:05:32","168762"
"A3SX229VS1X6B6","cs_wg_v10_pilot1","3EG49X351UDA8013RBO51RNZ4GFX6R","61","0","STOMACH","9","5","1","1402","STOMACH","9","2018-01-25 23:05:38","168763"
"A32QWM7BWCSPTS","cs_wg_v10_pilot1","3GD6L00D3SY472127YAFVEGKP1G1ME","64","0","BASKET","1","5","1","2286","BASKET","1","2018-01-25 23:05:44","168764"
"A3SX229VS1X6B6","cs_wg_v10_pilot1","3EG49X351UDA8013RBO51RNZ4GFX6R","62","0","LADDER","0","5","1","1271","LADDER","0","2018-01-25 23:05:46","168765"
"A3SX229VS1X6B6","cs_wg_v10_pilot1","3EG49X351UDA8013RBO51RNZ4GFX6R","63","0","BOOKSHELF","0","5","1","1881","BOOKSHELF","0","2018-01-25 23:05:54","168766"
"A3SX229VS1X6B6","cs_wg_v10_pilot1","3EG49X351UDA8013RBO51RNZ4GFX6R","64","0","LADDER","0","5","0","1620","LADDER","0","2018-01-25 23:06:02","168767"
"A32QWM7BWCSPTS","cs_wg_v10_pilot1","3GD6L00D3SY472127YAFVEGKP1G1ME","65","0","STRUCTURE","0","5","1","1916","STRUCTURE","0","2018-01-25 23:06:04","168768"
"A3SX229VS1X6B6","cs_wg_v10_pilot1","3EG49X351UDA8013RBO51RNZ4GFX6R","65","0","DOORWAY","9","5","1","1896","DOORWAY","9","2018-01-25 23:06:10","168769"
"A32QWM7BWCSPTS","cs_wg_v10_pilot1","3GD6L00D3SY472127YAFVEGKP1G1ME","66","0","TRAFFIC","1","5","1","1884","TRAFFIC","1","2018-01-25 23:06:14","168770"
"A3SX229VS1X6B6","cs_wg_v10_pilot1","3EG49X351UDA8013RBO51RNZ4GFX6R","66","0","LADDER","0","5","1","4493","LADDER","0","2018-01-25 23:06:21","168771"
"A32QWM7BWCSPTS","cs_wg_v10_pilot1","3GD6L00D3SY472127YAFVEGKP1G1ME","67","0","MACHINE","0","5","1","1698","MACHINE","0","2018-01-25 23:06:24","168772"
"A3SX229VS1X6B6","cs_wg_v10_pilot1","3EG49X351UDA8013RBO51RNZ4GFX6R","67","0","WEDDING","9","5","0","1072","WEDDING","9","2018-01-25 23:06:28","168773"
"A3SX229VS1X6B6","cs_wg_v10_pilot1","3EG49X351UDA8013RBO51RNZ4GFX6R","68","0","TRAFFIC","1","5","1","929","TRAFFIC","1","2018-01-25 23:06:35","168774"
"A32QWM7BWCSPTS","cs_wg_v10_pilot1","3GD6L00D3SY472127YAFVEGKP1G1ME","68","0","KEYBOARD","1","5","0","3093","KEYBOARD","1","2018-01-25 23:06:42","168775"
"A3SX229VS1X6B6","cs_wg_v10_pilot1","3EG49X351UDA8013RBO51RNZ4GFX6R","69","0","UMBRELLA","1","5","1","1365","UMBRELLA","1","2018-01-25 23:06:43","168776"
"A32QWM7BWCSPTS","cs_wg_v10_pilot1","3GD6L00D3SY472127YAFVEGKP1G1ME","69","0","UMBRELLA","9","5","0","1417","UMBRELLA","9","2018-01-25 23:06:52","168777"
"A3SX229VS1X6B6","cs_wg_v10_pilot1","3EG49X351UDA8013RBO51RNZ4GFX6R","70","0","BOOKSHELF","0","5","0","1265","BOOKSHELF","0","2018-01-25 23:06:52","168778"
"A3SX229VS1X6B6","cs_wg_v10_pilot1","3EG49X351UDA8013RBO51RNZ4GFX6R","71","0","STRUCTURE","1","5","1","2082","STRUCTURE","1","2018-01-25 23:07:01","168779"
"A32QWM7BWCSPTS","cs_wg_v10_pilot1","3GD6L00D3SY472127YAFVEGKP1G1ME","70","0","STRUCTURE","0","5","1","1847","STRUCTURE","0","2018-01-25 23:07:03","168780"
"A3SX229VS1X6B6","cs_wg_v10_pilot1","3EG49X351UDA8013RBO51RNZ4GFX6R","72","0","WEDDING","9","5","0","1290","WEDDING","9","2018-01-25 23:07:08","168781"
"A32QWM7BWCSPTS","cs_wg_v10_pilot1","3GD6L00D3SY472127YAFVEGKP1G1ME","71","0","DOORWAY","10","5","0","1112","DOORWAY","10","2018-01-25 23:07:14","168782"
"A3SX229VS1X6B6","cs_wg_v10_pilot1","3EG49X351UDA8013RBO51RNZ4GFX6R","73","0","TRAFFIC","1","5","1","1772","TRAFFIC","1","2018-01-25 23:07:16","168783"
"A32QWM7BWCSPTS","cs_wg_v10_pilot1","3GD6L00D3SY472127YAFVEGKP1G1ME","72","0","KEYBOARD","1","5","1","1943","KEYBOARD","1","2018-01-25 23:07:24","168784"
"A3SX229VS1X6B6","cs_wg_v10_pilot1","3EG49X351UDA8013RBO51RNZ4GFX6R","74","0","KEYBOARD","10","5","0","1697","KEYBOARD","10","2018-01-25 23:07:24","168785"
"A3SX229VS1X6B6","cs_wg_v10_pilot1","3EG49X351UDA8013RBO51RNZ4GFX6R","75","0","KEYBOARD","10","5","0","1997","KEYBOARD","10","2018-01-25 23:07:34","168786"
"A32QWM7BWCSPTS","cs_wg_v10_pilot1","3GD6L00D3SY472127YAFVEGKP1G1ME","73","0","KEYBOARD","1","5","1","1902","KEYBOARD","1","2018-01-25 23:07:35","168787"
"A3SX229VS1X6B6","cs_wg_v10_pilot1","3EG49X351UDA8013RBO51RNZ4GFX6R","76","0","LADDER","0","5","1","2569","LADDER","0","2018-01-25 23:07:42","168788"
"A32QWM7BWCSPTS","cs_wg_v10_pilot1","3GD6L00D3SY472127YAFVEGKP1G1ME","74","0","LADDER","10","5","0","1122","LADDER","10","2018-01-25 23:07:45","168789"
"A3SX229VS1X6B6","cs_wg_v10_pilot1","3EG49X351UDA8013RBO51RNZ4GFX6R","77","0","STRUCTURE","1","5","1","1222","STRUCTURE","1","2018-01-25 23:07:50","168790"
"A3SX229VS1X6B6","cs_wg_v10_pilot1","3EG49X351UDA8013RBO51RNZ4GFX6R","78","0","FOOTBALL","10","5","0","2039","FOOTBALL","10","2018-01-25 23:07:58","168791"
"A32QWM7BWCSPTS","cs_wg_v10_pilot1","3GD6L00D3SY472127YAFVEGKP1G1ME","75","0","KEYBOARD","1","5","1","1700","KEYBOARD","1","2018-01-25 23:07:58","168792"
"A3SX229VS1X6B6","cs_wg_v10_pilot1","3EG49X351UDA8013RBO51RNZ4GFX6R","79","0","BASKET","10","5","0","1987","BASKET","10","2018-01-25 23:08:06","168793"
"A32QWM7BWCSPTS","cs_wg_v10_pilot1","3GD6L00D3SY472127YAFVEGKP1G1ME","76","0","STOMACH","0","5","0","2269","STOMACH","0","2018-01-25 23:08:11","168794"
"A3SX229VS1X6B6","cs_wg_v10_pilot1","3EG49X351UDA8013RBO51RNZ4GFX6R","80","0","COMMUNITY","0","5","1","1109","COMMUNITY","0","2018-01-25 23:08:14","168795"
"AR4XFM7G1W0VQ","cs_wg_v10_pilot1","37C0GNLMHF4WAUWM0BNT7KK7OY46DZ","0","0","FOOTBALL","1","5","0","5105","football","1","2018-01-25 23:08:20","168796"
"A3SX229VS1X6B6","cs_wg_v10_pilot1","3EG49X351UDA8013RBO51RNZ4GFX6R","81","0","HELICOPTER","0","5","1","1108","HELICOPTER","0","2018-01-25 23:08:21","168797"
"A32QWM7BWCSPTS","cs_wg_v10_pilot1","3GD6L00D3SY472127YAFVEGKP1G1ME","77","0","BASKET","1","5","1","2113","BASKET","1","2018-01-25 23:08:23","168798"
"A3SX229VS1X6B6","cs_wg_v10_pilot1","3EG49X351UDA8013RBO51RNZ4GFX6R","82","0","STOMACH","9","5","0","1807","STOMACH","9","2018-01-25 23:08:29","168799"
"AR4XFM7G1W0VQ","cs_wg_v10_pilot1","37C0GNLMHF4WAUWM0BNT7KK7OY46DZ","1","0","STOMACH","1","5","0","2190","stomach","1","2018-01-25 23:08:31","168800"
"A32QWM7BWCSPTS","cs_wg_v10_pilot1","3GD6L00D3SY472127YAFVEGKP1G1ME","78","0","FOOTBALL","9","5","0","1192","FOOTBALL","9","2018-01-25 23:08:34","168801"
"A3SX229VS1X6B6","cs_wg_v10_pilot1","3EG49X351UDA8013RBO51RNZ4GFX6R","83","0","FOOTBALL","10","5","0","1566","FOOTBALL","10","2018-01-25 23:08:36","168802"
"A3SX229VS1X6B6","cs_wg_v10_pilot1","3EG49X351UDA8013RBO51RNZ4GFX6R","84","0","FOOTBALL","10","5","0","1279","FOOTBALL","10","2018-01-25 23:08:44","168803"
"A32QWM7BWCSPTS","cs_wg_v10_pilot1","3GD6L00D3SY472127YAFVEGKP1G1ME","79","0","DOORWAY","10","5","0","1085","DOORWAY","10","2018-01-25 23:08:44","168804"
"AR4XFM7G1W0VQ","cs_wg_v10_pilot1","37C0GNLMHF4WAUWM0BNT7KK7OY46DZ","2","0","STOMACH","1","5","1","3935","stomach","1","2018-01-25 23:08:48","168805"
"A3SX229VS1X6B6","cs_wg_v10_pilot1","3EG49X351UDA8013RBO51RNZ4GFX6R","85","0","DOORWAY","9","5","0","1654","DOORWAY","9","2018-01-25 23:08:51","168806"
"A32QWM7BWCSPTS","cs_wg_v10_pilot1","3GD6L00D3SY472127YAFVEGKP1G1ME","80","0","DOORWAY","10","5","0","1223","DOORWAY","10","2018-01-25 23:08:55","168807"
"AR4XFM7G1W0VQ","cs_wg_v10_pilot1","37C0GNLMHF4WAUWM0BNT7KK7OY46DZ","3","0","HELICOPTER","0","5","1","2376","helicopter","0","2018-01-25 23:09:00","168808"
"A3SX229VS1X6B6","cs_wg_v10_pilot1","3EG49X351UDA8013RBO51RNZ4GFX6R","86","0","MACHINE","10","5","0","3055","MACHINE","10","2018-01-25 23:09:00","168809"
"A32QWM7BWCSPTS","cs_wg_v10_pilot1","3GD6L00D3SY472127YAFVEGKP1G1ME","81","0","HELICOPTER","10","5","0","1423","HELICOPTER","10","2018-01-25 23:09:07","168810"
"A3SX229VS1X6B6","cs_wg_v10_pilot1","3EG49X351UDA8013RBO51RNZ4GFX6R","87","0","TRAFFIC","1","5","1","1284","TRAFFIC","1","2018-01-25 23:09:07","168811"
"A3SX229VS1X6B6","cs_wg_v10_pilot1","3EG49X351UDA8013RBO51RNZ4GFX6R","88","0","STOMACH","9","5","0","1902","STOMACH","9","2018-01-25 23:09:15","168812"
"AR4XFM7G1W0VQ","cs_wg_v10_pilot1","37C0GNLMHF4WAUWM0BNT7KK7OY46DZ","4","0","COMMUNITY","10","5","1","2774","community","10","2018-01-25 23:09:16","168813"
"A32QWM7BWCSPTS","cs_wg_v10_pilot1","3GD6L00D3SY472127YAFVEGKP1G1ME","82","0","MACHINE","0","5","1","1692","MACHINE","0","2018-01-25 23:09:19","168814"
"A3SX229VS1X6B6","cs_wg_v10_pilot1","3EG49X351UDA8013RBO51RNZ4GFX6R","89","0","BOOKSHELF","0","5","1","3285","BOOKSHELF","0","2018-01-25 23:09:24","168815"
"A32QWM7BWCSPTS","cs_wg_v10_pilot1","3GD6L00D3SY472127YAFVEGKP1G1ME","83","0","HELICOPTER","10","5","0","1027","HELICOPTER","10","2018-01-25 23:09:29","168816"
"AR4XFM7G1W0VQ","cs_wg_v10_pilot1","37C0GNLMHF4WAUWM0BNT7KK7OY46DZ","5","0","BASKET","9","5","1","1599","basket","9","2018-01-25 23:09:31","168817"
"A3SX229VS1X6B6","cs_wg_v10_pilot1","3EG49X351UDA8013RBO51RNZ4GFX6R","90","0","WEDDING","9","5","0","1491","WEDDING","9","2018-01-25 23:09:32","168818"
"A32QWM7BWCSPTS","cs_wg_v10_pilot1","3GD6L00D3SY472127YAFVEGKP1G1ME","84","0","HELICOPTER","10","5","0","977","HELICOPTER","10","2018-01-25 23:09:41","168819"
"A3SX229VS1X6B6","cs_wg_v10_pilot1","3EG49X351UDA8013RBO51RNZ4GFX6R","91","0","MACHINE","10","5","1","1933","MACHINE","10","2018-01-25 23:09:41","168820"
"AR4XFM7G1W0VQ","cs_wg_v10_pilot1","37C0GNLMHF4WAUWM0BNT7KK7OY46DZ","6","0","LADDER","10","5","1","1862","ladder","10","2018-01-25 23:09:44","168821"
"A3SX229VS1X6B6","cs_wg_v10_pilot1","3EG49X351UDA8013RBO51RNZ4GFX6R","92","0","STOMACH","9","5","0","1153","STOMACH","9","2018-01-25 23:09:48","168822"
"A32QWM7BWCSPTS","cs_wg_v10_pilot1","3GD6L00D3SY472127YAFVEGKP1G1ME","85","0","WEDDING","9","5","0","1080","WEDDING","9","2018-01-25 23:09:49","168823"
"AR4XFM7G1W0VQ","cs_wg_v10_pilot1","37C0GNLMHF4WAUWM0BNT7KK7OY46DZ","7","0","BASKET","9","5","1","862","basket","9","2018-01-25 23:09:53","168824"
"A3SX229VS1X6B6","cs_wg_v10_pilot1","3EG49X351UDA8013RBO51RNZ4GFX6R","93","0","COMMUNITY","0","5","1","1317","COMMUNITY","0","2018-01-25 23:09:56","168825"
"AR4XFM7G1W0VQ","cs_wg_v10_pilot1","37C0GNLMHF4WAUWM0BNT7KK7OY46DZ","8","0","MACHINE","9","5","1","1208","machine","9","2018-01-25 23:10:01","168826"
"A3SX229VS1X6B6","cs_wg_v10_pilot1","3EG49X351UDA8013RBO51RNZ4GFX6R","94","0","WEDDING","9","5","0","933","WEDDING","9","2018-01-25 23:10:03","168827"
"A32QWM7BWCSPTS","cs_wg_v10_pilot1","3GD6L00D3SY472127YAFVEGKP1G1ME","86","0","HELICOPTER","10","5","0","926","HELICOPTER","10","2018-01-25 23:10:04","168828"
"AR4XFM7G1W0VQ","cs_wg_v10_pilot1","37C0GNLMHF4WAUWM0BNT7KK7OY46DZ","9","0","BOOKSHELF","0","5","1","1425","bookshelf","0
","2018-01-25 23:10:10","168829"
"A3SX229VS1X6B6","cs_wg_v10_pilot1","3EG49X351UDA8013RBO51RNZ4GFX6R","95","0","DOORWAY","9","5","0","1150","DOORWAY","9","2018-01-25 23:10:10","168830"
"A32QWM7BWCSPTS","cs_wg_v10_pilot1","3GD6L00D3SY472127YAFVEGKP1G1ME","87","0","COMMUNITY","10","5","0","1838","COMMUNITY","10","2018-01-25 23:10:15","168831"
"A3SX229VS1X6B6","cs_wg_v10_pilot1","3EG49X351UDA8013RBO51RNZ4GFX6R","96","0","TRAFFIC","1","5","1","1367","TRAFFIC","1","2018-01-25 23:10:17","168832"
"AR4XFM7G1W0VQ","cs_wg_v10_pilot1","37C0GNLMHF4WAUWM0BNT7KK7OY46DZ","10","0","MACHINE","9","5","1","3693","machine","9","2018-01-25 23:10:25","168833"
"A3SX229VS1X6B6","cs_wg_v10_pilot1","3EG49X351UDA8013RBO51RNZ4GFX6R","97","0","DOORWAY","9","5","0","1144","DOORWAY","9","2018-01-25 23:10:25","168834"
"A32QWM7BWCSPTS","cs_wg_v10_pilot1","3GD6L00D3SY472127YAFVEGKP1G1ME","88","0","LADDER","10","5","0","1051","LADDER","10","2018-01-25 23:10:25","168835"
"A3SX229VS1X6B6","cs_wg_v10_pilot1","3EG49X351UDA8013RBO51RNZ4GFX6R","98","0","COMMUNITY","0","5","1","1317","COMMUNITY","0","2018-01-25 23:10:32","168836"
"A32QWM7BWCSPTS","cs_wg_v10_pilot1","3GD6L00D3SY472127YAFVEGKP1G1ME","89","0","COMMUNITY","10","5","0","809","COMMUNITY","10","2018-01-25 23:10:34","168837"
"A3SX229VS1X6B6","cs_wg_v10_pilot1","3EG49X351UDA8013RBO51RNZ4GFX6R","99","0","STRUCTURE","1","5","1","1331","STRUCTURE","1","2018-01-25 23:10:40","168838"
"AR4XFM7G1W0VQ","cs_wg_v10_pilot1","37C0GNLMHF4WAUWM0BNT7KK7OY46DZ","11","0","MACHINE","9","5","0","2420","machine","9","2018-01-25 23:10:40","168839"
"A32QWM7BWCSPTS","cs_wg_v10_pilot1","3GD6L00D3SY472127YAFVEGKP1G1ME","90","0","BOOKSHELF","0","5","1","1624","BOOKSHELF","0","2018-01-25 23:10:47","168840"
"A3SX229VS1X6B6","cs_wg_v10_pilot1","3EG49X351UDA8013RBO51RNZ4GFX6R","100","0","KEYBOARD","10","5","0","1307","KEYBOARD","10","2018-01-25 23:10:48","168841"
"AR4XFM7G1W0VQ","cs_wg_v10_pilot1","37C0GNLMHF4WAUWM0BNT7KK7OY46DZ","12","0","WEDDING","0","5","1","1386","wedding","0","2018-01-25 23:10:50","168842"
"A3SX229VS1X6B6","cs_wg_v10_pilot1","3EG49X351UDA8013RBO51RNZ4GFX6R","101","0","BOOKSHELF","0","5","0","1202","BOOKSHELF","0","2018-01-25 23:10:56","168843"
"A32QWM7BWCSPTS","cs_wg_v10_pilot1","3GD6L00D3SY472127YAFVEGKP1G1ME","91","0","WEDDING","9","5","0","832","WEDDING","9","2018-01-25 23:10:56","168844"
"AR4XFM7G1W0VQ","cs_wg_v10_pilot1","37C0GNLMHF4WAUWM0BNT7KK7OY46DZ","13","0","KEYBOARD","10","5","1","3473","keyboard","10","2018-01-25 23:11:01","168845"
"A3SX229VS1X6B6","cs_wg_v10_pilot1","3EG49X351UDA8013RBO51RNZ4GFX6R","102","0","STRUCTURE","1","5","1","918","STRUCTURE","1","2018-01-25 23:11:03","168846"
"A32QWM7BWCSPTS","cs_wg_v10_pilot1","3GD6L00D3SY472127YAFVEGKP1G1ME","92","0","UMBRELLA","9","5","0","916","UMBRELLA","9","2018-01-25 23:11:06","168847"
"A3SX229VS1X6B6","cs_wg_v10_pilot1","3EG49X351UDA8013RBO51RNZ4GFX6R","103","0","MACHINE","10","5","0","1055","MACHINE","10","2018-01-25 23:11:10","168848"
"AR4XFM7G1W0VQ","cs_wg_v10_pilot1","37C0GNLMHF4WAUWM0BNT7KK7OY46DZ","14","0","WEDDING","0","5","1","2429","wedding","0","2018-01-25 23:11:12","168849"
"A32QWM7BWCSPTS","cs_wg_v10_pilot1","3GD6L00D3SY472127YAFVEGKP1G1ME","93","0","COMMUNITY","10","5","0","987","COMMUNITY","10","2018-01-25 23:11:16","168850"
"A3SX229VS1X6B6","cs_wg_v10_pilot1","3EG49X351UDA8013RBO51RNZ4GFX6R","104","0","COMMUNITY","0","5","1","1133","COMMUNITY","0","2018-01-25 23:11:19","168851"
"AR4XFM7G1W0VQ","cs_wg_v10_pilot1","37C0GNLMHF4WAUWM0BNT7KK7OY46DZ","15","0","COMMUNITY","10","5","0","3009","community","10","2018-01-25 23:11:26","168852"
"A32QWM7BWCSPTS","cs_wg_v10_pilot1","3GD6L00D3SY472127YAFVEGKP1G1ME","94","0","WEDDING","9","5","0","1470","WEDDING","9","2018-01-25 23:11:26","168853"
"A3SX229VS1X6B6","cs_wg_v10_pilot1","3EG49X351UDA8013RBO51RNZ4GFX6R","105","0","WEDDING","9","5","0","1512","WEDDING","9","2018-01-25 23:11:29","168854"
"A32QWM7BWCSPTS","cs_wg_v10_pilot1","3GD6L00D3SY472127YAFVEGKP1G1ME","95","0","STOMACH","0","5","1","1668","STOMACH","0","2018-01-25 23:11:36","168855"
"A3SX229VS1X6B6","cs_wg_v10_pilot1","3EG49X351UDA8013RBO51RNZ4GFX6R","106","0","UMBRELLA","1","5","0","1771","UMBRELLA","1","2018-01-25 23:11:40","168856"
"AR4XFM7G1W0VQ","cs_wg_v10_pilot1","37C0GNLMHF4WAUWM0BNT7KK7OY46DZ","16","0","STRUCTURE","1","5","1","1902","structure","1","2018-01-25 23:11:40","168857"
"A32QWM7BWCSPTS","cs_wg_v10_pilot1","3GD6L00D3SY472127YAFVEGKP1G1ME","96","0","UMBRELLA","9","5","0","1240","UMBRELLA","9","2018-01-25 23:11:47","168858"
"A3SX229VS1X6B6","cs_wg_v10_pilot1","3EG49X351UDA8013RBO51RNZ4GFX6R","107","0","BOOKSHELF","0","5","1","1060","BOOKSHELF","0","2018-01-25 23:11:47","168859"
"AR4XFM7G1W0VQ","cs_wg_v10_pilot1","37C0GNLMHF4WAUWM0BNT7KK7OY46DZ","17","0","FOOTBALL","1","5","1","3111","football","1","2018-01-25 23:11:50","168860"
"A32QWM7BWCSPTS","cs_wg_v10_pilot1","3GD6L00D3SY472127YAFVEGKP1G1ME","97","0","BASKET","1","5","1","2239","BASKET","1","2018-01-25 23:11:58","168861"
"AR4XFM7G1W0VQ","cs_wg_v10_pilot1","37C0GNLMHF4WAUWM0BNT7KK7OY46DZ","18","0","UMBRELLA","0","5","1","2434","umbrella","0","2018-01-25 23:12:02","168862"
"A3SX229VS1X6B6","cs_wg_v10_pilot1","3EG49X351UDA8013RBO51RNZ4GFX6R","108","0","KEYBOARD","10","5","0","9361","KEYBOARD","10","2018-01-25 23:12:04","168863"
"A32QWM7BWCSPTS","cs_wg_v10_pilot1","3GD6L00D3SY472127YAFVEGKP1G1ME","98","0","BOOKSHELF","0","5","1","1603","BOOKSHELF","0","2018-01-25 23:12:10","168864"
"A3SX229VS1X6B6","cs_wg_v10_pilot1","3EG49X351UDA8013RBO51RNZ4GFX6R","109","0","DOORWAY","9","5","1","1351","DOORWAY","9","2018-01-25 23:12:11","168865"
"AR4XFM7G1W0VQ","cs_wg_v10_pilot1","37C0GNLMHF4WAUWM0BNT7KK7OY46DZ","19","0","MACHINE","9","5","0","2932","machine","9","2018-01-25 23:12:12","168866"
"A3SX229VS1X6B6","cs_wg_v10_pilot1","3EG49X351UDA8013RBO51RNZ4GFX6R","110","0","TRAFFIC","1","5","1","866","TRAFFIC","1","2018-01-25 23:12:18","168867"
"AR4XFM7G1W0VQ","cs_wg_v10_pilot1","37C0GNLMHF4WAUWM0BNT7KK7OY46DZ","20","0","STOMACH","1","5","0","3012","stomach","1","2018-01-25 23:12:23","168868"
"A32QWM7BWCSPTS","cs_wg_v10_pilot1","3GD6L00D3SY472127YAFVEGKP1G1ME","99","0","DOORWAY","10","5","0","972","DOORWAY","10","2018-01-25 23:12:24","168869"
"A3SX229VS1X6B6","cs_wg_v10_pilot1","3EG49X351UDA8013RBO51RNZ4GFX6R","111","0","COMMUNITY","0","5","1","4432","COMMUNITY","0","2018-01-25 23:12:29","168870"
"A32QWM7BWCSPTS","cs_wg_v10_pilot1","3GD6L00D3SY472127YAFVEGKP1G1ME","100","0","STRUCTURE","0","5","1","1599","STRUCTURE","0","2018-01-25 23:12:35","168871"
"A32QWM7BWCSPTS","cs_wg_v10_pilot1","3GD6L00D3SY472127YAFVEGKP1G1ME","101","0","KEYBOARD","1","5","1","2979","KEYBOARD","1","2018-01-25 23:12:47","168872"
"A32QWM7BWCSPTS","cs_wg_v10_pilot1","3GD6L00D3SY472127YAFVEGKP1G1ME","102","0","STRUCTURE","0","5","1","1484","STRUCTURE","0","2018-01-25 23:13:00","168873"
"A32QWM7BWCSPTS","cs_wg_v10_pilot1","3GD6L00D3SY472127YAFVEGKP1G1ME","103","0","BASKET","1","5","1","1692","BASKET","1","2018-01-25 23:13:10","168874"
"A32QWM7BWCSPTS","cs_wg_v10_pilot1","3GD6L00D3SY472127YAFVEGKP1G1ME","104","0","STOMACH","0","5","1","1587","STOMACH","0","2018-01-25 23:13:20","168875"
"AR4XFM7G1W0VQ","cs_wg_v10_pilot1","37C0GNLMHF4WAUWM0BNT7KK7OY46DZ","21","0","STOMACH","1","5","1","2459","stomach","1","2018-01-25 23:13:24","168876"
"A32QWM7BWCSPTS","cs_wg_v10_pilot1","3GD6L00D3SY472127YAFVEGKP1G1ME","105","0","STOMACH","0","5","1","2218","STOMACH","0","2018-01-25 23:13:31","168877"
"AR4XFM7G1W0VQ","cs_wg_v10_pilot1","37C0GNLMHF4WAUWM0BNT7KK7OY46DZ","22","0","DOORWAY","9","5","1","1895","doorway","9","2018-01-25 23:13:33","168878"
"A32QWM7BWCSPTS","cs_wg_v10_pilot1","3GD6L00D3SY472127YAFVEGKP1G1ME","106","0","LADDER","10","5","0","1088","LADDER","10","2018-01-25 23:13:43","168879"
"AR4XFM7G1W0VQ","cs_wg_v10_pilot1","37C0GNLMHF4WAUWM0BNT7KK7OY46DZ","23","0","BOOKSHELF","0","5","0","4182","bookshelf","0","2018-01-25 23:13:45","168880"
"A32QWM7BWCSPTS","cs_wg_v10_pilot1","3GD6L00D3SY472127YAFVEGKP1G1ME","107","0","BOOKSHELF","0","5","1","1529","BOOKSHELF","0","2018-01-25 23:13:56","168881"
"AR4XFM7G1W0VQ","cs_wg_v10_pilot1","37C0GNLMHF4WAUWM0BNT7KK7OY46DZ","24","0","DOORWAY","9","5","1","6991","doorway","9","2018-01-25 23:13:59","168882"
"A32QWM7BWCSPTS","cs_wg_v10_pilot1","3GD6L00D3SY472127YAFVEGKP1G1ME","108","0","COMMUNITY","10","5","0","1410","COMMUNITY","10","2018-01-25 23:14:07","168883"
"AR4XFM7G1W0VQ","cs_wg_v10_pilot1","37C0GNLMHF4WAUWM0BNT7KK7OY46DZ","25","0","FOOTBALL","1","5","0","5793","football","1","2018-01-25 23:14:13","168884"
"A32QWM7BWCSPTS","cs_wg_v10_pilot1","3GD6L00D3SY472127YAFVEGKP1G1ME","109","0","COMMUNITY","10","5","0","1128","COMMUNITY","10","2018-01-25 23:14:20","168885"
"AR4XFM7G1W0VQ","cs_wg_v10_pilot1","37C0GNLMHF4WAUWM0BNT7KK7OY46DZ","26","0","FOOTBALL","1","5","1","4243","football","1","2018-01-25 23:14:30","168886"
"A32QWM7BWCSPTS","cs_wg_v10_pilot1","3GD6L00D3SY472127YAFVEGKP1G1ME","110","0","FOOTBALL","9","5","0","1081","FOOTBALL","9","2018-01-25 23:14:31","168887"
"AR4XFM7G1W0VQ","cs_wg_v10_pilot1","37C0GNLMHF4WAUWM0BNT7KK7OY46DZ","27","0","BASKET","9","5","0","2510","basket","9","2018-01-25 23:14:40","168888"
"A32QWM7BWCSPTS","cs_wg_v10_pilot1","3GD6L00D3SY472127YAFVEGKP1G1ME","111","0","STOMACH","0","5","1","2434","STOMACH","0","2018-01-25 23:14:43","168889"
"AR4XFM7G1W0VQ","cs_wg_v10_pilot1","37C0GNLMHF4WAUWM0BNT7KK7OY46DZ","28","0","KEYBOARD","10","5","0","1928","keyboard","10","2018-01-25 23:14:49","168890"
"AR4XFM7G1W0VQ","cs_wg_v10_pilot1","37C0GNLMHF4WAUWM0BNT7KK7OY46DZ","29","0","UMBRELLA","0","5","0","1587","umbrella","0","2018-01-25 23:14:59","168891"
"AR4XFM7G1W0VQ","cs_wg_v10_pilot1","37C0GNLMHF4WAUWM0BNT7KK7OY46DZ","30","0","WEDDING","0","5","1","3828","wedding","0","2018-01-25 23:15:11","168892"
"AR4XFM7G1W0VQ","cs_wg_v10_pilot1","37C0GNLMHF4WAUWM0BNT7KK7OY46DZ","31","0","STRUCTURE","1","5","0","2680","structure","1","2018-01-25 23:15:23","168893"
"AR4XFM7G1W0VQ","cs_wg_v10_pilot1","37C0GNLMHF4WAUWM0BNT7KK7OY46DZ","32","0","BASKET","9","5","0","2796","basket","9","2018-01-25 23:15:34","168894"
"AR4XFM7G1W0VQ","cs_wg_v10_pilot1","37C0GNLMHF4WAUWM0BNT7KK7OY46DZ","33","0","FOOTBALL","1","5","1","2530","football","1","2018-01-25 23:15:43","168895"
"AR4XFM7G1W0VQ","cs_wg_v10_pilot1","37C0GNLMHF4WAUWM0BNT7KK7OY46DZ","34","0","BOOKSHELF","0","5","1","3034","bookshelf","0","2018-01-25 23:15:54","168896"
"AR4XFM7G1W0VQ","cs_wg_v10_pilot1","37C0GNLMHF4WAUWM0BNT7KK7OY46DZ","35","0","TRAFFIC","10","5","1","1350","traffic","10","2018-01-25 23:16:02","168897"
"AR4XFM7G1W0VQ","cs_wg_v10_pilot1","37C0GNLMHF4WAUWM0BNT7KK7OY46DZ","36","0","MACHINE","9","5","0","1714","machine","9","2018-01-25 23:16:10","168898"
"AR4XFM7G1W0VQ","cs_wg_v10_pilot1","37C0GNLMHF4WAUWM0BNT7KK7OY46DZ","37","0","COMMUNITY","10","5","0","3070","community","10","2018-01-25 23:16:21","168899"
"AR4XFM7G1W0VQ","cs_wg_v10_pilot1","37C0GNLMHF4WAUWM0BNT7KK7OY46DZ","38","0","BASKET","9","5","0","1647","basket","9","2018-01-25 23:16:29","168900"
"AR4XFM7G1W0VQ","cs_wg_v10_pilot1","37C0GNLMHF4WAUWM0BNT7KK7OY46DZ","39","0","STOMACH","1","5","1","3017","stomach","1","2018-01-25 23:16:39","168901"
"AR4XFM7G1W0VQ","cs_wg_v10_pilot1","37C0GNLMHF4WAUWM0BNT7KK7OY46DZ","40","0","LADDER","10","5","1","1886","ladder","10","2018-01-25 23:16:48","168902"
"AR4XFM7G1W0VQ","cs_wg_v10_pilot1","37C0GNLMHF4WAUWM0BNT7KK7OY46DZ","41","0","TRAFFIC","10","5","0","2588","traffic","10","2018-01-25 23:16:58","168903"
"AR4XFM7G1W0VQ","cs_wg_v10_pilot1","37C0GNLMHF4WAUWM0BNT7KK7OY46DZ","42","0","BASKET","9","5","0","1447","basket","9","2018-01-25 23:17:07","168904"
"AR4XFM7G1W0VQ","cs_wg_v10_pilot1","37C0GNLMHF4WAUWM0BNT7KK7OY46DZ","43","0","BOOKSHELF","0","5","1","4225","bookshelf","0","2018-01-25 23:17:18","168905"
"AR4XFM7G1W0VQ","cs_wg_v10_pilot1","37C0GNLMHF4WAUWM0BNT7KK7OY46DZ","44","0","COMMUNITY","10","5","0","1434","community","10","2018-01-25 23:17:28","168906"
"AR4XFM7G1W0VQ","cs_wg_v10_pilot1","37C0GNLMHF4WAUWM0BNT7KK7OY46DZ","45","0","WEDDING","0","5","1","2555","wedding","0","2018-01-25 23:17:37","168907"
"AR4XFM7G1W0VQ","cs_wg_v10_pilot1","37C0GNLMHF4WAUWM0BNT7KK7OY46DZ","46","0","KEYBOARD","10","5","0","2814","keyboard","10","2018-01-25 23:17:47","168908"
"AR4XFM7G1W0VQ","cs_wg_v10_pilot1","37C0GNLMHF4WAUWM0BNT7KK7OY46DZ","47","0","FOOTBALL","1","5","1","1883","football","1","2018-01-25 23:17:56","168909"
"AR4XFM7G1W0VQ","cs_wg_v10_pilot1","37C0GNLMHF4WAUWM0BNT7KK7OY46DZ","48","0","LADDER","10","5","0","5114","ladder","10","2018-01-25 23:18:09","168910"
"AR4XFM7G1W0VQ","cs_wg_v10_pilot1","37C0GNLMHF4WAUWM0BNT7KK7OY46DZ","49","0","KEYBOARD","10","5","0","2036","keyboard","10","2018-01-25 23:18:18","168911"
"AR4XFM7G1W0VQ","cs_wg_v10_pilot1","37C0GNLMHF4WAUWM0BNT7KK7OY46DZ","50","0","HELICOPTER","0","5","0","2392","helicopter","0","2018-01-25 23:18:30","168912"
"AR4XFM7G1W0VQ","cs_wg_v10_pilot1","37C0GNLMHF4WAUWM0BNT7KK7OY46DZ","51","0","MACHINE","9","5","1","2751","machine","9","2018-01-25 23:18:41","168913"
"AR4XFM7G1W0VQ","cs_wg_v10_pilot1","37C0GNLMHF4WAUWM0BNT7KK7OY46DZ","52","0","COMMUNITY","10","5","0","1827","community","10","2018-01-25 23:18:52","168914"
"AR4XFM7G1W0VQ","cs_wg_v10_pilot1","37C0GNLMHF4WAUWM0BNT7KK7OY46DZ","53","0","STRUCTURE","1","5","1","3125","structure","1","2018-01-25 23:19:04","168915"
"AR4XFM7G1W0VQ","cs_wg_v10_pilot1","37C0GNLMHF4WAUWM0BNT7KK7OY46DZ","54","0","HELICOPTER","0","5","1","1587","helicopter","0","2018-01-25 23:19:14","168916"
"AR4XFM7G1W0VQ","cs_wg_v10_pilot1","37C0GNLMHF4WAUWM0BNT7KK7OY46DZ","55","0","UMBRELLA","0","5","1","1490","umbrella","0","2018-01-25 23:19:22","168917"
"AR4XFM7G1W0VQ","cs_wg_v10_pilot1","37C0GNLMHF4WAUWM0BNT7KK7OY46DZ","56","0","HELICOPTER","0","5","1","1893","helicopter","0","2018-01-25 23:19:31","168918"
"AR4XFM7G1W0VQ","cs_wg_v10_pilot1","37C0GNLMHF4WAUWM0BNT7KK7OY46DZ","57","0","STOMACH","1","5","1","3874","stomach","1","2018-01-25 23:19:42","168919"
"AK8ONB60Q4RJ5","cs_wg_v10_pilot1","36AHBNMV1RDYTE6S6UILQB40N8WYDQ","0","0","COMMUNITY","9","5","0","4708","community","9","2018-01-25 23:19:50","168920"
"AR4XFM7G1W0VQ","cs_wg_v10_pilot1","37C0GNLMHF4WAUWM0BNT7KK7OY46DZ","58","0","FOOTBALL","1","5","1","1779","football","1","2018-01-25 23:19:51","168921"
"AR4XFM7G1W0VQ","cs_wg_v10_pilot1","37C0GNLMHF4WAUWM0BNT7KK7OY46DZ","59","0","DOORWAY","9","5","0","3809","doorway","9","2018-01-25 23:20:02","168922"
"AR4XFM7G1W0VQ","cs_wg_v10_pilot1","37C0GNLMHF4WAUWM0BNT7KK7OY46DZ","60","0","LADDER","10","5","0","1832","ladder","10","2018-01-25 23:20:15","168923"
"AK8ONB60Q4RJ5","cs_wg_v10_pilot1","36AHBNMV1RDYTE6S6UILQB40N8WYDQ","1","0","UMBRELLA","0","5","1","6903","umbrella","0","2018-01-25 23:20:16","168924"
"AR4XFM7G1W0VQ","cs_wg_v10_pilot1","37C0GNLMHF4WAUWM0BNT7KK7OY46DZ","61","0","WEDDING","0","5","1","2140","wedding","0","2018-01-25 23:20:23","168925"
"AR4XFM7G1W0VQ","cs_wg_v10_pilot1","37C0GNLMHF4WAUWM0BNT7KK7OY46DZ","62","0","UMBRELLA","0","5","1","1674","umbrella","0","2018-01-25 23:20:32","168926"
"AK8ONB60Q4RJ5","cs_wg_v10_pilot1","36AHBNMV1RDYTE6S6UILQB40N8WYDQ","2","0","BOOKSHELF","0","5","0","2774","bookshelf","0","2018-01-25 23:20:35","168927"
"AR4XFM7G1W0VQ","cs_wg_v10_pilot1","37C0GNLMHF4WAUWM0BNT7KK7OY46DZ","63","0","LADDER","10","5","0","1173","ladder","10","2018-01-25 23:20:40","168928"
"AR4XFM7G1W0VQ","cs_wg_v10_pilot1","37C0GNLMHF4WAUWM0BNT7KK7OY46DZ","64","0","HELICOPTER","0","5","1","2595","helicopter","0","2018-01-25 23:20:51","168929"
"AK8ONB60Q4RJ5","cs_wg_v10_pilot1","36AHBNMV1RDYTE6S6UILQB40N8WYDQ","3","0","STOMACH","9","5","0","4500","stomach","9","2018-01-25 23:20:55","168930"
"AR4XFM7G1W0VQ","cs_wg_v10_pilot1","37C0GNLMHF4WAUWM0BNT7KK7OY46DZ","65","0","COMMUNITY","10","5","0","1783","community","10","2018-01-25 23:21:01","168931"
"AR4XFM7G1W0VQ","cs_wg_v10_pilot1","37C0GNLMHF4WAUWM0BNT7KK7OY46DZ","66","0","KEYBOARD","10","5","0","1341","keyboard","10","2018-01-25 23:21:08","168932"
"AR4XFM7G1W0VQ","cs_wg_v10_pilot1","37C0GNLMHF4WAUWM0BNT7KK7OY46DZ","67","0","TRAFFIC","10","5","0","1519","traffic","10","2018-01-25 23:21:17","168933"
"AK8ONB60Q4RJ5","cs_wg_v10_pilot1","36AHBNMV1RDYTE6S6UILQB40N8WYDQ","4","0","COMMUNITY","9","5","1","2910","community","9","2018-01-25 23:21:20","168934"
"AR4XFM7G1W0VQ","cs_wg_v10_pilot1","37C0GNLMHF4WAUWM0BNT7KK7OY46DZ","68","0","KEYBOARD","10","5","0","731","keyboard","10","2018-01-25 23:21:24","168935"
"AK8ONB60Q4RJ5","cs_wg_v10_pilot1","36AHBNMV1RDYTE6S6UILQB40N8WYDQ","5","0","LADDER","10","5","0","1873","ladder","10","2018-01-25 23:21:32","168936"
"AR4XFM7G1W0VQ","cs_wg_v10_pilot1","37C0GNLMHF4WAUWM0BNT7KK7OY46DZ","69","0","BOOKSHELF","0","5","1","2981","bookshelf","0","2018-01-25 23:21:33","168937"
"AR4XFM7G1W0VQ","cs_wg_v10_pilot1","37C0GNLMHF4WAUWM0BNT7KK7OY46DZ","70","0","DOORWAY","9","5","1","2054","doorway","9","2018-01-25 23:21:42","168938"
"AK8ONB60Q4RJ5","cs_wg_v10_pilot1","36AHBNMV1RDYTE6S6UILQB40N8WYDQ","6","0","TRAFFIC","1","5","0","3393","traffic","1","2018-01-25 23:21:48","168939"
"AR4XFM7G1W0VQ","cs_wg_v10_pilot1","37C0GNLMHF4WAUWM0BNT7KK7OY46DZ","71","0","STRUCTURE","1","5","1","1906","structure","1","2018-01-25 23:21:51","168940"
"AR4XFM7G1W0VQ","cs_wg_v10_pilot1","37C0GNLMHF4WAUWM0BNT7KK7OY46DZ","72","0","UMBRELLA","0","5","1","1698","umbrella","0","2018-01-25 23:21:59","168941"
"AK8ONB60Q4RJ5","cs_wg_v10_pilot1","36AHBNMV1RDYTE6S6UILQB40N8WYDQ","7","0","HELICOPTER","0","5","0","2298","helicopter","0","2018-01-25 23:22:06","168942"
"AR4XFM7G1W0VQ","cs_wg_v10_pilot1","37C0GNLMHF4WAUWM0BNT7KK7OY46DZ","73","0","LADDER","10","5","0","1134","ladder","10","2018-01-25 23:22:06","168943"
"AR4XFM7G1W0VQ","cs_wg_v10_pilot1","37C0GNLMHF4WAUWM0BNT7KK7OY46DZ","74","0","LADDER","10","5","1","1575","ladder","10","2018-01-25 23:22:15","168944"
"AR4XFM7G1W0VQ","cs_wg_v10_pilot1","37C0GNLMHF4WAUWM0BNT7KK7OY46DZ","75","0","BASKET","9","5","1","1125","basket","9","2018-01-25 23:22:22","168945"
"AK8ONB60Q4RJ5","cs_wg_v10_pilot1","36AHBNMV1RDYTE6S6UILQB40N8WYDQ","8","0","STRUCTURE","0","5","0","2140","structure","0","2018-01-25 23:22:26","168946"
"AR4XFM7G1W0VQ","cs_wg_v10_pilot1","37C0GNLMHF4WAUWM0BNT7KK7OY46DZ","76","0","FOOTBALL","1","5","0","1132","football","1","2018-01-25 23:22:31","168947"
"AK8ONB60Q4RJ5","cs_wg_v10_pilot1","36AHBNMV1RDYTE6S6UILQB40N8WYDQ","9","0","LADDER","10","5","0","2989","ladder","10","2018-01-25 23:22:40","168948"
"AR4XFM7G1W0VQ","cs_wg_v10_pilot1","37C0GNLMHF4WAUWM0BNT7KK7OY46DZ","77","0","BOOKSHELF","0","5","0","2815","bookshelf","0","2018-01-25 23:22:42","168949"
"AR4XFM7G1W0VQ","cs_wg_v10_pilot1","37C0GNLMHF4WAUWM0BNT7KK7OY46DZ","78","0","DOORWAY","9","5","0","1670","doorway","9","2018-01-25 23:22:51","168950"
"AR4XFM7G1W0VQ","cs_wg_v10_pilot1","37C0GNLMHF4WAUWM0BNT7KK7OY46DZ","79","0","UMBRELLA","0","5","1","1750","umbrella","0","2018-01-25 23:22:59","168951"
"AK8ONB60Q4RJ5","cs_wg_v10_pilot1","36AHBNMV1RDYTE6S6UILQB40N8WYDQ","10","0","MACHINE","10","5","1","2024","machine","10","2018-01-25 23:23:02","168952"
"AR4XFM7G1W0VQ","cs_wg_v10_pilot1","37C0GNLMHF4WAUWM0BNT7KK7OY46DZ","80","0","KEYBOARD","10","5","0","1105","keyboard","10","2018-01-25 23:23:09","168953"
"AK8ONB60Q4RJ5","cs_wg_v10_pilot1","36AHBNMV1RDYTE6S6UILQB40N8WYDQ","11","0","BOOKSHELF","0","5","1","2810","bookshelf","0","2018-01-25 23:23:18","168954"
"AR4XFM7G1W0VQ","cs_wg_v10_pilot1","37C0GNLMHF4WAUWM0BNT7KK7OY46DZ","81","0","HELICOPTER","0","5","1","2530","helicopter","0","2018-01-25 23:23:19","168955"
"AR4XFM7G1W0VQ","cs_wg_v10_pilot1","37C0GNLMHF4WAUWM0BNT7KK7OY46DZ","82","0","TRAFFIC","10","5","0","1008","traffic","10","2018-01-25 23:23:27","168956"
"AK8ONB60Q4RJ5","cs_wg_v10_pilot1","36AHBNMV1RDYTE6S6UILQB40N8WYDQ","12","0","WEDDING","10","5","0","4827","wedding","10","2018-01-25 23:23:35","168957"
"AR4XFM7G1W0VQ","cs_wg_v10_pilot1","37C0GNLMHF4WAUWM0BNT7KK7OY46DZ","83","0","MACHINE","9","5","1","3191","machine","9","2018-01-25 23:23:36","168958"
"AR4XFM7G1W0VQ","cs_wg_v10_pilot1","37C0GNLMHF4WAUWM0BNT7KK7OY46DZ","84","0","TRAFFIC","10","5","0","2555","traffic","10","2018-01-25 23:23:46","168959"
"AK8ONB60Q4RJ5","cs_wg_v10_pilot1","36AHBNMV1RDYTE6S6UILQB40N8WYDQ","13","0","STOMACH","9","5","0","2647","stomach","9","2018-01-25 23:23:47","168960"
"AR4XFM7G1W0VQ","cs_wg_v10_pilot1","37C0GNLMHF4WAUWM0BNT7KK7OY46DZ","85","0","DOORWAY","9","5","1","2443","doorway","9","2018-01-25 23:23:55","168961"
"AK8ONB60Q4RJ5","cs_wg_v10_pilot1","36AHBNMV1RDYTE6S6UILQB40N8WYDQ","14","0","HELICOPTER","0","5","1","2497","helicopter","0","2018-01-25 23:24:02","168962"
"AR4XFM7G1W0VQ","cs_wg_v10_pilot1","37C0GNLMHF4WAUWM0BNT7KK7OY46DZ","86","0","BASKET","9","5","0","1564","basket","9","2018-01-25 23:24:02","168963"
"AR4XFM7G1W0VQ","cs_wg_v10_pilot1","37C0GNLMHF4WAUWM0BNT7KK7OY46DZ","87","0","STOMACH","1","5","1","2183","stomach","1","2018-01-25 23:24:11","168964"
"AK8ONB60Q4RJ5","cs_wg_v10_pilot1","36AHBNMV1RDYTE6S6UILQB40N8WYDQ","15","0","KEYBOARD","9","5","0","2207","keyboard","9","2018-01-25 23:24:15","168965"
"AR4XFM7G1W0VQ","cs_wg_v10_pilot1","37C0GNLMHF4WAUWM0BNT7KK7OY46DZ","88","0","WEDDING","0","5","1","1858","wedding","0","2018-01-25 23:24:21","168966"
"AK8ONB60Q4RJ5","cs_wg_v10_pilot1","36AHBNMV1RDYTE6S6UILQB40N8WYDQ","16","0","BASKET","1","5","0","1941","basket","1","2018-01-25 23:24:26","168967"
"AR4XFM7G1W0VQ","cs_wg_v10_pilot1","37C0GNLMHF4WAUWM0BNT7KK7OY46DZ","89","0","WEDDING","0","5","1","1791","wedding","0","2018-01-25 23:24:32","168968"
"AK8ONB60Q4RJ5","cs_wg_v10_pilot1","36AHBNMV1RDYTE6S6UILQB40N8WYDQ","17","0","HELICOPTER","0","5","0","2601","helicopter","0","2018-01-25 23:24:40","168969"
"AR4XFM7G1W0VQ","cs_wg_v10_pilot1","37C0GNLMHF4WAUWM0BNT7KK7OY46DZ","90","0","LADDER","10","5","0","1668","ladder","10","2018-01-25 23:24:45","168970"
"AR4XFM7G1W0VQ","cs_wg_v10_pilot1","37C0GNLMHF4WAUWM0BNT7KK7OY46DZ","91","0","HELICOPTER","0","5","1","2397","helicopter","0","2018-01-25 23:24:55","168971"
"AK8ONB60Q4RJ5","cs_wg_v10_pilot1","36AHBNMV1RDYTE6S6UILQB40N8WYDQ","18","0","HELICOPTER","0","5","0","3394","helicopter","0","2018-01-25 23:24:57","168972"
"AR4XFM7G1W0VQ","cs_wg_v10_pilot1","37C0GNLMHF4WAUWM0BNT7KK7OY46DZ","92","0","KEYBOARD","10","5","0","1242","keyboard","10","2018-01-25 23:25:04","168973"
"AK8ONB60Q4RJ5","cs_wg_v10_pilot1","36AHBNMV1RDYTE6S6UILQB40N8WYDQ","19","0","WEDDING","10","5","0","1906","wedding","10","2018-01-25 23:25:09","168974"
"AR4XFM7G1W0VQ","cs_wg_v10_pilot1","37C0GNLMHF4WAUWM0BNT7KK7OY46DZ","93","0","UMBRELLA","0","5","1","1516","umbrella","0","2018-01-25 23:25:13","168975"
"AR4XFM7G1W0VQ","cs_wg_v10_pilot1","37C0GNLMHF4WAUWM0BNT7KK7OY46DZ","94","0","STRUCTURE","1","5","1","2756","structure","1","2018-01-25 23:25:23","168976"
"AK8ONB60Q4RJ5","cs_wg_v10_pilot1","36AHBNMV1RDYTE6S6UILQB40N8WYDQ","20","0","MACHINE","10","5","0","4090","machine","10","2018-01-25 23:25:24","168977"
"AR4XFM7G1W0VQ","cs_wg_v10_pilot1","37C0GNLMHF4WAUWM0BNT7KK7OY46DZ","95","0","UMBRELLA","0","5","1","1332","umbrella","0","2018-01-25 23:25:30","168978"
"AK8ONB60Q4RJ5","cs_wg_v10_pilot1","36AHBNMV1RDYTE6S6UILQB40N8WYDQ","21","0","FOOTBALL","10","5","0","1712","football","10","2018-01-25 23:25:37","168979"
"AR4XFM7G1W0VQ","cs_wg_v10_pilot1","37C0GNLMHF4WAUWM0BNT7KK7OY46DZ","96","0","BOOKSHELF","0","5","1","3031","bookshelf","0","2018-01-25 23:25:39","168980"
"AR4XFM7G1W0VQ","cs_wg_v10_pilot1","37C0GNLMHF4WAUWM0BNT7KK7OY46DZ","97","0","HELICOPTER","0","5","1","1217","helicopter","0","2018-01-25 23:25:48","168981"
"AK8ONB60Q4RJ5","cs_wg_v10_pilot1","36AHBNMV1RDYTE6S6UILQB40N8WYDQ","22","0","STOMACH","9","5","1","2817","stomach","9","2018-01-25 23:25:50","168982"
"AR4XFM7G1W0VQ","cs_wg_v10_pilot1","37C0GNLMHF4WAUWM0BNT7KK7OY46DZ","98","0","DOORWAY","9","5","0","3241","doorway","9","2018-01-25 23:25:58","168983"
"AK8ONB60Q4RJ5","cs_wg_v10_pilot1","36AHBNMV1RDYTE6S6UILQB40N8WYDQ","23","0","COMMUNITY","9","5","0","2730","community","9","2018-01-25 23:26:05","168984"
"AR4XFM7G1W0VQ","cs_wg_v10_pilot1","37C0GNLMHF4WAUWM0BNT7KK7OY46DZ","99","0","MACHINE","9","5","1","2839","machine","9","2018-01-25 23:26:08","168985"
"AR4XFM7G1W0VQ","cs_wg_v10_pilot1","37C0GNLMHF4WAUWM0BNT7KK7OY46DZ","100","0","TRAFFIC","10","5","0","1012","traffic","10","2018-01-25 23:26:15","168986"
"AR4XFM7G1W0VQ","cs_wg_v10_pilot1","37C0GNLMHF4WAUWM0BNT7KK7OY46DZ","101","0","DOORWAY","9","5","0","2523","doorway","9","2018-01-25 23:26:24","168987"
"AK8ONB60Q4RJ5","cs_wg_v10_pilot1","36AHBNMV1RDYTE6S6UILQB40N8WYDQ","24","0","BOOKSHELF","0","5","1","3125","bookshelf","0","2018-01-25 23:26:29","168988"
"AR4XFM7G1W0VQ","cs_wg_v10_pilot1","37C0GNLMHF4WAUWM0BNT7KK7OY46DZ","102","0","STOMACH","1","5","1","1457","stomach","1","2018-01-25 23:26:33","168989"
"AK8ONB60Q4RJ5","cs_wg_v10_pilot1","36AHBNMV1RDYTE6S6UILQB40N8WYDQ","25","0","MACHINE","10","5","0","2553","machine","10","2018-01-25 23:26:41","168990"
"AR4XFM7G1W0VQ","cs_wg_v10_pilot1","37C0GNLMHF4WAUWM0BNT7KK7OY46DZ","103","0","TRAFFIC","10","5","0","1465","traffic","10","2018-01-25 23:26:43","168991"
"AR4XFM7G1W0VQ","cs_wg_v10_pilot1","37C0GNLMHF4WAUWM0BNT7KK7OY46DZ","104","0","TRAFFIC","10","5","0","2143","traffic","10","2018-01-25 23:26:52","168992"
"AK8ONB60Q4RJ5","cs_wg_v10_pilot1","36AHBNMV1RDYTE6S6UILQB40N8WYDQ","26","0","LADDER","10","5","0","2562","ladder","10","2018-01-25 23:26:54","168993"
"AR4XFM7G1W0VQ","cs_wg_v10_pilot1","37C0GNLMHF4WAUWM0BNT7KK7OY46DZ","105","0","STRUCTURE","1","5","1","1114","structure","1","2018-01-25 23:27:01","168994"
"AK8ONB60Q4RJ5","cs_wg_v10_pilot1","36AHBNMV1RDYTE6S6UILQB40N8WYDQ","27","0","DOORWAY","1","5","0","1789","doorway","1","2018-01-25 23:27:07","168995"
"AR4XFM7G1W0VQ","cs_wg_v10_pilot1","37C0GNLMHF4WAUWM0BNT7KK7OY46DZ","106","0","COMMUNITY","10","5","0","1252","community","10","2018-01-25 23:27:09","168996"
"AK8ONB60Q4RJ5","cs_wg_v10_pilot1","36AHBNMV1RDYTE6S6UILQB40N8WYDQ","28","0","STRUCTURE","0","5","0","1856","structure","0","2018-01-25 23:27:19","168997"
"AR4XFM7G1W0VQ","cs_wg_v10_pilot1","37C0GNLMHF4WAUWM0BNT7KK7OY46DZ","107","0","BOOKSHELF","0","5","1","2622","bookshelf","0","2018-01-25 23:27:20","168998"
"AR4XFM7G1W0VQ","cs_wg_v10_pilot1","37C0GNLMHF4WAUWM0BNT7KK7OY46DZ","108","0","STRUCTURE","1","5","1","1589","structure","1","2018-01-25 23:27:28","168999"
"AK8ONB60Q4RJ5","cs_wg_v10_pilot1","36AHBNMV1RDYTE6S6UILQB40N8WYDQ","29","0","STRUCTURE","0","5","1","1788","structure","0","2018-01-25 23:27:34","169000"
"AR4XFM7G1W0VQ","cs_wg_v10_pilot1","37C0GNLMHF4WAUWM0BNT7KK7OY46DZ","109","0","STRUCTURE","1","5","1","895","structure","1","2018-01-25 23:27:37","169001"
"AR4XFM7G1W0VQ","cs_wg_v10_pilot1","37C0GNLMHF4WAUWM0BNT7KK7OY46DZ","110","0","COMMUNITY","10","5","0","1156","community","10","2018-01-25 23:27:44","169002"
"AK8ONB60Q4RJ5","cs_wg_v10_pilot1","36AHBNMV1RDYTE6S6UILQB40N8WYDQ","30","0","DOORWAY","1","5","1","5800","doorway","1","2018-01-25 23:27:51","169003"
"AR4XFM7G1W0VQ","cs_wg_v10_pilot1","37C0GNLMHF4WAUWM0BNT7KK7OY46DZ","111","0","WEDDING","0","5","1","1614","wedding","0","2018-01-25 23:27:52","169004"
"AK8ONB60Q4RJ5","cs_wg_v10_pilot1","36AHBNMV1RDYTE6S6UILQB40N8WYDQ","31","0","FOOTBALL","10","5","0","1828","football","10","2018-01-25 23:28:07","169005"
"AK8ONB60Q4RJ5","cs_wg_v10_pilot1","36AHBNMV1RDYTE6S6UILQB40N8WYDQ","32","0","KEYBOARD","9","5","0","3399","keyboard","9","2018-01-25 23:28:20","169006"
"AK8ONB60Q4RJ5","cs_wg_v10_pilot1","36AHBNMV1RDYTE6S6UILQB40N8WYDQ","33","0","HELICOPTER","0","5","1","3266","helicopter","0","2018-01-25 23:28:34","169007"
"AK8ONB60Q4RJ5","cs_wg_v10_pilot1","36AHBNMV1RDYTE6S6UILQB40N8WYDQ","34","0","UMBRELLA","0","5","1","2220","umbrella","0","2018-01-25 23:28:46","169008"
"AK8ONB60Q4RJ5","cs_wg_v10_pilot1","36AHBNMV1RDYTE6S6UILQB40N8WYDQ","35","0","FOOTBALL","10","5","0","2184","football","10","2018-01-25 23:28:59","169009"
"AK8ONB60Q4RJ5","cs_wg_v10_pilot1","36AHBNMV1RDYTE6S6UILQB40N8WYDQ","36","0","TRAFFIC","1","5","0","2479","traffic","1","2018-01-25 23:29:12","169010"
"AK8ONB60Q4RJ5","cs_wg_v10_pilot1","36AHBNMV1RDYTE6S6UILQB40N8WYDQ","37","0","STRUCTURE","0","5","1","2540","structure","0","2018-01-25 23:29:32","169011"
"AK8ONB60Q4RJ5","cs_wg_v10_pilot1","36AHBNMV1RDYTE6S6UILQB40N8WYDQ","38","0","FOOTBALL","10","5","0","1791","football","10","2018-01-25 23:29:45","169012"
"AK8ONB60Q4RJ5","cs_wg_v10_pilot1","36AHBNMV1RDYTE6S6UILQB40N8WYDQ","39","0","STOMACH","9","5","0","2965","stomach","9","2018-01-25 23:30:02","169013"
"AK8ONB60Q4RJ5","cs_wg_v10_pilot1","36AHBNMV1RDYTE6S6UILQB40N8WYDQ","40","0","BASKET","1","5","0","2245","basket","1","2018-01-25 23:30:14","169014"
"AK8ONB60Q4RJ5","cs_wg_v10_pilot1","36AHBNMV1RDYTE6S6UILQB40N8WYDQ","41","0","WEDDING","10","5","0","2557","wedding","10","2018-01-25 23:30:29","169015"
"AK8ONB60Q4RJ5","cs_wg_v10_pilot1","36AHBNMV1RDYTE6S6UILQB40N8WYDQ","42","0","FOOTBALL","10","5","0","1857","football","10","2018-01-25 23:30:46","169016"
"AK8ONB60Q4RJ5","cs_wg_v10_pilot1","36AHBNMV1RDYTE6S6UILQB40N8WYDQ","43","0","UMBRELLA","0","5","1","1829","umbrella","0","2018-01-25 23:30:57","169017"
"AK8ONB60Q4RJ5","cs_wg_v10_pilot1","36AHBNMV1RDYTE6S6UILQB40N8WYDQ","44","0","KEYBOARD","9","5","0","2021","keyboard","9","2018-01-25 23:31:11","169018"
"AK8ONB60Q4RJ5","cs_wg_v10_pilot1","36AHBNMV1RDYTE6S6UILQB40N8WYDQ","45","0","UMBRELLA","0","5","1","9507","umbrella","0","2018-01-25 23:31:31","169019"
"AK8ONB60Q4RJ5","cs_wg_v10_pilot1","36AHBNMV1RDYTE6S6UILQB40N8WYDQ","46","0","BOOKSHELF","0","5","0","2240","bookshelf","0","2018-01-25 23:31:45","169020"
"AK8ONB60Q4RJ5","cs_wg_v10_pilot1","36AHBNMV1RDYTE6S6UILQB40N8WYDQ","47","0","KEYBOARD","9","5","0","1746","keyboard","9","2018-01-25 23:31:57","169021"
"AK8ONB60Q4RJ5","cs_wg_v10_pilot1","36AHBNMV1RDYTE6S6UILQB40N8WYDQ","48","0","HELICOPTER","0","5","1","2143","helicopter","0","2018-01-25 23:32:09","169022"
"AK8ONB60Q4RJ5","cs_wg_v10_pilot1","36AHBNMV1RDYTE6S6UILQB40N8WYDQ","49","0","TRAFFIC","1","5","0","1738","traffic","1","2018-01-25 23:32:22","169023"
"AK8ONB60Q4RJ5","cs_wg_v10_pilot1","36AHBNMV1RDYTE6S6UILQB40N8WYDQ","50","0","FOOTBALL","10","5","0","2992","football","10","2018-01-25 23:32:43","169024"
"AK8ONB60Q4RJ5","cs_wg_v10_pilot1","36AHBNMV1RDYTE6S6UILQB40N8WYDQ","51","0","STRUCTURE","0","5","1","2373","structure","0","2018-01-25 23:34:09","169025"
"AK8ONB60Q4RJ5","cs_wg_v10_pilot1","36AHBNMV1RDYTE6S6UILQB40N8WYDQ","52","0","STRUCTURE","0","5","1","1935","structure","0","2018-01-25 23:34:25","169026"
"AK8ONB60Q4RJ5","cs_wg_v10_pilot1","36AHBNMV1RDYTE6S6UILQB40N8WYDQ","53","0","BOOKSHELF","0","5","1","2683","bookshelf","0","2018-01-25 23:34:50","169027"
"AK8ONB60Q4RJ5","cs_wg_v10_pilot1","36AHBNMV1RDYTE6S6UILQB40N8WYDQ","54","0","STOMACH","9","5","1","3007","stomach","9","2018-01-25 23:35:16","169028"
"AK8ONB60Q4RJ5","cs_wg_v10_pilot1","36AHBNMV1RDYTE6S6UILQB40N8WYDQ","55","0","STOMACH","9","5","0","49572","stomach","9","2018-01-25 23:36:20","169029"
"AK8ONB60Q4RJ5","cs_wg_v10_pilot1","36AHBNMV1RDYTE6S6UILQB40N8WYDQ","56","0","FOOTBALL","10","5","0","14308","football","10","2018-01-25 23:36:46","169030"
"AK8ONB60Q4RJ5","cs_wg_v10_pilot1","36AHBNMV1RDYTE6S6UILQB40N8WYDQ","57","0","MACHINE","10","5","1","5952","machine","10","2018-01-25 23:37:12","169031"
"AK8ONB60Q4RJ5","cs_wg_v10_pilot1","36AHBNMV1RDYTE6S6UILQB40N8WYDQ","58","0","LADDER","10","5","1","2138","ladder","10","2018-01-25 23:37:36","169032"
"AK8ONB60Q4RJ5","cs_wg_v10_pilot1","36AHBNMV1RDYTE6S6UILQB40N8WYDQ","59","0","STRUCTURE","0","5","1","1951","structure","0","2018-01-25 23:37:50","169033"
"AK8ONB60Q4RJ5","cs_wg_v10_pilot1","36AHBNMV1RDYTE6S6UILQB40N8WYDQ","60","0","BASKET","1","5","0","2618","basket","1","2018-01-25 23:38:17","169034"
"AK8ONB60Q4RJ5","cs_wg_v10_pilot1","36AHBNMV1RDYTE6S6UILQB40N8WYDQ","61","0","DOORWAY","1","5","0","3327","doorway","1","2018-01-25 23:38:44","169035"
"AK8ONB60Q4RJ5","cs_wg_v10_pilot1","36AHBNMV1RDYTE6S6UILQB40N8WYDQ","62","0","COMMUNITY","9","5","0","2849","community","9","2018-01-25 23:39:05","169036"
"AK8ONB60Q4RJ5","cs_wg_v10_pilot1","36AHBNMV1RDYTE6S6UILQB40N8WYDQ","63","0","DOORWAY","1","5","1","6622","doorway","1","2018-01-25 23:39:27","169037"
"AK8ONB60Q4RJ5","cs_wg_v10_pilot1","36AHBNMV1RDYTE6S6UILQB40N8WYDQ","64","0","BASKET","1","5","1","2586","basket","1","2018-01-25 23:39:38","169038"
"AK8ONB60Q4RJ5","cs_wg_v10_pilot1","36AHBNMV1RDYTE6S6UILQB40N8WYDQ","65","0","UMBRELLA","0","5","1","2256","umbrella","0","2018-01-25 23:39:51","169039"
"AK8ONB60Q4RJ5","cs_wg_v10_pilot1","36AHBNMV1RDYTE6S6UILQB40N8WYDQ","66","0","BOOKSHELF","0","5","1","3422","bookshelf","0","2018-01-25 23:40:08","169040"
"AK8ONB60Q4RJ5","cs_wg_v10_pilot1","36AHBNMV1RDYTE6S6UILQB40N8WYDQ","67","0","TRAFFIC","1","5","1","7155","traffic","1","2018-01-25 23:41:03","169041"
"AK8ONB60Q4RJ5","cs_wg_v10_pilot1","36AHBNMV1RDYTE6S6UILQB40N8WYDQ","68","0","BOOKSHELF","0","5","1","3396","bookshelf","0","2018-01-25 23:41:19","169042"
"AK8ONB60Q4RJ5","cs_wg_v10_pilot1","36AHBNMV1RDYTE6S6UILQB40N8WYDQ","69","0","STOMACH","9","5","0","5424","stomach","9","2018-01-25 23:41:34","169043"
"AK8ONB60Q4RJ5","cs_wg_v10_pilot1","36AHBNMV1RDYTE6S6UILQB40N8WYDQ","70","0","WEDDING","10","5","0","6707","wedding","10","2018-01-25 23:42:10","169044"
"AK8ONB60Q4RJ5","cs_wg_v10_pilot1","36AHBNMV1RDYTE6S6UILQB40N8WYDQ","71","0","KEYBOARD","9","5","0","6981","keyboard","9","2018-01-25 23:42:44","169045"
"AK8ONB60Q4RJ5","cs_wg_v10_pilot1","36AHBNMV1RDYTE6S6UILQB40N8WYDQ","72","0","WEDDING","10","5","0","5387","wedding","10","2018-01-25 23:43:03","169046"
"A1RVMADIZE3BXK","cs_wg_v10_pilot1","33CID57104UGBNXWUQNJJUGSNG43L6","0","0","COMMUNITY","9","5","0","5572","COMMUNITY","9","2018-01-25 23:43:07","169047"
"AK8ONB60Q4RJ5","cs_wg_v10_pilot1","36AHBNMV1RDYTE6S6UILQB40N8WYDQ","73","0","COMMUNITY","9","5","0","5577","community","9","2018-01-25 23:43:19","169048"
"A1RVMADIZE3BXK","cs_wg_v10_pilot1","33CID57104UGBNXWUQNJJUGSNG43L6","1","0","KEYBOARD","0","5","0","3509","KEYBOARD","0","2018-01-25 23:43:21","169049"
"A1JVWOBGNA6KJT","cs_wg_v10_pilot1","3ZQIG0FLQEHGYQBEIE0RB0PRC70VWN","0","0","DOORWAY","1","5","1","4317","DOORWAY","1","2018-01-25 23:43:23","169050"
"A1RVMADIZE3BXK","cs_wg_v10_pilot1","33CID57104UGBNXWUQNJJUGSNG43L6","2","0","MACHINE","9","5","0","2612","MACHINE","9","2018-01-25 23:43:34","169051"
"AK8ONB60Q4RJ5","cs_wg_v10_pilot1","36AHBNMV1RDYTE6S6UILQB40N8WYDQ","74","0","COMMUNITY","9","5","0","1955","community","9","2018-01-25 23:43:35","169052"
"A1JVWOBGNA6KJT","cs_wg_v10_pilot1","3ZQIG0FLQEHGYQBEIE0RB0PRC70VWN","1","0","WEDDING","10","5","0","2802","WEDDING","5","2018-01-25 23:43:41","169053"
"A1RVMADIZE3BXK","cs_wg_v10_pilot1","33CID57104UGBNXWUQNJJUGSNG43L6","3","0","STOMACH","0","5","0","1656","STOMACH","0","2018-01-25 23:43:48","169054"
"AK8ONB60Q4RJ5","cs_wg_v10_pilot1","36AHBNMV1RDYTE6S6UILQB40N8WYDQ","75","0","TRAFFIC","1","5","1","5120","traffic","1","2018-01-25 23:43:52","169055"
"A1JVWOBGNA6KJT","cs_wg_v10_pilot1","3ZQIG0FLQEHGYQBEIE0RB0PRC70VWN","2","0","DOORWAY","1","5","1","3311","DOORWAY","1","2018-01-25 23:43:55","169056"
"A1RVMADIZE3BXK","cs_wg_v10_pilot1","33CID57104UGBNXWUQNJJUGSNG43L6","4","0","MACHINE","9","5","0","3751","MACHINE","9","2018-01-25 23:44:00","169057"
"AK8ONB60Q4RJ5","cs_wg_v10_pilot1","36AHBNMV1RDYTE6S6UILQB40N8WYDQ","76","0","WEDDING","10","5","0","1930","wedding","10","2018-01-25 23:44:04","169058"
"A1JVWOBGNA6KJT","cs_wg_v10_pilot1","3ZQIG0FLQEHGYQBEIE0RB0PRC70VWN","3","0","STOMACH","9","5","0","4070","STOMACH","9","2018-01-25 23:44:11","169059"
"A1RVMADIZE3BXK","cs_wg_v10_pilot1","33CID57104UGBNXWUQNJJUGSNG43L6","5","0","HELICOPTER","10","5","0","1721","HELICOPTER","10","2018-01-25 23:44:12","169060"
"A1JVWOBGNA6KJT","cs_wg_v10_pilot1","3ZQIG0FLQEHGYQBEIE0RB0PRC70VWN","4","0","KEYBOARD","1","5","0","1938","KEYBOARD","1","2018-01-25 23:44:21","169061"
"A1RVMADIZE3BXK","cs_wg_v10_pilot1","33CID57104UGBNXWUQNJJUGSNG43L6","6","0","DOORWAY","0","5","0","2363","DOORWAY","0","2018-01-25 23:44:24","169062"
"A1JVWOBGNA6KJT","cs_wg_v10_pilot1","3ZQIG0FLQEHGYQBEIE0RB0PRC70VWN","5","0","LADDER","9","5","0","2816","LADDER","9","2018-01-25 23:44:32","169063"
"AK8ONB60Q4RJ5","cs_wg_v10_pilot1","36AHBNMV1RDYTE6S6UILQB40N8WYDQ","77","0","DOORWAY","1","5","0","4664","doorway","1","2018-01-25 23:44:32","169064"
"A1RVMADIZE3BXK","cs_wg_v10_pilot1","33CID57104UGBNXWUQNJJUGSNG43L6","7","0","FOOTBALL","10","5","0","1320","FOOTBALL","10","2018-01-25 23:44:34","169065"
"A1JVWOBGNA6KJT","cs_wg_v10_pilot1","3ZQIG0FLQEHGYQBEIE0RB0PRC70VWN","6","0","DOORWAY","1","5","1","2003","DOORWAY","1","2018-01-25 23:44:41","169066"
"A1RVMADIZE3BXK","cs_wg_v10_pilot1","33CID57104UGBNXWUQNJJUGSNG43L6","8","0","FOOTBALL","10","5","0","1006","FOOTBALL","10","2018-01-25 23:44:43","169067"
"A1JVWOBGNA6KJT","cs_wg_v10_pilot1","3ZQIG0FLQEHGYQBEIE0RB0PRC70VWN","7","0","TRAFFIC","0","5","0","1581","TRAFFIC","0","2018-01-25 23:44:51","169068"
"AK8ONB60Q4RJ5","cs_wg_v10_pilot1","36AHBNMV1RDYTE6S6UILQB40N8WYDQ","78","0","MACHINE","10","5","0","8286","machine","10","2018-01-25 23:44:51","169069"
"A1RVMADIZE3BXK","cs_wg_v10_pilot1","33CID57104UGBNXWUQNJJUGSNG43L6","9","0","KEYBOARD","0","5","1","4345","KEYBOARD","0","2018-01-25 23:44:58","169070"
"A1JVWOBGNA6KJT","cs_wg_v10_pilot1","3ZQIG0FLQEHGYQBEIE0RB0PRC70VWN","8","0","STRUCTURE","10","5","0","1506","STRUCTURE","10","2018-01-25 23:45:01","169071"
"AK8ONB60Q4RJ5","cs_wg_v10_pilot1","36AHBNMV1RDYTE6S6UILQB40N8WYDQ","79","0","DOORWAY","1","5","1","1682","doorway","1","2018-01-25 23:45:02","169072"
"A1JVWOBGNA6KJT","cs_wg_v10_pilot1","3ZQIG0FLQEHGYQBEIE0RB0PRC70VWN","9","0","COMMUNITY","1","5","0","1285","COMMUNITY","1","2018-01-25 23:45:10","169073"
"A1RVMADIZE3BXK","cs_wg_v10_pilot1","33CID57104UGBNXWUQNJJUGSNG43L6","10","0","HELICOPTER","10","5","0","6872","HELICOPTER","10","2018-01-25 23:45:16","169074"
"A1RVMADIZE3BXK","cs_wg_v10_pilot1","33CID57104UGBNXWUQNJJUGSNG43L6","11","0","STOMACH","0","5","1","4910","STOMACH","0","2018-01-25 23:45:28","169075"
"A1JVWOBGNA6KJT","cs_wg_v10_pilot1","3ZQIG0FLQEHGYQBEIE0RB0PRC70VWN","10","0","COMMUNITY","1","5","1","6223","COMMUNITY","1","2018-01-25 23:45:30","169076"
"A1RVMADIZE3BXK","cs_wg_v10_pilot1","33CID57104UGBNXWUQNJJUGSNG43L6","12","0","UMBRELLA","10","5","0","1051","UMBRELLA","10","2018-01-25 23:45:39","169077"
"A1JVWOBGNA6KJT","cs_wg_v10_pilot1","3ZQIG0FLQEHGYQBEIE0RB0PRC70VWN","11","0","FOOTBALL","0","5","0","1270","FOOTBALL","0","2018-01-25 23:45:41","169078"
"A1RVMADIZE3BXK","cs_wg_v10_pilot1","33CID57104UGBNXWUQNJJUGSNG43L6","13","0","BASKET","1","5","0","1110","BASKET","1","2018-01-25 23:45:48","169079"
"AK8ONB60Q4RJ5","cs_wg_v10_pilot1","36AHBNMV1RDYTE6S6UILQB40N8WYDQ","80","0","BASKET","1","5","0","38012","basket","1","2018-01-25 23:45:49","169080"
"A1JVWOBGNA6KJT","cs_wg_v10_pilot1","3ZQIG0FLQEHGYQBEIE0RB0PRC70VWN","12","0","KEYBOARD","1","5","1","2608","KEYBOARD","1","2018-01-25 23:45:53","169081"
"AK8ONB60Q4RJ5","cs_wg_v10_pilot1","36AHBNMV1RDYTE6S6UILQB40N8WYDQ","81","0","BASKET","1","5","1","1797","basket","1","2018-01-25 23:46:00","169082"
"A1JVWOBGNA6KJT","cs_wg_v10_pilot1","3ZQIG0FLQEHGYQBEIE0RB0PRC70VWN","13","0","KEYBOARD","1","5","1","1550","KEYBOARD","1","2018-01-25 23:46:01","169083"
"A1RVMADIZE3BXK","cs_wg_v10_pilot1","33CID57104UGBNXWUQNJJUGSNG43L6","14","0","BASKET","1","5","0","4757","BASKET","1","2018-01-25 23:46:03","169084"
"A1JVWOBGNA6KJT","cs_wg_v10_pilot1","3ZQIG0FLQEHGYQBEIE0RB0PRC70VWN","14","0","UMBRELLA","10","5","0","1103","UMBRELLA","10","2018-01-25 23:46:12","169085"
"A1RVMADIZE3BXK","cs_wg_v10_pilot1","33CID57104UGBNXWUQNJJUGSNG43L6","15","0","HELICOPTER","10","5","0","1521","HELICOPTER","10","2018-01-25 23:46:13","169086"
"AK8ONB60Q4RJ5","cs_wg_v10_pilot1","36AHBNMV1RDYTE6S6UILQB40N8WYDQ","82","0","WEDDING","10","5","0","1251","wedding","10","2018-01-25 23:46:14","169087"
"A1RVMADIZE3BXK","cs_wg_v10_pilot1","33CID57104UGBNXWUQNJJUGSNG43L6","16","0","LADDER","10","5","0","1180","LADDER","10","2018-01-25 23:46:24","169088"
"A1JVWOBGNA6KJT","cs_wg_v10_pilot1","3ZQIG0FLQEHGYQBEIE0RB0PRC70VWN","15","0","FOOTBALL","0","5","1","3399","FOOTBALL","0","2018-01-25 23:46:25","169089"
"A1JVWOBGNA6KJT","cs_wg_v10_pilot1","3ZQIG0FLQEHGYQBEIE0RB0PRC70VWN","16","0","MACHINE","0","5","0","1776","MACHINE","0","2018-01-25 23:46:34","169090"
"AK8ONB60Q4RJ5","cs_wg_v10_pilot1","36AHBNMV1RDYTE6S6UILQB40N8WYDQ","83","0","KEYBOARD","9","5","0","2160","keyboard","9","2018-01-25 23:46:36","169091"
"A1JVWOBGNA6KJT","cs_wg_v10_pilot1","3ZQIG0FLQEHGYQBEIE0RB0PRC70VWN","17","0","KEYBOARD","1","5","1","1332","KEYBOARD","1","2018-01-25 23:46:44","169092"
"A1RVMADIZE3BXK","cs_wg_v10_pilot1","33CID57104UGBNXWUQNJJUGSNG43L6","17","0","WEDDING","1","5","0","7786","WEDDING","1","2018-01-25 23:46:45","169093"
"AK8ONB60Q4RJ5","cs_wg_v10_pilot1","36AHBNMV1RDYTE6S6UILQB40N8WYDQ","84","0","COMMUNITY","9","5","0","2118","community","9","2018-01-25 23:46:51","169094"
"A1JVWOBGNA6KJT","cs_wg_v10_pilot1","3ZQIG0FLQEHGYQBEIE0RB0PRC70VWN","18","0","TRAFFIC","0","5","1","2743","TRAFFIC","0","2018-01-25 23:46:54","169095"
"A1RVMADIZE3BXK","cs_wg_v10_pilot1","33CID57104UGBNXWUQNJJUGSNG43L6","18","0","BOOKSHELF","1","5","0","1276","BOOKSHELF","1","2018-01-25 23:46:55","169096"
"A1JVWOBGNA6KJT","cs_wg_v10_pilot1","3ZQIG0FLQEHGYQBEIE0RB0PRC70VWN","19","0","HELICOPTER","10","5","0","1899","HELICOPTER","10","2018-01-25 23:47:06","169097"
"AK8ONB60Q4RJ5","cs_wg_v10_pilot1","36AHBNMV1RDYTE6S6UILQB40N8WYDQ","85","0","COMMUNITY","9","5","0","5881","community","9","2018-01-25 23:47:08","169098"
"A1RVMADIZE3BXK","cs_wg_v10_pilot1","33CID57104UGBNXWUQNJJUGSNG43L6","19","0","COMMUNITY","9","5","0","4039","COMMUNITY","9","2018-01-25 23:47:10","169099"
"A1JVWOBGNA6KJT","cs_wg_v10_pilot1","3ZQIG0FLQEHGYQBEIE0RB0PRC70VWN","20","0","BOOKSHELF","9","5","0","2505","BOOKSHELF","9","2018-01-25 23:47:15","169100"
"A1RVMADIZE3BXK","cs_wg_v10_pilot1","33CID57104UGBNXWUQNJJUGSNG43L6","20","0","BOOKSHELF","1","5","1","5469","BOOKSHELF","1","2018-01-25 23:47:24","169101"
"A1JVWOBGNA6KJT","cs_wg_v10_pilot1","3ZQIG0FLQEHGYQBEIE0RB0PRC70VWN","21","0","TRAFFIC","0","5","1","1546","TRAFFIC","0","2018-01-25 23:47:24","169102"
"AK8ONB60Q4RJ5","cs_wg_v10_pilot1","36AHBNMV1RDYTE6S6UILQB40N8WYDQ","86","0","DOORWAY","1","5","1","2122","doorway","1","2018-01-25 23:47:27","169103"
"A1JVWOBGNA6KJT","cs_wg_v10_pilot1","3ZQIG0FLQEHGYQBEIE0RB0PRC70VWN","22","0","STRUCTURE","10","5","0","1566","STRUCTURE","10","2018-01-25 23:47:34","169104"
"A1RVMADIZE3BXK","cs_wg_v10_pilot1","33CID57104UGBNXWUQNJJUGSNG43L6","21","0","BOOKSHELF","1","5","1","3885","BOOKSHELF","1","2018-01-25 23:47:37","169105"
"A1JVWOBGNA6KJT","cs_wg_v10_pilot1","3ZQIG0FLQEHGYQBEIE0RB0PRC70VWN","23","0","LADDER","9","5","1","4429","LADDER","9","2018-01-25 23:47:46","169106"
"A1RVMADIZE3BXK","cs_wg_v10_pilot1","33CID57104UGBNXWUQNJJUGSNG43L6","22","0","TRAFFIC","0","5","0","1385","TRAFFIC","0","2018-01-25 23:47:47","169107"
"A1JVWOBGNA6KJT","cs_wg_v10_pilot1","3ZQIG0FLQEHGYQBEIE0RB0PRC70VWN","24","0","HELICOPTER","10","5","0","1793","HELICOPTER","10","2018-01-25 23:47:56","169108"
"A1RVMADIZE3BXK","cs_wg_v10_pilot1","33CID57104UGBNXWUQNJJUGSNG43L6","23","0","WEDDING","1","5","1","2573","WEDDING","1","2018-01-25 23:47:58","169109"
"A1JVWOBGNA6KJT","cs_wg_v10_pilot1","3ZQIG0FLQEHGYQBEIE0RB0PRC70VWN","25","0","TRAFFIC","0","5","1","2370","TRAFFIC","0","2018-01-25 23:48:05","169110"
"A1RVMADIZE3BXK","cs_wg_v10_pilot1","33CID57104UGBNXWUQNJJUGSNG43L6","24","0","TRAFFIC","0","5","1","2820","TRAFFIC","0","2018-01-25 23:48:12","169111"
"A1JVWOBGNA6KJT","cs_wg_v10_pilot1","3ZQIG0FLQEHGYQBEIE0RB0PRC70VWN","26","0","DOORWAY","1","5","0","1800","DOORWAY","1","2018-01-25 23:48:14","169112"
"A1RVMADIZE3BXK","cs_wg_v10_pilot1","33CID57104UGBNXWUQNJJUGSNG43L6","25","0","WEDDING","1","5","1","1760","WEDDING","1","2018-01-25 23:48:22","169113"
"A1JVWOBGNA6KJT","cs_wg_v10_pilot1","3ZQIG0FLQEHGYQBEIE0RB0PRC70VWN","27","0","LADDER","9","5","0","4348","LADDER","9","2018-01-25 23:48:25","169114"
"A1RVMADIZE3BXK","cs_wg_v10_pilot1","33CID57104UGBNXWUQNJJUGSNG43L6","26","0","MACHINE","9","5","0","1992","MACHINE","9","2018-01-25 23:48:31","169115"
"A1JVWOBGNA6KJT","cs_wg_v10_pilot1","3ZQIG0FLQEHGYQBEIE0RB0PRC70VWN","28","0","UMBRELLA","10","5","0","2562","UMBRELLA ","10","2018-01-25 23:48:35","169116"
"A1RVMADIZE3BXK","cs_wg_v10_pilot1","33CID57104UGBNXWUQNJJUGSNG43L6","27","0","UMBRELLA","10","5","1","2946","UMBRELLA","10","2018-01-25 23:48:43","169117"
"A1JVWOBGNA6KJT","cs_wg_v10_pilot1","3ZQIG0FLQEHGYQBEIE0RB0PRC70VWN","29","0","COMMUNITY","1","5","0","4784","COMMUNITY","1","2018-01-25 23:48:45","169118"
"A1RVMADIZE3BXK","cs_wg_v10_pilot1","33CID57104UGBNXWUQNJJUGSNG43L6","28","0","DOORWAY","0","5","0","1295","DOORWAY","0","2018-01-25 23:48:54","169119"
"AK8ONB60Q4RJ5","cs_wg_v10_pilot1","36AHBNMV1RDYTE6S6UILQB40N8WYDQ","87","0","MACHINE","10","5","0","78380","machine","10","2018-01-25 23:48:57","169120"
"A1JVWOBGNA6KJT","cs_wg_v10_pilot1","3ZQIG0FLQEHGYQBEIE0RB0PRC70VWN","30","0","BASKET","0","5","0","4105","BASKET","0","2018-01-25 23:48:57","169121"
"A1RVMADIZE3BXK","cs_wg_v10_pilot1","33CID57104UGBNXWUQNJJUGSNG43L6","29","0","FOOTBALL","10","5","0","1407","FOOTBALL","10","2018-01-25 23:49:03","169122"
"A1JVWOBGNA6KJT","cs_wg_v10_pilot1","3ZQIG0FLQEHGYQBEIE0RB0PRC70VWN","31","0","STRUCTURE","10","5","0","1665","STRUCTURE ","10","2018-01-25 23:49:06","169123"
"AK8ONB60Q4RJ5","cs_wg_v10_pilot1","36AHBNMV1RDYTE6S6UILQB40N8WYDQ","88","0","HELICOPTER","0","5","1","2650","helicopter","0","2018-01-25 23:49:10","169124"
"A1RVMADIZE3BXK","cs_wg_v10_pilot1","33CID57104UGBNXWUQNJJUGSNG43L6","30","0","BOOKSHELF","1","5","0","2458","BOOKSHELF","1","2018-01-25 23:49:14","169125"
"A1JVWOBGNA6KJT","cs_wg_v10_pilot1","3ZQIG0FLQEHGYQBEIE0RB0PRC70VWN","32","0","LADDER","9","5","0","1305","LADDER ","9","2018-01-25 23:49:15","169126"
"AK8ONB60Q4RJ5","cs_wg_v10_pilot1","36AHBNMV1RDYTE6S6UILQB40N8WYDQ","89","0","TRAFFIC","1","5","1","1809","traffic","1","2018-01-25 23:49:22","169127"
"A1RVMADIZE3BXK","cs_wg_v10_pilot1","33CID57104UGBNXWUQNJJUGSNG43L6","31","0","TRAFFIC","0","5","1","2582","TRAFFIC","0","2018-01-25 23:49:24","169128"
"A1JVWOBGNA6KJT","cs_wg_v10_pilot1","3ZQIG0FLQEHGYQBEIE0RB0PRC70VWN","33","0","DOORWAY","1","5","1","3276","DOORWAY","1","2018-01-25 23:49:26","169129"
"A1RVMADIZE3BXK","cs_wg_v10_pilot1","33CID57104UGBNXWUQNJJUGSNG43L6","32","0","DOORWAY","0","5","1","2632","DOORWAY","0","2018-01-25 23:49:35","169130"
"A1JVWOBGNA6KJT","cs_wg_v10_pilot1","3ZQIG0FLQEHGYQBEIE0RB0PRC70VWN","34","0","BOOKSHELF","9","5","0","1223","BOOKSHELF ","9","2018-01-25 23:49:36","169131"
"AK8ONB60Q4RJ5","cs_wg_v10_pilot1","36AHBNMV1RDYTE6S6UILQB40N8WYDQ","90","0","HELICOPTER","0","5","1","4051","helicopter","0","2018-01-25 23:49:38","169132"
"A1RVMADIZE3BXK","cs_wg_v10_pilot1","33CID57104UGBNXWUQNJJUGSNG43L6","33","0","COMMUNITY","9","5","0","1809","COMMUNITY","9","2018-01-25 23:49:44","169133"
"A1JVWOBGNA6KJT","cs_wg_v10_pilot1","3ZQIG0FLQEHGYQBEIE0RB0PRC70VWN","35","0","WEDDING","10","5","0","865","WEDDING ","10","2018-01-25 23:49:45","169134"
"AK8ONB60Q4RJ5","cs_wg_v10_pilot1","36AHBNMV1RDYTE6S6UILQB40N8WYDQ","91","0","LADDER","10","5","0","2142","ladder","10","2018-01-25 23:49:49","169135"
"A1JVWOBGNA6KJT","cs_wg_v10_pilot1","3ZQIG0FLQEHGYQBEIE0RB0PRC70VWN","36","0","DOORWAY","1","5","1","1716","DOORWAY ","1","2018-01-25 23:49:54","169136"
"A1RVMADIZE3BXK","cs_wg_v10_pilot1","33CID57104UGBNXWUQNJJUGSNG43L6","34","0","COMMUNITY","9","5","0","6323","COMMUNITY","9","2018-01-25 23:49:58","169137"
"AK8ONB60Q4RJ5","cs_wg_v10_pilot1","36AHBNMV1RDYTE6S6UILQB40N8WYDQ","92","0","TRAFFIC","1","5","0","4405","traffic","1","2018-01-25 23:50:05","169138"
"A1RVMADIZE3BXK","cs_wg_v10_pilot1","33CID57104UGBNXWUQNJJUGSNG43L6","35","0","COMMUNITY","9","5","0","8387","COMMUNITY","9","2018-01-25 23:50:13","169139"
"A1RVMADIZE3BXK","cs_wg_v10_pilot1","33CID57104UGBNXWUQNJJUGSNG43L6","36","0","BASKET","1","5","0","1356","BASKET","1","2018-01-25 23:50:24","169140"
"AK8ONB60Q4RJ5","cs_wg_v10_pilot1","36AHBNMV1RDYTE6S6UILQB40N8WYDQ","93","0","UMBRELLA","0","5","1","5596","umbrella","0","2018-01-25 23:50:25","169141"
"A1RVMADIZE3BXK","cs_wg_v10_pilot1","33CID57104UGBNXWUQNJJUGSNG43L6","37","0","STOMACH","0","5","0","1107","STOMACH","0","2018-01-25 23:50:32","169142"
"AK8ONB60Q4RJ5","cs_wg_v10_pilot1","36AHBNMV1RDYTE6S6UILQB40N8WYDQ","94","0","TRAFFIC","1","5","1","3779","traffic","1","2018-01-25 23:50:38","169143"
"A1JVWOBGNA6KJT","cs_wg_v10_pilot1","3ZQIG0FLQEHGYQBEIE0RB0PRC70VWN","37","0","HELICOPTER","10","5","0","703","HELICOPTER ","10","2018-01-25 23:50:42","169144"
"A1RVMADIZE3BXK","cs_wg_v10_pilot1","33CID57104UGBNXWUQNJJUGSNG43L6","38","0","DOORWAY","0","5","1","2911","DOORWAY","0","2018-01-25 23:50:43","169145"
"AK8ONB60Q4RJ5","cs_wg_v10_pilot1","36AHBNMV1RDYTE6S6UILQB40N8WYDQ","95","0","KEYBOARD","9","5","0","1495","keyboard","9","2018-01-25 23:50:49","169146"
"A1JVWOBGNA6KJT","cs_wg_v10_pilot1","3ZQIG0FLQEHGYQBEIE0RB0PRC70VWN","38","0","KEYBOARD","1","5","0","1448","KEYBOARD ","1","2018-01-25 23:50:49","169147"
"A1RVMADIZE3BXK","cs_wg_v10_pilot1","33CID57104UGBNXWUQNJJUGSNG43L6","39","0","STOMACH","0","5","1","1432","STOMACH","0","2018-01-25 23:50:51","169148"
"A1JVWOBGNA6KJT","cs_wg_v10_pilot1","3ZQIG0FLQEHGYQBEIE0RB0PRC70VWN","39","0","KEYBOARD","1","5","1","2307","KEYBOARD ","1","2018-01-25 23:50:59","169149"
"AK8ONB60Q4RJ5","cs_wg_v10_pilot1","36AHBNMV1RDYTE6S6UILQB40N8WYDQ","96","0","STOMACH","9","5","0","2219","stomach","9","2018-01-25 23:51:01","169150"
"A1RVMADIZE3BXK","cs_wg_v10_pilot1","33CID57104UGBNXWUQNJJUGSNG43L6","40","0","STOMACH","0","5","1","1831","STOMACH","0","2018-01-25 23:51:02","169151"
"A1RVMADIZE3BXK","cs_wg_v10_pilot1","33CID57104UGBNXWUQNJJUGSNG43L6","41","0","KEYBOARD","0","5","0","1175","KEYBOARD","0
0","2018-01-25 23:51:13","169152"
"AK8ONB60Q4RJ5","cs_wg_v10_pilot1","36AHBNMV1RDYTE6S6UILQB40N8WYDQ","97","0","KEYBOARD","9","5","0","1423","keyboard","9","2018-01-25 23:51:13","169153"
"A1RVMADIZE3BXK","cs_wg_v10_pilot1","33CID57104UGBNXWUQNJJUGSNG43L6","42","0","MACHINE","9","5","0","1280","MACHINE","9","2018-01-25 23:51:21","169154"
"AK8ONB60Q4RJ5","cs_wg_v10_pilot1","36AHBNMV1RDYTE6S6UILQB40N8WYDQ","98","0","MACHINE","10","5","0","1768","machine","10","2018-01-25 23:51:24","169155"
"A1RVMADIZE3BXK","cs_wg_v10_pilot1","33CID57104UGBNXWUQNJJUGSNG43L6","43","0","UMBRELLA","10","5","1","1409","UMBRELLA","10","2018-01-25 23:51:31","169156"
"AK8ONB60Q4RJ5","cs_wg_v10_pilot1","36AHBNMV1RDYTE6S6UILQB40N8WYDQ","99","0","MACHINE","10","5","0","1778","machine","10","2018-01-25 23:51:34","169157"
"A1RVMADIZE3BXK","cs_wg_v10_pilot1","33CID57104UGBNXWUQNJJUGSNG43L6","44","0","HELICOPTER","10","5","0","1210","HELICOPTER","10","2018-01-25 23:51:41","169158"
"AK8ONB60Q4RJ5","cs_wg_v10_pilot1","36AHBNMV1RDYTE6S6UILQB40N8WYDQ","100","0","BASKET","1","5","0","2707","basket","1","2018-01-25 23:51:45","169159"
"A1RVMADIZE3BXK","cs_wg_v10_pilot1","33CID57104UGBNXWUQNJJUGSNG43L6","45","0","FOOTBALL","10","5","0","1058","FOOTBALL","10","2018-01-25 23:51:49","169160"
"A1RVMADIZE3BXK","cs_wg_v10_pilot1","33CID57104UGBNXWUQNJJUGSNG43L6","46","0","MACHINE","9","5","0","4756","MACHINE","9","2018-01-25 23:52:01","169161"
"AK8ONB60Q4RJ5","cs_wg_v10_pilot1","36AHBNMV1RDYTE6S6UILQB40N8WYDQ","101","0","FOOTBALL","10","5","0","1456","football","10","2018-01-25 23:52:05","169162"
"A1RVMADIZE3BXK","cs_wg_v10_pilot1","33CID57104UGBNXWUQNJJUGSNG43L6","47","0","STRUCTURE","9","5","0","1580","STRUCTURE","9","2018-01-25 23:52:11","169163"
"AK8ONB60Q4RJ5","cs_wg_v10_pilot1","36AHBNMV1RDYTE6S6UILQB40N8WYDQ","102","0","UMBRELLA","0","5","1","2277","umbrella","0","2018-01-25 23:52:18","169164"
"A1RVMADIZE3BXK","cs_wg_v10_pilot1","33CID57104UGBNXWUQNJJUGSNG43L6","48","0","STRUCTURE","9","5","0","1850","STRUCTURE","9","2018-01-25 23:52:23","169165"
"A1RVMADIZE3BXK","cs_wg_v10_pilot1","33CID57104UGBNXWUQNJJUGSNG43L6","49","0","WEDDING","1","5","1","1330","WEDDING","1","2018-01-25 23:52:32","169166"
"AK8ONB60Q4RJ5","cs_wg_v10_pilot1","36AHBNMV1RDYTE6S6UILQB40N8WYDQ","103","0","LADDER","10","5","0","1774","ladder","10","2018-01-25 23:52:40","169167"
"A1RVMADIZE3BXK","cs_wg_v10_pilot1","33CID57104UGBNXWUQNJJUGSNG43L6","50","0","STRUCTURE","9","5","0","1318","STRUCTURE","9","2018-01-25 23:52:41","169168"
"A1RVMADIZE3BXK","cs_wg_v10_pilot1","33CID57104UGBNXWUQNJJUGSNG43L6","51","0","WEDDING","1","5","1","1126","WEDDING","1","2018-01-25 23:52:52","169169"
"AK8ONB60Q4RJ5","cs_wg_v10_pilot1","36AHBNMV1RDYTE6S6UILQB40N8WYDQ","104","0","LADDER","10","5","0","2202","ladder","10","2018-01-25 23:52:53","169170"
"A1RVMADIZE3BXK","cs_wg_v10_pilot1","33CID57104UGBNXWUQNJJUGSNG43L6","52","0","TRAFFIC","0","5","0","2162","TRAFFIC","0","2018-01-25 23:53:01","169171"
"A1JVWOBGNA6KJT","cs_wg_v10_pilot1","3ZQIG0FLQEHGYQBEIE0RB0PRC70VWN","40","0","BOOKSHELF","9","5","0","99278","BOOKSHELF","9","2018-01-25 23:53:04","169172"
"A1RVMADIZE3BXK","cs_wg_v10_pilot1","33CID57104UGBNXWUQNJJUGSNG43L6","53","0","WEDDING","1","5","1","1138","WEDDING","1","2018-01-25 23:53:10","169173"
"AK8ONB60Q4RJ5","cs_wg_v10_pilot1","36AHBNMV1RDYTE6S6UILQB40N8WYDQ","105","0","DOORWAY","1","5","1","5511","doorway","1","2018-01-25 23:53:11","169174"
"A1JVWOBGNA6KJT","cs_wg_v10_pilot1","3ZQIG0FLQEHGYQBEIE0RB0PRC70VWN","41","0","TRAFFIC","0","5","0","1047","TRAFFIC ","0","2018-01-25 23:53:11","169175"
