"subject","version","assignmentId","trial","trial_type","word","value","alt","choice","rt","resp","resp2","stamp","id"
"A28AZTW9BRRPBL","cs_wg_full_v3_real1","34Q075JO1XE74OUVITNHXH98N7Z017","0","0","RABBIT","5","6","1","4899","Rabbit","5","2018-06-30 15:58:15","338611"
"A1KUXDQ9VECR4V","cs_wg_full_v3_real1","3Y5140Z9DXHLSBUD7LND4HR2CHLPIU","0","0","CRICKET","15","6","0","7174","cricket","16","2018-06-30 15:58:18","338612"
"A28AZTW9BRRPBL","cs_wg_full_v3_real1","34Q075JO1XE74OUVITNHXH98N7Z017","1","0","RABBIT","5","6","1","4758","rabbit","5","2018-06-30 15:58:29","338613"
"A1KUXDQ9VECR4V","cs_wg_full_v3_real1","3Y5140Z9DXHLSBUD7LND4HR2CHLPIU","1","0","CRICKET","15","6","1","3025","cricket ","6","2018-06-30 15:58:34","338614"
"A28AZTW9BRRPBL","cs_wg_full_v3_real1","34Q075JO1XE74OUVITNHXH98N7Z017","2","0","AIRBAG","5","6","0","1564","airbag","5","2018-06-30 15:58:39","338615"
"AL337BAZEBO6C","cs_wg_full_v3_real1","3ITXP059PWKE0EUBHKC7BNBDCGHSJP","0","0","BAMBOO","6","6","0","6362","bamboo","6","2018-06-30 15:58:49","338616"
"A37UEMTX8CZFEK","cs_wg_full_v3_real1","3R0T90IZ1SDO2VFECS14Z5FFYLEGCF","0","0","POTATO","7","6","1","7641","potato","7","2018-06-30 15:58:50","338617"
"A28AZTW9BRRPBL","cs_wg_full_v3_real1","34Q075JO1XE74OUVITNHXH98N7Z017","3","0","PICTURE","6","6","1","1336","picture","6","2018-06-30 15:58:50","338618"
"A1KUXDQ9VECR4V","cs_wg_full_v3_real1","3Y5140Z9DXHLSBUD7LND4HR2CHLPIU","2","0","COMPANY","6","6","1","1981","company","6
6","2018-06-30 15:58:52","338619"
"ANZNAAS2K0DSY","cs_wg_full_v3_real1","3R2UR8A0IAH0X677R7AZIR9RQPTXOL","0","0","BASKET","15","6","0","4499","bASKET","15","2018-06-30 15:59:01","338620"
"A25AQVQ1NAY36D","cs_wg_full_v3_real1","3L70J4KAZGNXXW8PQO45NPMULQDDA0","0","0","TOMATO","5","6","1","7473","tomato","6","2018-06-30 15:59:04","338621"
"A28AZTW9BRRPBL","cs_wg_full_v3_real1","34Q075JO1XE74OUVITNHXH98N7Z017","4","0","ISLAND","7","6","1","1925","island ","7
7","2018-06-30 15:59:05","338622"
"A37UEMTX8CZFEK","cs_wg_full_v3_real1","3R0T90IZ1SDO2VFECS14Z5FFYLEGCF","1","0","BASKET","1","6","1","3902","basket","1","2018-06-30 15:59:06","338623"
"A291OPFZ41D6CE","cs_wg_full_v3_real1","3DEL4X4EL6MCRKB9XUJXKI7T4ZSXYW","0","0","WIZARD","5","6","0","4034","wizard","5","2018-06-30 15:59:07","338624"
"A1KUXDQ9VECR4V","cs_wg_full_v3_real1","3Y5140Z9DXHLSBUD7LND4HR2CHLPIU","3","0","CRICKET","15","6","0","2599","cricket ","15","2018-06-30 15:59:07","338625"
"AL337BAZEBO6C","cs_wg_full_v3_real1","3ITXP059PWKE0EUBHKC7BNBDCGHSJP","1","0","JACKET","15","6","0","8792","jacket","15","2018-06-30 15:59:11","338626"
"A28AZTW9BRRPBL","cs_wg_full_v3_real1","34Q075JO1XE74OUVITNHXH98N7Z017","5","0","LIZARD","7","6","1","1345","lizard","7","2018-06-30 15:59:14","338627"
"ANZNAAS2K0DSY","cs_wg_full_v3_real1","3R2UR8A0IAH0X677R7AZIR9RQPTXOL","1","0","SUNBURN","6","6","0","3589","SUNBURE","6","2018-06-30 15:59:19","338628"
"A25AQVQ1NAY36D","cs_wg_full_v3_real1","3L70J4KAZGNXXW8PQO45NPMULQDDA0","1","0","TOMATO","5","6","1","5934","tomato","5","2018-06-30 15:59:21","338629"
"A37UEMTX8CZFEK","cs_wg_full_v3_real1","3R0T90IZ1SDO2VFECS14Z5FFYLEGCF","2","0","COWBOY","7","6","0","3064","cowboy","7","2018-06-30 15:59:22","338630"
"A28AZTW9BRRPBL","cs_wg_full_v3_real1","34Q075JO1XE74OUVITNHXH98N7Z017","6","0","RABBIT","5","6","1","1192","rabbit","5","2018-06-30 15:59:22","338631"
"A1KUXDQ9VECR4V","cs_wg_full_v3_real1","3Y5140Z9DXHLSBUD7LND4HR2CHLPIU","4","0","COMPANY","6","6","0","2239","company","six ","2018-06-30 15:59:24","338632"
"A291OPFZ41D6CE","cs_wg_full_v3_real1","3DEL4X4EL6MCRKB9XUJXKI7T4ZSXYW","1","0","CANCER","6","6","1","3718","cancer","6","2018-06-30 15:59:24","338633"
"A2ZDXFFGSPHGBE","cs_wg_full_v3_real1","3RU7GD8VPOUAMPX9CXHR8JXPLFNSPP","0","0","PICKLE","1","6","1","9542","pickle","1","2018-06-30 15:59:24","338634"
"A1JRMSNROZ1JX5","cs_wg_full_v3_real1","3FQ5JJ512LPCVL8OR9VXD81K469NK7","0","0","AVOCADO","5","6","1","9672","avacado","5","2018-06-30 15:59:29","338635"
"AL337BAZEBO6C","cs_wg_full_v3_real1","3ITXP059PWKE0EUBHKC7BNBDCGHSJP","2","0","BAMBOO","6","6","0","4617","bamboo","6","2018-06-30 15:59:30","338636"
"A2NKD14TXBNA89","cs_wg_full_v3_real1","3C5W7UE9CFRCX3MVERVMQNKMVPEXM6","0","0","BAMBOO","7","6","1","4648","bamboo","6","2018-06-30 15:59:31","338637"
"A28AZTW9BRRPBL","cs_wg_full_v3_real1","34Q075JO1XE74OUVITNHXH98N7Z017","7","0","AVOCADO","5","6","0","1943","Avocado","5","2018-06-30 15:59:33","338638"
"A1SHLWKA0UH1IS","cs_wg_full_v3_real1","37TD41K0AHARS0O57SVLOJYIMW8SCB","0","0","PALACE","7","6","1","6181","Palace","7","2018-06-30 15:59:35","338639"
"A25AQVQ1NAY36D","cs_wg_full_v3_real1","3L70J4KAZGNXXW8PQO45NPMULQDDA0","2","0","COWBOY","5","6","1","4711","cowboy","5","2018-06-30 15:59:36","338640"
"A1KUXDQ9VECR4V","cs_wg_full_v3_real1","3Y5140Z9DXHLSBUD7LND4HR2CHLPIU","5","0","CRICKET","15","6","0","1570","cricket","15","2018-06-30 15:59:37","338641"
"A37UEMTX8CZFEK","cs_wg_full_v3_real1","3R0T90IZ1SDO2VFECS14Z5FFYLEGCF","3","0","LIZARD","5","6","1","2241","lizard","6","2018-06-30 15:59:37","338642"
"A1QX1YDOAN4LNA","cs_wg_full_v3_real1","3HUTX6F6VUOZWQ4A3IP6S1FVDGSO21","0","0","AVOCADO","6","6","1","8915","avacodo","6","2018-06-30 15:59:39","338643"
"A291OPFZ41D6CE","cs_wg_full_v3_real1","3DEL4X4EL6MCRKB9XUJXKI7T4ZSXYW","2","0","BANQUET","6","6","0","2888","banquet","6","2018-06-30 15:59:40","338644"
"A28AZTW9BRRPBL","cs_wg_full_v3_real1","34Q075JO1XE74OUVITNHXH98N7Z017","8","0","ISLAND","7","6","0","2239","island","7","2018-06-30 15:59:43","338645"
"A23IRWAODQDAA7","cs_wg_full_v3_real1","32Z9ZLUT1LL3BG7SM3SDF5LX2ZAOHJ","0","0","BUCKET","1","6","0","8873","BUCKET","6","2018-06-30 15:59:44","338646"
"ANZNAAS2K0DSY","cs_wg_full_v3_real1","3R2UR8A0IAH0X677R7AZIR9RQPTXOL","2","0","CRICKET","1","6","0","9359","CRICKET","1","2018-06-30 15:59:44","338647"
"A2ZDXFFGSPHGBE","cs_wg_full_v3_real1","3RU7GD8VPOUAMPX9CXHR8JXPLFNSPP","1","0","VOLCANO","5","6","1","6984","volcano","5","2018-06-30 15:59:45","338648"
"A3RMV9ZGFJ0HHF","cs_wg_full_v3_real1","3VHHR074H3IYC6YJW2Q9WBS9TR9L7X","0","0","BANANA","7","6","1","3674","banana","7","2018-06-30 15:59:45","338649"
"AL337BAZEBO6C","cs_wg_full_v3_real1","3ITXP059PWKE0EUBHKC7BNBDCGHSJP","3","0","MONKEY","1","6","0","6561","monkey","1","2018-06-30 15:59:46","338650"
"A1JRMSNROZ1JX5","cs_wg_full_v3_real1","3FQ5JJ512LPCVL8OR9VXD81K469NK7","1","0","LIZARD","6","6","0","6123","lizard","6","2018-06-30 15:59:46","338651"
"A2KEQODJB9HXDD","cs_wg_full_v3_real1","3LO69W1SU3EH5Z9KP5U32O52SUSLG0","0","0","PEBBLE","7","6","0","4031","PEBBLE","7","2018-06-30 15:59:50","338652"
"A28AZTW9BRRPBL","cs_wg_full_v3_real1","34Q075JO1XE74OUVITNHXH98N7Z017","9","0","PICTURE","6","6","1","1834","picture","6","2018-06-30 15:59:51","338653"
"A37UEMTX8CZFEK","cs_wg_full_v3_real1","3R0T90IZ1SDO2VFECS14Z5FFYLEGCF","4","0","POTATO","7","6","0","4318","potato","7","2018-06-30 15:59:52","338654"
"A3VIDSSJ4J4M80","cs_wg_full_v3_real1","3AWETUDC92TF6FWJUULFVFTGMGSIZ8","0","0","CHICKEN","1","6","0","3069","chicken","1","2018-06-30 15:59:53","338655"
"A1KUXDQ9VECR4V","cs_wg_full_v3_real1","3Y5140Z9DXHLSBUD7LND4HR2CHLPIU","6","0","COMPANY","6","6","0","1797","company","company","2018-06-30 15:59:53","338656"
"A291OPFZ41D6CE","cs_wg_full_v3_real1","3DEL4X4EL6MCRKB9XUJXKI7T4ZSXYW","3","0","AIRBAG","7","6","0","2681","airbag","7","2018-06-30 15:59:54","338657"
"A1SHLWKA0UH1IS","cs_wg_full_v3_real1","37TD41K0AHARS0O57SVLOJYIMW8SCB","1","0","BAMBOO","6","6","0","4904","Bamboo","6","2018-06-30 15:59:54","338658"
"A26FWAX7VEHYS3","cs_wg_full_v3_real1","36TFCYNS44BQ5PLKNUF9YICQE3FXHX","0","0","BANQUET","6","6","0","3889","banquet","6","2018-06-30 15:59:54","338659"
"A2NKD14TXBNA89","cs_wg_full_v3_real1","3C5W7UE9CFRCX3MVERVMQNKMVPEXM6","1","0","LIZARD","5","6","0","8166","lizard","5","2018-06-30 15:59:56","338660"
"A1QX1YDOAN4LNA","cs_wg_full_v3_real1","3HUTX6F6VUOZWQ4A3IP6S1FVDGSO21","1","0","BLANKET","15","6","1","5324","blanket","15","2018-06-30 15:59:57","338661"
"AL337BAZEBO6C","cs_wg_full_v3_real1","3ITXP059PWKE0EUBHKC7BNBDCGHSJP","4","0","JACKET","15","6","0","1944","jacket","15","2018-06-30 15:59:57","338662"
"A3RMV9ZGFJ0HHF","cs_wg_full_v3_real1","3VHHR074H3IYC6YJW2Q9WBS9TR9L7X","1","0","SMOKER","15","6","1","2363","smoker","15","2018-06-30 15:59:58","338663"
"A1522U5W2U1DMN","cs_wg_full_v3_real1","3JRJSWSMQHM25HN4D40F6ZQ9FSN3EO","0","0","ACROBAT","6","6","0","11737","ACROBAT","6","2018-06-30 15:59:59","338664"
"A23IRWAODQDAA7","cs_wg_full_v3_real1","32Z9ZLUT1LL3BG7SM3SDF5LX2ZAOHJ","1","0","BANQUET","6","6","1","5246","BANQUET","6","2018-06-30 16:00:00","338665"
"A1JRMSNROZ1JX5","cs_wg_full_v3_real1","3FQ5JJ512LPCVL8OR9VXD81K469NK7","2","0","BASKET","15","6","0","3564","basket","15","2018-06-30 16:00:01","338666"
"ANZNAAS2K0DSY","cs_wg_full_v3_real1","3R2UR8A0IAH0X677R7AZIR9RQPTXOL","3","0","CANCER","6","6","0","4944","CANCER","6","2018-06-30 16:00:01","338667"
"A28AZTW9BRRPBL","cs_wg_full_v3_real1","34Q075JO1XE74OUVITNHXH98N7Z017","10","0","BAMBOO","7","6","0","2974","bamboo","7","2018-06-30 16:00:01","338668"
"A1GK5OMI073DJ2","cs_wg_full_v3_real1","3O6CYIULED2GLBMEDOQMFEN9Z9BUW2","0","0","AIRBAG","5","6","0","6220","AIRBAG","5","2018-06-30 16:00:03","338669"
"A37UEMTX8CZFEK","cs_wg_full_v3_real1","3R0T90IZ1SDO2VFECS14Z5FFYLEGCF","5","0","PENGUIN","6","6","0","1794","penguin","6","2018-06-30 16:00:05","338670"
"A1KUXDQ9VECR4V","cs_wg_full_v3_real1","3Y5140Z9DXHLSBUD7LND4HR2CHLPIU","7","0","SPATULA","6","6","0","1639","spatula","6","2018-06-30 16:00:08","338671"
"A2FVW2SCF5WKKH","cs_wg_full_v3_real1","3VA45EW49NOS75MEKEPSNI5QLAEO1K","0","0","BASKET","1","6","0","20256","basket","1","2018-06-30 16:00:09","338672"
"A2ZDXFFGSPHGBE","cs_wg_full_v3_real1","3RU7GD8VPOUAMPX9CXHR8JXPLFNSPP","2","0","SQUARE","7","6","1","11859","square","7","2018-06-30 16:00:09","338673"
"A23IRWAODQDAA7","cs_wg_full_v3_real1","32Z9ZLUT1LL3BG7SM3SDF5LX2ZAOHJ","2","0","SQUARE","7","6","1","3023","SQUARE","7","2018-06-30 16:00:09","338674"
"AL337BAZEBO6C","cs_wg_full_v3_real1","3ITXP059PWKE0EUBHKC7BNBDCGHSJP","5","0","BAMBOO","6","6","0","2849","bamboo","6","2018-06-30 16:00:10","338675"
"A3VIDSSJ4J4M80","cs_wg_full_v3_real1","3AWETUDC92TF6FWJUULFVFTGMGSIZ8","1","0","PEBBLE","6","6","1","3387","pebble","6","2018-06-30 16:00:10","338676"
"A2KEQODJB9HXDD","cs_wg_full_v3_real1","3LO69W1SU3EH5Z9KP5U32O52SUSLG0","1","0","ISLAND","7","6","0","5050","ISLAND","7","2018-06-30 16:00:10","338677"
"A1SHLWKA0UH1IS","cs_wg_full_v3_real1","37TD41K0AHARS0O57SVLOJYIMW8SCB","2","0","RABBIT","5","6","0","5129","Rabbit","5","2018-06-30 16:00:11","338678"
"A3RMV9ZGFJ0HHF","cs_wg_full_v3_real1","3VHHR074H3IYC6YJW2Q9WBS9TR9L7X","2","0","PALACE","5","6","1","1735","palace","5","2018-06-30 16:00:12","338679"
"A26FWAX7VEHYS3","cs_wg_full_v3_real1","36TFCYNS44BQ5PLKNUF9YICQE3FXHX","1","0","AVOCADO","5","6","0","3934","avacado","5","2018-06-30 16:00:12","338680"
"A1QX1YDOAN4LNA","cs_wg_full_v3_real1","3HUTX6F6VUOZWQ4A3IP6S1FVDGSO21","2","0","BUCKET","1","6","1","3160","bucket","1","2018-06-30 16:00:13","338681"
"A17497K07LP4RX","cs_wg_full_v3_real1","3VNL7UK1XFKZACLUNUQC6UF7LSETFC","0","0","BLANKET","15","6","0","2367","BLANKET","15","2018-06-30 16:00:13","338682"
"A2NKD14TXBNA89","cs_wg_full_v3_real1","3C5W7UE9CFRCX3MVERVMQNKMVPEXM6","2","0","COMPANY","7","6","0","6337","company","7","2018-06-30 16:00:14","338683"
"A1JRMSNROZ1JX5","cs_wg_full_v3_real1","3FQ5JJ512LPCVL8OR9VXD81K469NK7","3","0","BASKET","15","6","0","2657","basket","15","2018-06-30 16:00:15","338684"
"A28AZTW9BRRPBL","cs_wg_full_v3_real1","34Q075JO1XE74OUVITNHXH98N7Z017","11","0","TURKEY","1","6","1","1582","turkey","1","2018-06-30 16:00:15","338685"
"A37H8GZCPJ3AA7","cs_wg_full_v3_real1","3300DTYQT2IUCIT6BFCBJ7JKPK0QED","0","0","MONKEY","1","6","0","5624","Monkey","1","2018-06-30 16:00:19","338686"
"A37UEMTX8CZFEK","cs_wg_full_v3_real1","3R0T90IZ1SDO2VFECS14Z5FFYLEGCF","6","0","BLANKET","15","6","1","2340","blanket","15","2018-06-30 16:00:19","338687"
"ANZNAAS2K0DSY","cs_wg_full_v3_real1","3R2UR8A0IAH0X677R7AZIR9RQPTXOL","4","0","CRICKET","1","6","1","4888","CRICKET","1","2018-06-30 16:00:19","338688"
"A1522U5W2U1DMN","cs_wg_full_v3_real1","3JRJSWSMQHM25HN4D40F6ZQ9FSN3EO","1","0","TOMATO","5","6","1","5536","TOMATO","5","2018-06-30 16:00:20","338689"
"AL337BAZEBO6C","cs_wg_full_v3_real1","3ITXP059PWKE0EUBHKC7BNBDCGHSJP","6","0","JACKET","15","6","0","1416","jacket","15","2018-06-30 16:00:20","338690"
"A3VIDSSJ4J4M80","cs_wg_full_v3_real1","3AWETUDC92TF6FWJUULFVFTGMGSIZ8","2","0","CRICKET","15","6","0","2105","cricket","15","2018-06-30 16:00:22","338691"
"A28AZTW9BRRPBL","cs_wg_full_v3_real1","34Q075JO1XE74OUVITNHXH98N7Z017","12","0","TURKEY","1","6","1","1151","turkey","1","2018-06-30 16:00:23","338692"
"A3RMV9ZGFJ0HHF","cs_wg_full_v3_real1","3VHHR074H3IYC6YJW2Q9WBS9TR9L7X","3","0","GRENADE","7","6","1","1452","grenade","7","2018-06-30 16:00:23","338693"
"A1KUXDQ9VECR4V","cs_wg_full_v3_real1","3Y5140Z9DXHLSBUD7LND4HR2CHLPIU","8","0","BASKET","1","6","0","1189","basket","1","2018-06-30 16:00:23","338694"
"A23IRWAODQDAA7","cs_wg_full_v3_real1","32Z9ZLUT1LL3BG7SM3SDF5LX2ZAOHJ","3","0","BANQUET","6","6","1","6356","BANQUET","6","2018-06-30 16:00:23","338695"
"A2EW08X2I87RXL","cs_wg_full_v3_real1","3RWE2M8QWHBAIV1KNGLFUOMBQ840NF","0","0","ARCADE","7","6","0","11241","ARCADE","7","2018-06-30 16:00:25","338696"
"A2KEQODJB9HXDD","cs_wg_full_v3_real1","3LO69W1SU3EH5Z9KP5U32O52SUSLG0","2","0","BANANA","7","6","0","3055","BANANA","7","2018-06-30 16:00:26","338697"
"A1JRMSNROZ1JX5","cs_wg_full_v3_real1","3FQ5JJ512LPCVL8OR9VXD81K469NK7","4","0","BASKET","15","6","0","1830","basket","15","2018-06-30 16:00:26","338698"
"A17497K07LP4RX","cs_wg_full_v3_real1","3VNL7UK1XFKZACLUNUQC6UF7LSETFC","1","0","GARBAGE","6","6","0","2754","GARBAGE","6","2018-06-30 16:00:27","338699"
"A1SHLWKA0UH1IS","cs_wg_full_v3_real1","37TD41K0AHARS0O57SVLOJYIMW8SCB","3","0","CANCER","5","6","0","4644","Cancer","5","2018-06-30 16:00:28","338700"
"A37UEMTX8CZFEK","cs_wg_full_v3_real1","3R0T90IZ1SDO2VFECS14Z5FFYLEGCF","7","0","PEBBLE","5","6","1","1352","pebble","5","2018-06-30 16:00:30","338701"
"A1GK5OMI073DJ2","cs_wg_full_v3_real1","3O6CYIULED2GLBMEDOQMFEN9Z9BUW2","1","0","VOLCANO","5","6","1","6140","VOLCANO","5","2018-06-30 16:00:30","338702"
"A28AZTW9BRRPBL","cs_wg_full_v3_real1","34Q075JO1XE74OUVITNHXH98N7Z017","13","0","AVOCADO","5","6","1","1162","avocacdo","5","2018-06-30 16:00:31","338703"
"A2FVW2SCF5WKKH","cs_wg_full_v3_real1","3VA45EW49NOS75MEKEPSNI5QLAEO1K","1","0","PICTURE","6","6","0","4035","Picture","6","2018-06-30 16:00:33","338704"
"ANZNAAS2K0DSY","cs_wg_full_v3_real1","3R2UR8A0IAH0X677R7AZIR9RQPTXOL","5","0","BASKET","15","6","0","2590","BASKET","15","2018-06-30 16:00:33","338705"
"A1KUXDQ9VECR4V","cs_wg_full_v3_real1","3Y5140Z9DXHLSBUD7LND4HR2CHLPIU","9","0","CRICKET","15","6","0","1388","Cricket ","15","2018-06-30 16:00:34","338706"
"A26FWAX7VEHYS3","cs_wg_full_v3_real1","36TFCYNS44BQ5PLKNUF9YICQE3FXHX","2","0","PELICAN","5","6","0","2323","Pelican","5","2018-06-30 16:00:34","338707"
"A34GD7YNGA18YF","cs_wg_full_v3_real1","3XC1O3LBOSNLA4VQ95TA17KRIO0TLH","0","0","PALACE","5","6","1","6157","Palace","5","2018-06-30 16:00:34","338708"
"A23IRWAODQDAA7","cs_wg_full_v3_real1","32Z9ZLUT1LL3BG7SM3SDF5LX2ZAOHJ","4","0","AIRBAG","7","6","0","5049","AIRBAG","6","2018-06-30 16:00:35","338709"
"A3RMV9ZGFJ0HHF","cs_wg_full_v3_real1","3VHHR074H3IYC6YJW2Q9WBS9TR9L7X","4","0","BICYCLE","7","6","1","1616","bicycle","7","2018-06-30 16:00:36","338710"
"A1QX1YDOAN4LNA","cs_wg_full_v3_real1","3HUTX6F6VUOZWQ4A3IP6S1FVDGSO21","3","0","AVOCADO","6","6","1","3792","avacado","6","2018-06-30 16:00:36","338711"
"AL337BAZEBO6C","cs_wg_full_v3_real1","3ITXP059PWKE0EUBHKC7BNBDCGHSJP","7","0","MONKEY","1","6","1","3353","monkey","1","2018-06-30 16:00:37","338712"
"A37H8GZCPJ3AA7","cs_wg_full_v3_real1","3300DTYQT2IUCIT6BFCBJ7JKPK0QED","1","0","LIQUID","6","6","0","3169","Liquid","6","2018-06-30 16:00:37","338713"
"A3VIDSSJ4J4M80","cs_wg_full_v3_real1","3AWETUDC92TF6FWJUULFVFTGMGSIZ8","3","0","CHICKEN","1","6","1","2733","chicken","1","2018-06-30 16:00:39","338714"
"A1JRMSNROZ1JX5","cs_wg_full_v3_real1","3FQ5JJ512LPCVL8OR9VXD81K469NK7","5","0","PALACE","5","6","0","4360","palace","5","2018-06-30 16:00:39","338715"
"A28AZTW9BRRPBL","cs_wg_full_v3_real1","34Q075JO1XE74OUVITNHXH98N7Z017","14","0","AVOCADO","5","6","1","1560","avocado","5","2018-06-30 16:00:41","338716"
"A2KEQODJB9HXDD","cs_wg_full_v3_real1","3LO69W1SU3EH5Z9KP5U32O52SUSLG0","3","0","AIRBAG","5","6","1","3428","AIRBAG","5","2018-06-30 16:00:41","338717"
"A2NKD14TXBNA89","cs_wg_full_v3_real1","3C5W7UE9CFRCX3MVERVMQNKMVPEXM6","3","0","PEBBLE","7","6","0","12955","pebble","7","2018-06-30 16:00:42","338718"
"A17497K07LP4RX","cs_wg_full_v3_real1","3VNL7UK1XFKZACLUNUQC6UF7LSETFC","2","0","SPATULA","6","6","0","5274","SPATULA","6","2018-06-30 16:00:43","338719"
"A2EW08X2I87RXL","cs_wg_full_v3_real1","3RWE2M8QWHBAIV1KNGLFUOMBQ840NF","1","0","RABBIT","5","6","0","6551","RABBIT","5","2018-06-30 16:00:43","338720"
"A1KUXDQ9VECR4V","cs_wg_full_v3_real1","3Y5140Z9DXHLSBUD7LND4HR2CHLPIU","10","0","COMPANY","6","6","0","1322","company","6","2018-06-30 16:00:44","338721"
"A37UEMTX8CZFEK","cs_wg_full_v3_real1","3R0T90IZ1SDO2VFECS14Z5FFYLEGCF","8","0","SQUARE","5","6","1","3359","square","5","2018-06-30 16:00:44","338722"
"A1SHLWKA0UH1IS","cs_wg_full_v3_real1","37TD41K0AHARS0O57SVLOJYIMW8SCB","4","0","VOLCANO","5","6","0","4674","Volcano","5","2018-06-30 16:00:45","338723"
"A3RMV9ZGFJ0HHF","cs_wg_full_v3_real1","3VHHR074H3IYC6YJW2Q9WBS9TR9L7X","5","0","VOLCANO","5","6","1","1653","volcano","5","2018-06-30 16:00:46","338724"
"ANZNAAS2K0DSY","cs_wg_full_v3_real1","3R2UR8A0IAH0X677R7AZIR9RQPTXOL","6","0","BASKET","15","6","0","1596","BASKET","15","2018-06-30 16:00:46","338725"
"A23IRWAODQDAA7","cs_wg_full_v3_real1","32Z9ZLUT1LL3BG7SM3SDF5LX2ZAOHJ","5","0","BANANA","5","6","0","3484","BANANA","5","2018-06-30 16:00:48","338726"
"A3QVZ4SZB79D8W","cs_wg_full_v3_real1","3R6P78PK7KC5OCHPYEWUOFFJM7ETGB","0","0","COWBOY","6","6","1","6682","cowboy","6","2018-06-30 16:00:49","338727"
"AL337BAZEBO6C","cs_wg_full_v3_real1","3ITXP059PWKE0EUBHKC7BNBDCGHSJP","8","0","MONKEY","1","6","1","3913","monkey","1","2018-06-30 16:00:50","338728"
"A34GD7YNGA18YF","cs_wg_full_v3_real1","3XC1O3LBOSNLA4VQ95TA17KRIO0TLH","1","0","CANCER","5","6","1","4113","Cancer","5","2018-06-30 16:00:50","338729"
"A1GK5OMI073DJ2","cs_wg_full_v3_real1","3O6CYIULED2GLBMEDOQMFEN9Z9BUW2","2","0","PUMPKIN","15","6","0","4725","PUMPKIN","15","2018-06-30 16:00:50","338730"
"A28AZTW9BRRPBL","cs_wg_full_v3_real1","34Q075JO1XE74OUVITNHXH98N7Z017","15","0","LIZARD","7","6","1","1697","lizard","7","2018-06-30 16:00:50","338731"
"A1QX1YDOAN4LNA","cs_wg_full_v3_real1","3HUTX6F6VUOZWQ4A3IP6S1FVDGSO21","4","0","BUCKET","1","6","1","4276","bucket","1","2018-06-30 16:00:50","338732"
"A1JRMSNROZ1JX5","cs_wg_full_v3_real1","3FQ5JJ512LPCVL8OR9VXD81K469NK7","6","0","RABBIT","5","6","0","1793","rabbit","5","2018-06-30 16:00:50","338733"
"A3VIDSSJ4J4M80","cs_wg_full_v3_real1","3AWETUDC92TF6FWJUULFVFTGMGSIZ8","4","0","PEBBLE","6","6","1","2474","pebble","6","2018-06-30 16:00:52","338734"
"A37H8GZCPJ3AA7","cs_wg_full_v3_real1","3300DTYQT2IUCIT6BFCBJ7JKPK0QED","2","0","MONKEY","1","6","1","4040","Monkey","1","2018-06-30 16:00:52","338735"
"A168UD5L4AYS3P","cs_wg_full_v3_real1","3G5F9DBFOPYY10GPNFERAXF5YS7HVE","0","0","SQUARE","5","6","1","7414","square","5","2018-06-30 16:00:53","338736"
"A291OPFZ41D6CE","cs_wg_full_v3_real1","3DEL4X4EL6MCRKB9XUJXKI7T4ZSXYW","4","0","PICKLE","15","6","1","3412","pickle","15","2018-06-30 16:00:54","338737"
"A26FWAX7VEHYS3","cs_wg_full_v3_real1","36TFCYNS44BQ5PLKNUF9YICQE3FXHX","3","0","AVOCADO","5","6","1","4659","avacado","5","2018-06-30 16:00:54","338738"
"A1522U5W2U1DMN","cs_wg_full_v3_real1","3JRJSWSMQHM25HN4D40F6ZQ9FSN3EO","2","0","VOLCANO","7","6","0","7211","VOLCANO","7","2018-06-30 16:00:55","338739"
"A3RMV9ZGFJ0HHF","cs_wg_full_v3_real1","3VHHR074H3IYC6YJW2Q9WBS9TR9L7X","6","0","POTATO","5","6","1","2762","potato","5","2018-06-30 16:00:57","338740"
"A2KEQODJB9HXDD","cs_wg_full_v3_real1","3LO69W1SU3EH5Z9KP5U32O52SUSLG0","4","0","AVOCADO","5","6","0","4001","AVACADO","5","2018-06-30 16:00:57","338741"
"A184EIWAV7P9EH","cs_wg_full_v3_real1","3EA3QWIZ4IWJK3NKO2WX9RSZ1K6TI3","0","0","PENGUIN","6","6","0","6138","PENGUIN","6","2018-06-30 16:00:57","338742"
"A37UEMTX8CZFEK","cs_wg_full_v3_real1","3R0T90IZ1SDO2VFECS14Z5FFYLEGCF","9","0","PEBBLE","5","6","1","4795","pebble","5","2018-06-30 16:00:58","338743"
"A2EW08X2I87RXL","cs_wg_full_v3_real1","3RWE2M8QWHBAIV1KNGLFUOMBQ840NF","2","0","PEBBLE","7","6","0","5780","PEBBLE","7","2018-06-30 16:00:59","338744"
"A28AZTW9BRRPBL","cs_wg_full_v3_real1","34Q075JO1XE74OUVITNHXH98N7Z017","16","0","ACROBAT","6","6","1","2537","acrobat","6","2018-06-30 16:01:00","338745"
"ANZNAAS2K0DSY","cs_wg_full_v3_real1","3R2UR8A0IAH0X677R7AZIR9RQPTXOL","7","0","CANCER","6","6","1","3108","CANCER","6","2018-06-30 16:01:00","338746"
"A2FVW2SCF5WKKH","cs_wg_full_v3_real1","3VA45EW49NOS75MEKEPSNI5QLAEO1K","2","0","BASKET","1","6","1","8663","basket","1","2018-06-30 16:01:01","338747"
"A1SHLWKA0UH1IS","cs_wg_full_v3_real1","37TD41K0AHARS0O57SVLOJYIMW8SCB","5","0","PALACE","7","6","1","5330","Palace","7","2018-06-30 16:01:02","338748"
"A23IRWAODQDAA7","cs_wg_full_v3_real1","32Z9ZLUT1LL3BG7SM3SDF5LX2ZAOHJ","6","0","AIRBAG","7","6","0","6600","AIRBAG","7","2018-06-30 16:01:02","338749"
"A1RTD65R1H8MQW","cs_wg_full_v3_real1","3DPNQGW4LLGJAYDT70M04GQ2CUV46P","0","0","GRENADE","6","6","1","6795","GRENADE","6","2018-06-30 16:01:02","338750"
"AYG0DFCHLF8AF","cs_wg_full_v3_real1","3X65QVEQI0O4ONTFNJYKCXKNU20LCQ","0","0","BLANKET","1","6","0","8078","RABBIT","1","2018-06-30 16:01:02","338751"
"A1JRMSNROZ1JX5","cs_wg_full_v3_real1","3FQ5JJ512LPCVL8OR9VXD81K469NK7","7","0","BICYCLE","7","6","0","1026","bicycle","7","2018-06-30 16:01:03","338752"
"A31JRP33Z83Y1C","cs_wg_full_v3_real1","31JLPPHS2UVOH80T7I3BBBKNJUT3OS","0","0","MONKEY","1","6","1","7521","money","6","2018-06-30 16:01:03","338754"
"A2NKD14TXBNA89","cs_wg_full_v3_real1","3C5W7UE9CFRCX3MVERVMQNKMVPEXM6","4","0","BICYCLE","5","6","0","6612","bicycle","5","2018-06-30 16:01:03","338753"
"A1KUXDQ9VECR4V","cs_wg_full_v3_real1","3Y5140Z9DXHLSBUD7LND4HR2CHLPIU","11","0","BASKET","1","6","0","7222","basket","1","2018-06-30 16:01:04","338755"
"A3QVZ4SZB79D8W","cs_wg_full_v3_real1","3R6P78PK7KC5OCHPYEWUOFFJM7ETGB","1","0","TURKEY","1","6","0","4222","turkey","1","2018-06-30 16:01:04","338756"
"A3VIDSSJ4J4M80","cs_wg_full_v3_real1","3AWETUDC92TF6FWJUULFVFTGMGSIZ8","5","0","CHICKEN","1","6","1","2256","chicken","1","2018-06-30 16:01:04","338757"
"A17497K07LP4RX","cs_wg_full_v3_real1","3VNL7UK1XFKZACLUNUQC6UF7LSETFC","3","0","SPATULA","6","6","1","9934","SPATULA","6","2018-06-30 16:01:05","338758"
"AD7UB9OHVLMNK","cs_wg_full_v3_real1","3N8OEVH1FRRD3XTFQGN3ZEIYELOOO7","0","0","SMOKER","15","6","0","6469","smoker1","15","2018-06-30 16:01:06","338759"
"A34GD7YNGA18YF","cs_wg_full_v3_real1","3XC1O3LBOSNLA4VQ95TA17KRIO0TLH","2","0","BLANKET","1","6","0","4388","Blanket","1","2018-06-30 16:01:06","338760"
"A1QX1YDOAN4LNA","cs_wg_full_v3_real1","3HUTX6F6VUOZWQ4A3IP6S1FVDGSO21","5","0","SPATULA","6","6","0","3602","spatula","6","2018-06-30 16:01:06","338761"
"A3RMV9ZGFJ0HHF","cs_wg_full_v3_real1","3VHHR074H3IYC6YJW2Q9WBS9TR9L7X","7","0","SQUARE","6","6","1","1389","square","6","2018-06-30 16:01:07","338762"
"AL337BAZEBO6C","cs_wg_full_v3_real1","3ITXP059PWKE0EUBHKC7BNBDCGHSJP","9","0","BANQUET","6","6","0","7929","banquet","6","2018-06-30 16:01:08","338763"
"A26FWAX7VEHYS3","cs_wg_full_v3_real1","36TFCYNS44BQ5PLKNUF9YICQE3FXHX","4","0","PELICAN","5","6","1","3867","Pelican","5","2018-06-30 16:01:09","338764"
"A2UQ98FHANPPLW","cs_wg_full_v3_real1","3WJEQKOXA83351SDAVKAMNLLWTB1AZ","0","0","PEBBLE","5","6","0","3290","Pebble","5","2018-06-30 16:01:09","338765"
"A1GK5OMI073DJ2","cs_wg_full_v3_real1","3O6CYIULED2GLBMEDOQMFEN9Z9BUW2","3","0","PUMPKIN","15","6","1","5714","PUMPKIN","15","2018-06-30 16:01:10","338766"
"A291OPFZ41D6CE","cs_wg_full_v3_real1","3DEL4X4EL6MCRKB9XUJXKI7T4ZSXYW","5","0","WIZARD","5","6","1","3966","wizard","6","2018-06-30 16:01:10","338767"
"A37UEMTX8CZFEK","cs_wg_full_v3_real1","3R0T90IZ1SDO2VFECS14Z5FFYLEGCF","10","0","COMPANY","5","6","0","2708","company","5","2018-06-30 16:01:10","338768"
"A28AZTW9BRRPBL","cs_wg_full_v3_real1","34Q075JO1XE74OUVITNHXH98N7Z017","17","0","ACROBAT","6","6","1","1707","acrobat","6","2018-06-30 16:01:11","338769"
"A37H8GZCPJ3AA7","cs_wg_full_v3_real1","3300DTYQT2IUCIT6BFCBJ7JKPK0QED","3","0","CHICKEN","15","6","0","3103","Chicken","16","2018-06-30 16:01:12","338770"
"A1522U5W2U1DMN","cs_wg_full_v3_real1","3JRJSWSMQHM25HN4D40F6ZQ9FSN3EO","3","0","COWBOY","7","6","1","5745","COWBOY","7","2018-06-30 16:01:12","338771"
"A23IRWAODQDAA7","cs_wg_full_v3_real1","32Z9ZLUT1LL3BG7SM3SDF5LX2ZAOHJ","7","0","BANQUET","6","6","0","5014","BANQUET","6","2018-06-30 16:01:13","338772"
"A1S88VQY8G8CNC","cs_wg_full_v3_real1","3DZQRBDBSLG3F0SMEZKKVGUOGJW3SP","0","0","TURKEY","1","6","0","9811","turkey","1","2018-06-30 16:01:13","338773"
"ANZNAAS2K0DSY","cs_wg_full_v3_real1","3R2UR8A0IAH0X677R7AZIR9RQPTXOL","8","0","CANCER","6","6","1","2100","CANCER","6","2018-06-30 16:01:14","338774"
"A2SXNWRAVVKLQ9","cs_wg_full_v3_real1","3C44YUNSI1Q4K0ERF7M2DKBPKCDDPG","0","0","COWBOY","7","6","1","3019","COWBOY","7","2018-06-30 16:01:14","338775"
"A3VIDSSJ4J4M80","cs_wg_full_v3_real1","3AWETUDC92TF6FWJUULFVFTGMGSIZ8","6","0","CHICKEN","1","6","1","1499","chicken","1","2018-06-30 16:01:15","338776"
"A168UD5L4AYS3P","cs_wg_full_v3_real1","3G5F9DBFOPYY10GPNFERAXF5YS7HVE","1","0","TOMATO","7","6","0","5765","tomato","7","2018-06-30 16:01:15","338777"
"A17497K07LP4RX","cs_wg_full_v3_real1","3VNL7UK1XFKZACLUNUQC6UF7LSETFC","4","0","GARBAGE","6","6","1","1935","GARBAGE","6","2018-06-30 16:01:16","338778"
"A2EW08X2I87RXL","cs_wg_full_v3_real1","3RWE2M8QWHBAIV1KNGLFUOMBQ840NF","3","0","PEBBLE","7","6","0","3270","PEBBLE","7","2018-06-30 16:01:16","338779"
"A1JRMSNROZ1JX5","cs_wg_full_v3_real1","3FQ5JJ512LPCVL8OR9VXD81K469NK7","8","0","PALACE","5","6","0","2325","palace","5","2018-06-30 16:01:17","338780"
"A184EIWAV7P9EH","cs_wg_full_v3_real1","3EA3QWIZ4IWJK3NKO2WX9RSZ1K6TI3","1","0","WIZARD","5","6","0","8464","WIZARD","5","2018-06-30 16:01:18","338781"
"A1SHLWKA0UH1IS","cs_wg_full_v3_real1","37TD41K0AHARS0O57SVLOJYIMW8SCB","6","0","POTATO","7","6","0","4427","potato","7","2018-06-30 16:01:18","338782"
"A34GD7YNGA18YF","cs_wg_full_v3_real1","3XC1O3LBOSNLA4VQ95TA17KRIO0TLH","3","0","LIZARD","6","6","1","1820","Lizard","6","2018-06-30 16:01:19","338783"
"A2KEQODJB9HXDD","cs_wg_full_v3_real1","3LO69W1SU3EH5Z9KP5U32O52SUSLG0","5","0","PALACE","7","6","0","7263","PALACE","7","2018-06-30 16:01:19","338784"
"A2NKD14TXBNA89","cs_wg_full_v3_real1","3C5W7UE9CFRCX3MVERVMQNKMVPEXM6","5","0","GRENADE","7","6","1","4735","genard","7","2018-06-30 16:01:19","338785"
"A1RTD65R1H8MQW","cs_wg_full_v3_real1","3DPNQGW4LLGJAYDT70M04GQ2CUV46P","1","0","GRENADE","6","6","1","4004","GRENADE","6","2018-06-30 16:01:20","338786"
"A2FVW2SCF5WKKH","cs_wg_full_v3_real1","3VA45EW49NOS75MEKEPSNI5QLAEO1K","3","0","BASKET","1","6","1","3994","basket","1","2018-06-30 16:01:20","338787"
"A28AZTW9BRRPBL","cs_wg_full_v3_real1","34Q075JO1XE74OUVITNHXH98N7Z017","18","0","BAMBOO","7","6","1","1383","bamboo","7","2018-06-30 16:01:20","338788"
"A1QX1YDOAN4LNA","cs_wg_full_v3_real1","3HUTX6F6VUOZWQ4A3IP6S1FVDGSO21","6","0","BLANKET","15","6","0","2635","blanket","15","2018-06-30 16:01:20","338789"
"AL337BAZEBO6C","cs_wg_full_v3_real1","3ITXP059PWKE0EUBHKC7BNBDCGHSJP","10","0","BANQUET","6","6","0","1185","banquet","6","2018-06-30 16:01:21","338790"
"A31JRP33Z83Y1C","cs_wg_full_v3_real1","31JLPPHS2UVOH80T7I3BBBKNJUT3OS","1","0","PICKLE","15","6","1","5850","pickle","6","2018-06-30 16:01:21","338791"
"A26FWAX7VEHYS3","cs_wg_full_v3_real1","36TFCYNS44BQ5PLKNUF9YICQE3FXHX","5","0","PELICAN","5","6","1","3336","Pelican","5","2018-06-30 16:01:21","338792"
"A1KUXDQ9VECR4V","cs_wg_full_v3_real1","3Y5140Z9DXHLSBUD7LND4HR2CHLPIU","12","0","COMPANY","6","6","1","5970","company","6","2018-06-30 16:01:21","338793"
"A3QVZ4SZB79D8W","cs_wg_full_v3_real1","3R6P78PK7KC5OCHPYEWUOFFJM7ETGB","2","0","PUMPKIN","15","6","0","8411","pumpkin","15","2018-06-30 16:01:22","338794"
"A2UQ98FHANPPLW","cs_wg_full_v3_real1","3WJEQKOXA83351SDAVKAMNLLWTB1AZ","1","0","RABBIT","7","6","0","3106","rabbit","7","2018-06-30 16:01:22","338795"
"A291OPFZ41D6CE","cs_wg_full_v3_real1","3DEL4X4EL6MCRKB9XUJXKI7T4ZSXYW","6","0","LIZARD","5","6","1","3401","lizard","5","2018-06-30 16:01:23","338796"
"A3RMV9ZGFJ0HHF","cs_wg_full_v3_real1","3VHHR074H3IYC6YJW2Q9WBS9TR9L7X","8","0","PALACE","5","6","1","5305","palace","5","2018-06-30 16:01:23","338797"
"A37UEMTX8CZFEK","cs_wg_full_v3_real1","3R0T90IZ1SDO2VFECS14Z5FFYLEGCF","11","0","POTATO","7","6","0","4019","potato","7","2018-06-30 16:01:25","338798"
"AD7UB9OHVLMNK","cs_wg_full_v3_real1","3N8OEVH1FRRD3XTFQGN3ZEIYELOOO7","1","0","SMOKER","15","6","0","2034","smoker","15","2018-06-30 16:01:25","338799"
"A23IRWAODQDAA7","cs_wg_full_v3_real1","32Z9ZLUT1LL3BG7SM3SDF5LX2ZAOHJ","8","0","BANQUET","6","6","0","4403","BANQUET","6","2018-06-30 16:01:25","338800"
"A3VIDSSJ4J4M80","cs_wg_full_v3_real1","3AWETUDC92TF6FWJUULFVFTGMGSIZ8","7","0","CRICKET","15","6","0","2382","cricket","15","2018-06-30 16:01:28","338801"
"A2EW08X2I87RXL","cs_wg_full_v3_real1","3RWE2M8QWHBAIV1KNGLFUOMBQ840NF","4","0","WIZARD","5","6","0","3004","WIZARD","5","2018-06-30 16:01:29","338802"
"ANZNAAS2K0DSY","cs_wg_full_v3_real1","3R2UR8A0IAH0X677R7AZIR9RQPTXOL","9","0","CRICKET","1","6","1","2006","CRICKET","1","2018-06-30 16:01:29","338803"
"A1522U5W2U1DMN","cs_wg_full_v3_real1","3JRJSWSMQHM25HN4D40F6ZQ9FSN3EO","4","0","CANCER","5","6","0","7139","CANCER","5","2018-06-30 16:01:29","338804"
"A28AZTW9BRRPBL","cs_wg_full_v3_real1","34Q075JO1XE74OUVITNHXH98N7Z017","19","0","RABBIT","5","6","1","1689","rabbit","5","2018-06-30 16:01:29","338805"
"A2SXNWRAVVKLQ9","cs_wg_full_v3_real1","3C44YUNSI1Q4K0ERF7M2DKBPKCDDPG","1","0","LIZARD","7","6","1","3624","LIZARD","7","2018-06-30 16:01:30","338806"
"AL337BAZEBO6C","cs_wg_full_v3_real1","3ITXP059PWKE0EUBHKC7BNBDCGHSJP","11","0","BANQUET","6","6","0","1328","banquet","6","2018-06-30 16:01:31","338807"
"A37H8GZCPJ3AA7","cs_wg_full_v3_real1","3300DTYQT2IUCIT6BFCBJ7JKPK0QED","4","0","AVOCADO","6","6","1","3358","Avocado","6","2018-06-30 16:01:31","338808"
"A1KUXDQ9VECR4V","cs_wg_full_v3_real1","3Y5140Z9DXHLSBUD7LND4HR2CHLPIU","13","0","BASKET","1","6","1","1019","basket","1","2018-06-30 16:01:31","338809"
"A1GK5OMI073DJ2","cs_wg_full_v3_real1","3O6CYIULED2GLBMEDOQMFEN9Z9BUW2","4","0","VOLCANO","5","6","1","7564","VOLCANO","5","2018-06-30 16:01:31","338810"
"A1RTD65R1H8MQW","cs_wg_full_v3_real1","3DPNQGW4LLGJAYDT70M04GQ2CUV46P","2","0","JACKET","1","6","1","2049","JACKET","6","2018-06-30 16:01:32","338811"
"A1JRMSNROZ1JX5","cs_wg_full_v3_real1","3FQ5JJ512LPCVL8OR9VXD81K469NK7","9","0","AVOCADO","5","6","1","5714","avacado","5","2018-06-30 16:01:33","338812"
"A34GD7YNGA18YF","cs_wg_full_v3_real1","3XC1O3LBOSNLA4VQ95TA17KRIO0TLH","4","0","SUNBURN","6","6","1","2752","Sunburn","6","2018-06-30 16:01:33","338813"
"AY2U544TCVPMQ","cs_wg_full_v3_real1","3GDTJDAPVUCMI2LN6JJUAO3T4G68MA","0","0","TURKEY","15","6","0","3766","TURKEY","15","2018-06-30 16:01:33","338814"
"A1S88VQY8G8CNC","cs_wg_full_v3_real1","3DZQRBDBSLG3F0SMEZKKVGUOGJW3SP","1","0","COSTUME","6","6","0","4872","costume","6","2018-06-30 16:01:34","338815"
"A3RMV9ZGFJ0HHF","cs_wg_full_v3_real1","3VHHR074H3IYC6YJW2Q9WBS9TR9L7X","9","0","COWBOY","7","6","1","1299","cowboy","7","2018-06-30 16:01:34","338816"
"AYG0DFCHLF8AF","cs_wg_full_v3_real1","3X65QVEQI0O4ONTFNJYKCXKNU20LCQ","1","0","JACKET","15","6","0","16543","JACKET","15","2018-06-30 16:01:34","338817"
"A1QX1YDOAN4LNA","cs_wg_full_v3_real1","3HUTX6F6VUOZWQ4A3IP6S1FVDGSO21","7","0","AVOCADO","6","6","1","3147","avacado","6","2018-06-30 16:01:35","338818"
"A3QVZ4SZB79D8W","cs_wg_full_v3_real1","3R6P78PK7KC5OCHPYEWUOFFJM7ETGB","3","0","PALACE","7","6","0","3080","palace","7","2018-06-30 16:01:35","338819"
"A17497K07LP4RX","cs_wg_full_v3_real1","3VNL7UK1XFKZACLUNUQC6UF7LSETFC","5","0","MONKEY","1","6","0","2491","MONKEY","1","2018-06-30 16:01:35","338820"
"A2KEQODJB9HXDD","cs_wg_full_v3_real1","3LO69W1SU3EH5Z9KP5U32O52SUSLG0","6","0","BANQUET","6","6","0","6041","BANQUET","6","2018-06-30 16:01:35","338821"
"A23IRWAODQDAA7","cs_wg_full_v3_real1","32Z9ZLUT1LL3BG7SM3SDF5LX2ZAOHJ","9","0","RABBIT","5","6","0","3433","RABBIT","5","2018-06-30 16:01:35","338822"
"A291OPFZ41D6CE","cs_wg_full_v3_real1","3DEL4X4EL6MCRKB9XUJXKI7T4ZSXYW","7","0","GARBAGE","5","6","1","2126","garbage","5","2018-06-30 16:01:36","338823"
"A1SHLWKA0UH1IS","cs_wg_full_v3_real1","37TD41K0AHARS0O57SVLOJYIMW8SCB","7","0","RABBIT","5","6","1","3439","Rabbit","5","2018-06-30 16:01:36","338824"
"A2UQ98FHANPPLW","cs_wg_full_v3_real1","3WJEQKOXA83351SDAVKAMNLLWTB1AZ","2","0","CANCER","5","6","0","1833","cancer","5","2018-06-30 16:01:36","338825"
"A184EIWAV7P9EH","cs_wg_full_v3_real1","3EA3QWIZ4IWJK3NKO2WX9RSZ1K6TI3","2","0","GARBAGE","5","6","1","4453","GARBAGE","5","2018-06-30 16:01:36","338826"
"AX8U26GN8EIUD","cs_wg_full_v3_real1","3PM8NZGV8YH3IIKN6K237W4R5QBQXM","0","0","SPATULA","6","6","0","10151","spatula","6","2018-06-30 16:01:36","338827"
"A26FWAX7VEHYS3","cs_wg_full_v3_real1","36TFCYNS44BQ5PLKNUF9YICQE3FXHX","6","0","ISLAND","7","6","0","1601","Island","7","2018-06-30 16:01:39","338828"
"A168UD5L4AYS3P","cs_wg_full_v3_real1","3G5F9DBFOPYY10GPNFERAXF5YS7HVE","2","0","CRICKET","15","6","1","7457","cricket","15","2018-06-30 16:01:40","338829"
"A3VIDSSJ4J4M80","cs_wg_full_v3_real1","3AWETUDC92TF6FWJUULFVFTGMGSIZ8","8","0","PEBBLE","6","6","1","1810","pebble","6","2018-06-30 16:01:40","338830"
"A28AZTW9BRRPBL","cs_wg_full_v3_real1","34Q075JO1XE74OUVITNHXH98N7Z017","20","0","CHICKEN","15","6","1","1384","chicken","15","2018-06-30 16:01:40","338831"
"A37UEMTX8CZFEK","cs_wg_full_v3_real1","3R0T90IZ1SDO2VFECS14Z5FFYLEGCF","12","0","COWBOY","7","6","0","6587","cowboy","7","2018-06-30 16:01:41","338832"
"A8E99XNOTT390","cs_wg_full_v3_real1","3VP0C6EFSGXZEO2ZD4MWQA72YLG6MM","0","0","BUCKET","1","6","0","3970","Bucket","1","2018-06-30 16:01:42","338833"
"A2EW08X2I87RXL","cs_wg_full_v3_real1","3RWE2M8QWHBAIV1KNGLFUOMBQ840NF","5","0","PEBBLE","7","6","0","2352","PEBBLE","7","2018-06-30 16:01:42","338834"
"A1KUXDQ9VECR4V","cs_wg_full_v3_real1","3Y5140Z9DXHLSBUD7LND4HR2CHLPIU","14","0","BASKET","1","6","1","1889","basket","1","2018-06-30 16:01:43","338835"
"A1RTD65R1H8MQW","cs_wg_full_v3_real1","3DPNQGW4LLGJAYDT70M04GQ2CUV46P","3","0","GRENADE","6","6","1","1902","GRENADE","6","2018-06-30 16:01:43","338836"
"A31JRP33Z83Y1C","cs_wg_full_v3_real1","31JLPPHS2UVOH80T7I3BBBKNJUT3OS","2","0","PICKLE","15","6","0","3644","pickle","6","2018-06-30 16:01:43","338837"
"A1JRMSNROZ1JX5","cs_wg_full_v3_real1","3FQ5JJ512LPCVL8OR9VXD81K469NK7","10","0","PUMPKIN","1","6","0","1748","pumpkin","1","2018-06-30 16:01:44","338838"
"A2SXNWRAVVKLQ9","cs_wg_full_v3_real1","3C44YUNSI1Q4K0ERF7M2DKBPKCDDPG","2","0","COMPANY","6","6","1","2968","COMPANY","6","2018-06-30 16:01:44","338839"
"A2NKD14TXBNA89","cs_wg_full_v3_real1","3C5W7UE9CFRCX3MVERVMQNKMVPEXM6","6","0","PALACE","6","6","0","8079","palace","6","2018-06-30 16:01:44","338840"
"ANZNAAS2K0DSY","cs_wg_full_v3_real1","3R2UR8A0IAH0X677R7AZIR9RQPTXOL","10","0","BASKET","15","6","0","1478","BASKET","15","2018-06-30 16:01:45","338841"
"AL337BAZEBO6C","cs_wg_full_v3_real1","3ITXP059PWKE0EUBHKC7BNBDCGHSJP","12","0","BANQUET","6","6","0","2401","banquet","6","2018-06-30 16:01:45","338842"
"A3RMV9ZGFJ0HHF","cs_wg_full_v3_real1","3VHHR074H3IYC6YJW2Q9WBS9TR9L7X","10","0","SQUARE","6","6","0","3751","square","6","2018-06-30 16:01:46","338843"
"A175PJR0W3LO8I","cs_wg_full_v3_real1","33LKR6A5KEL8KXRMGVBRHSBDKIVT1B","0","0","ACROBAT","7","6","1","2586","acrobat","7","2018-06-30 16:01:46","338844"
"A34GD7YNGA18YF","cs_wg_full_v3_real1","3XC1O3LBOSNLA4VQ95TA17KRIO0TLH","5","0","BICYCLE","7","6","1","2378","Bicycle","7","2018-06-30 16:01:46","338845"
"A37H8GZCPJ3AA7","cs_wg_full_v3_real1","3300DTYQT2IUCIT6BFCBJ7JKPK0QED","5","0","AVOCADO","6","6","1","4168","Avocado","6","2018-06-30 16:01:47","338846"
"A2UQ98FHANPPLW","cs_wg_full_v3_real1","3WJEQKOXA83351SDAVKAMNLLWTB1AZ","3","0","MONKEY","1","6","0","1600","monkey","1","2018-06-30 16:01:48","338847"
"A291OPFZ41D6CE","cs_wg_full_v3_real1","3DEL4X4EL6MCRKB9XUJXKI7T4ZSXYW","8","0","AIRBAG","7","6","0","2210","airbag","7","2018-06-30 16:01:48","338848"
"A23IRWAODQDAA7","cs_wg_full_v3_real1","32Z9ZLUT1LL3BG7SM3SDF5LX2ZAOHJ","10","0","BANQUET","6","6","0","2245","BANQUET","6","2018-06-30 16:01:48","338849"
"A1GK5OMI073DJ2","cs_wg_full_v3_real1","3O6CYIULED2GLBMEDOQMFEN9Z9BUW2","5","0","AIRBAG","5","6","1","3179","airbag","5","2018-06-30 16:01:48","338850"
"A1SHLWKA0UH1IS","cs_wg_full_v3_real1","37TD41K0AHARS0O57SVLOJYIMW8SCB","8","0","ISLAND","5","6","0","2385","Island","5","2018-06-30 16:01:48","338851"
"A2FVW2SCF5WKKH","cs_wg_full_v3_real1","3VA45EW49NOS75MEKEPSNI5QLAEO1K","4","0","AVOCADO","6","6","0","13906","avocado","5","2018-06-30 16:01:48","338852"
"AD7UB9OHVLMNK","cs_wg_full_v3_real1","3N8OEVH1FRRD3XTFQGN3ZEIYELOOO7","2","0","LIZARD","6","6","0","4720","lizard","6","2018-06-30 16:01:49","338853"
"AY2U544TCVPMQ","cs_wg_full_v3_real1","3GDTJDAPVUCMI2LN6JJUAO3T4G68MA","1","0","BAMBOO","6","6","0","2910","BAMBOO","6","2018-06-30 16:01:49","338854"
"A2KEQODJB9HXDD","cs_wg_full_v3_real1","3LO69W1SU3EH5Z9KP5U32O52SUSLG0","7","0","PALACE","7","6","1","4063","PALACE","7","2018-06-30 16:01:49","338855"
"A17497K07LP4RX","cs_wg_full_v3_real1","3VNL7UK1XFKZACLUNUQC6UF7LSETFC","6","0","BLANKET","15","6","0","1964","BLANKET","15","2018-06-30 16:01:50","338856"
"A28AZTW9BRRPBL","cs_wg_full_v3_real1","34Q075JO1XE74OUVITNHXH98N7Z017","21","0","WIZARD","7","6","1","2071","wizard","7","2018-06-30 16:01:51","338857"
"A1QX1YDOAN4LNA","cs_wg_full_v3_real1","3HUTX6F6VUOZWQ4A3IP6S1FVDGSO21","8","0","AVOCADO","6","6","0","3600","avocado","6","2018-06-30 16:01:51","338858"
"A3VIDSSJ4J4M80","cs_wg_full_v3_real1","3AWETUDC92TF6FWJUULFVFTGMGSIZ8","9","0","PEBBLE","6","6","1","1262","pebble","6","2018-06-30 16:01:52","338859"
"A1KUXDQ9VECR4V","cs_wg_full_v3_real1","3Y5140Z9DXHLSBUD7LND4HR2CHLPIU","15","0","BASKET","1","6","1","1600","basket","1","2018-06-30 16:01:52","338860"
"AYG0DFCHLF8AF","cs_wg_full_v3_real1","3X65QVEQI0O4ONTFNJYKCXKNU20LCQ","2","0","JACKET","15","6","0","3793","JACKET","15","2018-06-30 16:01:53","338861"
"A26FWAX7VEHYS3","cs_wg_full_v3_real1","36TFCYNS44BQ5PLKNUF9YICQE3FXHX","7","0","BANQUET","6","6","0","2711","Banquet","6","2018-06-30 16:01:53","338862"
"A37UEMTX8CZFEK","cs_wg_full_v3_real1","3R0T90IZ1SDO2VFECS14Z5FFYLEGCF","13","0","POTATO","7","6","0","1627","potato","7","2018-06-30 16:01:54","338863"
"A184EIWAV7P9EH","cs_wg_full_v3_real1","3EA3QWIZ4IWJK3NKO2WX9RSZ1K6TI3","3","0","POTATO","5","6","1","4533","POTATO","5","2018-06-30 16:01:54","338864"
"A1XOORV7G5IVGI","cs_wg_full_v3_real1","3RSDURM96AN3LKKS2PT5WTMMOTHYEO","0","0","PUMPKIN","15","6","0","10446","Pumpkin","15","2018-06-30 16:01:55","338865"
"A1RTD65R1H8MQW","cs_wg_full_v3_real1","3DPNQGW4LLGJAYDT70M04GQ2CUV46P","4","0","GRENADE","6","6","0","2183","GRENADE","6","2018-06-30 16:01:55","338866"
"A1522U5W2U1DMN","cs_wg_full_v3_real1","3JRJSWSMQHM25HN4D40F6ZQ9FSN3EO","5","0","BASKET","15","6","1","9107","BASKET","15","2018-06-30 16:01:55","338867"
"A1S88VQY8G8CNC","cs_wg_full_v3_real1","3DZQRBDBSLG3F0SMEZKKVGUOGJW3SP","2","0","TURKEY","1","6","1","6786","turkey","1","2018-06-30 16:01:57","338868"
"A2SXNWRAVVKLQ9","cs_wg_full_v3_real1","3C44YUNSI1Q4K0ERF7M2DKBPKCDDPG","3","0","LIQUID","6","6","1","2516","LIQUID","6","2018-06-30 16:01:57","338869"
"AL337BAZEBO6C","cs_wg_full_v3_real1","3ITXP059PWKE0EUBHKC7BNBDCGHSJP","13","0","MONKEY","1","6","1","2377","monkey","1","2018-06-30 16:01:57","338870"
"A3RMV9ZGFJ0HHF","cs_wg_full_v3_real1","3VHHR074H3IYC6YJW2Q9WBS9TR9L7X","11","0","COWBOY","7","6","0","1663","cowboy","7","2018-06-30 16:01:57","338871"
"A175PJR0W3LO8I","cs_wg_full_v3_real1","33LKR6A5KEL8KXRMGVBRHSBDKIVT1B","1","0","BANANA","5","6","1","2366","banana","5","2018-06-30 16:01:58","338872"
"A1JRMSNROZ1JX5","cs_wg_full_v3_real1","3FQ5JJ512LPCVL8OR9VXD81K469NK7","11","0","BICYCLE","7","6","1","4302","bicycle","7","2018-06-30 16:01:58","338873"
"A23IRWAODQDAA7","cs_wg_full_v3_real1","32Z9ZLUT1LL3BG7SM3SDF5LX2ZAOHJ","11","0","BANQUET","6","6","0","4786","BANQUET","6","2018-06-30 16:01:59","338874"
"A2EW08X2I87RXL","cs_wg_full_v3_real1","3RWE2M8QWHBAIV1KNGLFUOMBQ840NF","6","0","SPATULA","6","6","0","4825","SPATULA","6","2018-06-30 16:01:59","338875"
"AX8U26GN8EIUD","cs_wg_full_v3_real1","3PM8NZGV8YH3IIKN6K237W4R5QBQXM","1","0","SPATULA","6","6","1","8104","spatula","6","2018-06-30 16:02:00","338876"
"A17497K07LP4RX","cs_wg_full_v3_real1","3VNL7UK1XFKZACLUNUQC6UF7LSETFC","7","0","MONKEY","1","6","1","1768","MONKEY","1","2018-06-30 16:02:00","338877"
"ANZNAAS2K0DSY","cs_wg_full_v3_real1","3R2UR8A0IAH0X677R7AZIR9RQPTXOL","11","0","CANCER","6","6","1","3486","CANCER","6","2018-06-30 16:02:00","338878"
"A34GD7YNGA18YF","cs_wg_full_v3_real1","3XC1O3LBOSNLA4VQ95TA17KRIO0TLH","6","0","ARCADE","7","6","1","2331","Arcade","7","2018-06-30 16:02:00","338879"
"A31JRP33Z83Y1C","cs_wg_full_v3_real1","31JLPPHS2UVOH80T7I3BBBKNJUT3OS","3","0","AVOCADO","5","6","0","3365","avacado","6","2018-06-30 16:02:00","338880"
"A168UD5L4AYS3P","cs_wg_full_v3_real1","3G5F9DBFOPYY10GPNFERAXF5YS7HVE","3","0","COWBOY","7","6","1","6502","cowboy","7","2018-06-30 16:02:01","338881"
"A1SHLWKA0UH1IS","cs_wg_full_v3_real1","37TD41K0AHARS0O57SVLOJYIMW8SCB","9","0","SPATULA","6","6","0","1943","Spatula","6","2018-06-30 16:02:01","338882"
"A3QVZ4SZB79D8W","cs_wg_full_v3_real1","3R6P78PK7KC5OCHPYEWUOFFJM7ETGB","4","0","VOLCANO","5","6","1","5367","volcano","5","2018-06-30 16:02:01","338883"
"AY2U544TCVPMQ","cs_wg_full_v3_real1","3GDTJDAPVUCMI2LN6JJUAO3T4G68MA","2","0","CHICKEN","1","6","0","2461","CHICKEN","1","2018-06-30 16:02:02","338884"
"A2UQ98FHANPPLW","cs_wg_full_v3_real1","3WJEQKOXA83351SDAVKAMNLLWTB1AZ","4","0","BASKET","15","6","0","2817","basket","15","2018-06-30 16:02:02","338885"
"A28AZTW9BRRPBL","cs_wg_full_v3_real1","34Q075JO1XE74OUVITNHXH98N7Z017","22","0","WIZARD","7","6","1","1739","wizard","7","2018-06-30 16:02:02","338886"
"A3QA0Y16Q4273V","cs_wg_full_v3_real1","3IOEN3P9S7K2IZGAKI3Y6IJZ0AL169","0","0","TURKEY","15","6","0","7399","turkey","15","2018-06-30 16:02:02","338887"
"A291OPFZ41D6CE","cs_wg_full_v3_real1","3DEL4X4EL6MCRKB9XUJXKI7T4ZSXYW","9","0","PICKLE","15","6","0","1922","pickle","15","2018-06-30 16:02:03","338888"
"AWFWUFAI33WB2","cs_wg_full_v3_real1","3OVHNO1VE62YY4GX2GK44ID3UBKZDN","0","0","TOMATO","6","6","1","3361","tomato","6","2018-06-30 16:02:04","338889"
"A37UEMTX8CZFEK","cs_wg_full_v3_real1","3R0T90IZ1SDO2VFECS14Z5FFYLEGCF","14","0","COWBOY","7","6","0","1887","cowboy","7","2018-06-30 16:02:04","338890"
"A2FVW2SCF5WKKH","cs_wg_full_v3_real1","3VA45EW49NOS75MEKEPSNI5QLAEO1K","5","0","AVOCADO","6","6","0","2786","avocado","6","2018-06-30 16:02:04","338891"
"A37H8GZCPJ3AA7","cs_wg_full_v3_real1","3300DTYQT2IUCIT6BFCBJ7JKPK0QED","6","0","MONKEY","1","6","1","3191","Monkey","1","2018-06-30 16:02:05","338892"
"A1KUXDQ9VECR4V","cs_wg_full_v3_real1","3Y5140Z9DXHLSBUD7LND4HR2CHLPIU","16","0","COMPANY","6","6","1","2179","company","6","2018-06-30 16:02:05","338893"
"A1GK5OMI073DJ2","cs_wg_full_v3_real1","3O6CYIULED2GLBMEDOQMFEN9Z9BUW2","6","0","VOLCANO","5","6","0","6997","volcano","5","2018-06-30 16:02:06","338894"
"A1QX1YDOAN4LNA","cs_wg_full_v3_real1","3HUTX6F6VUOZWQ4A3IP6S1FVDGSO21","9","0","SPATULA","6","6","0","3663","spatula","6","2018-06-30 16:02:06","338895"
"A2FV2U7RGBVK2T","cs_wg_full_v3_real1","36TFCYNS44BQ5PLKNUF9YICQE3FHXH","0","0","SMOKER","1","6","0","7388","smoker","1","2018-06-30 16:02:06","338896"
"AL337BAZEBO6C","cs_wg_full_v3_real1","3ITXP059PWKE0EUBHKC7BNBDCGHSJP","14","0","MONKEY","1","6","1","1432","monkey","1","2018-06-30 16:02:07","338897"
"A1RTD65R1H8MQW","cs_wg_full_v3_real1","3DPNQGW4LLGJAYDT70M04GQ2CUV46P","5","0","JACKET","1","6","1","4148","JACKET","1","2018-06-30 16:02:07","338898"
"A3VIDSSJ4J4M80","cs_wg_full_v3_real1","3AWETUDC92TF6FWJUULFVFTGMGSIZ8","10","0","CRICKET","15","6","1","2317","cricket","15","2018-06-30 16:02:07","338899"
"A3RMV9ZGFJ0HHF","cs_wg_full_v3_real1","3VHHR074H3IYC6YJW2Q9WBS9TR9L7X","12","0","CHICKEN","1","6","1","1689","chicken","1","2018-06-30 16:02:07","338900"
"A1JRMSNROZ1JX5","cs_wg_full_v3_real1","3FQ5JJ512LPCVL8OR9VXD81K469NK7","12","0","ARCADE","7","6","0","2124","arcade","7","2018-06-30 16:02:08","338901"
"A23IRWAODQDAA7","cs_wg_full_v3_real1","32Z9ZLUT1LL3BG7SM3SDF5LX2ZAOHJ","12","0","POTATO","6","6","1","3612","POTATO","6","2018-06-30 16:02:08","338902"
"A2SXNWRAVVKLQ9","cs_wg_full_v3_real1","3C44YUNSI1Q4K0ERF7M2DKBPKCDDPG","4","0","COWBOY","7","6","0","2776","COWBOY","7","2018-06-30 16:02:09","338903"
"A28AZTW9BRRPBL","cs_wg_full_v3_real1","34Q075JO1XE74OUVITNHXH98N7Z017","23","0","AIRBAG","5","6","1","1096","airbag","5","2018-06-30 16:02:10","338904"
"A26FWAX7VEHYS3","cs_wg_full_v3_real1","36TFCYNS44BQ5PLKNUF9YICQE3FXHX","8","0","BUCKET","15","6","1","6455","bucket ","15","2018-06-30 16:02:10","338905"
"A1522U5W2U1DMN","cs_wg_full_v3_real1","3JRJSWSMQHM25HN4D40F6ZQ9FSN3EO","6","0","BANQUET","6","6","0","2965","BANQUET","5","2018-06-30 16:02:11","338906"
"A2KEQODJB9HXDD","cs_wg_full_v3_real1","3LO69W1SU3EH5Z9KP5U32O52SUSLG0","8","0","AVOCADO","5","6","1","7092","AVOCADO","5","2018-06-30 16:02:11","338907"
"A184EIWAV7P9EH","cs_wg_full_v3_real1","3EA3QWIZ4IWJK3NKO2WX9RSZ1K6TI3","4","0","LIZARD","7","6","1","3530","LIZARD","7","2018-06-30 16:02:11","338908"
"A3QVZ4SZB79D8W","cs_wg_full_v3_real1","3R6P78PK7KC5OCHPYEWUOFFJM7ETGB","5","0","BAMBOO","7","6","0","2064","bamboo","7","2018-06-30 16:02:12","338909"
"A17497K07LP4RX","cs_wg_full_v3_real1","3VNL7UK1XFKZACLUNUQC6UF7LSETFC","8","0","GARBAGE","6","6","1","2691","GARBAGE","6","2018-06-30 16:02:13","338910"
"A2EW08X2I87RXL","cs_wg_full_v3_real1","3RWE2M8QWHBAIV1KNGLFUOMBQ840NF","7","0","ARCADE","7","6","0","3539","ARCADE","7","2018-06-30 16:02:13","338911"
"A1MCUKJZ15OSOY","cs_wg_full_v3_real1","3KXIR214I4HVSXUSKYAXE39QWPT246","0","0","COWBOY","6","6","0","4172","Cowboy","6","2018-06-30 16:02:13","338912"
"A175PJR0W3LO8I","cs_wg_full_v3_real1","33LKR6A5KEL8KXRMGVBRHSBDKIVT1B","2","0","COMPANY","6","6","1","1700","company","6","2018-06-30 16:02:13","338913"
"A291OPFZ41D6CE","cs_wg_full_v3_real1","3DEL4X4EL6MCRKB9XUJXKI7T4ZSXYW","10","0","BAMBOO","7","6","0","2770","bamboo","7","2018-06-30 16:02:14","338914"
"A34GD7YNGA18YF","cs_wg_full_v3_real1","3XC1O3LBOSNLA4VQ95TA17KRIO0TLH","7","0","PALACE","5","6","1","4153","Palace","5","2018-06-30 16:02:14","338915"
"A1S88VQY8G8CNC","cs_wg_full_v3_real1","3DZQRBDBSLG3F0SMEZKKVGUOGJW3SP","3","0","ISLAND","6","6","0","5106","island","6","2018-06-30 16:02:14","338916"
"ANZNAAS2K0DSY","cs_wg_full_v3_real1","3R2UR8A0IAH0X677R7AZIR9RQPTXOL","12","0","BASKET","15","6","0","1736","BASKET","15","2018-06-30 16:02:15","338917"
"A31JRP33Z83Y1C","cs_wg_full_v3_real1","31JLPPHS2UVOH80T7I3BBBKNJUT3OS","4","0","PELICAN","5","6","0","4399","pelican","6","2018-06-30 16:02:15","338918"
"A1SHLWKA0UH1IS","cs_wg_full_v3_real1","37TD41K0AHARS0O57SVLOJYIMW8SCB","10","0","TOMATO","7","6","0","1829","Tomato","7","2018-06-30 16:02:15","338919"
"AWFWUFAI33WB2","cs_wg_full_v3_real1","3OVHNO1VE62YY4GX2GK44ID3UBKZDN","1","0","CHICKEN","1","6","1","2804","chicken","1","2018-06-30 16:02:16","338920"
"A37UEMTX8CZFEK","cs_wg_full_v3_real1","3R0T90IZ1SDO2VFECS14Z5FFYLEGCF","15","0","BICYCLE","6","6","0","2222","bicycle","7","2018-06-30 16:02:16","338921"
"A1CUDX7TTS2W61","cs_wg_full_v3_real1","39U1BHVTDLS4U0513ZPA5LQAI29T33","0","0","WIZARD","6","6","1","4669","Wizard","6","2018-06-30 16:02:16","338922"
"AY2U544TCVPMQ","cs_wg_full_v3_real1","3GDTJDAPVUCMI2LN6JJUAO3T4G68MA","3","0","CHICKEN","1","6","1","3496","CHICKEN","1","2018-06-30 16:02:17","338923"
"A1KUXDQ9VECR4V","cs_wg_full_v3_real1","3Y5140Z9DXHLSBUD7LND4HR2CHLPIU","17","0","CRICKET","15","6","0","1470","criket","15","2018-06-30 16:02:17","338924"
"AL337BAZEBO6C","cs_wg_full_v3_real1","3ITXP059PWKE0EUBHKC7BNBDCGHSJP","15","0","JACKET","15","6","0","1849","jacket","15","2018-06-30 16:02:17","338925"
"A3RMV9ZGFJ0HHF","cs_wg_full_v3_real1","3VHHR074H3IYC6YJW2Q9WBS9TR9L7X","13","0","SMOKER","15","6","0","2079","smoker","15","2018-06-30 16:02:17","338926"
"A37H8GZCPJ3AA7","cs_wg_full_v3_real1","3300DTYQT2IUCIT6BFCBJ7JKPK0QED","7","0","CHICKEN","15","6","0","2054","Chicken","15","2018-06-30 16:02:17","338927"
"A28AZTW9BRRPBL","cs_wg_full_v3_real1","34Q075JO1XE74OUVITNHXH98N7Z017","24","0","AIRBAG","5","6","1","1301","airbag","5","2018-06-30 16:02:18","338928"
"A2FVW2SCF5WKKH","cs_wg_full_v3_real1","3VA45EW49NOS75MEKEPSNI5QLAEO1K","6","0","PICTURE","6","6","0","2459","picture","6","2018-06-30 16:02:19","338929"
"AYG0DFCHLF8AF","cs_wg_full_v3_real1","3X65QVEQI0O4ONTFNJYKCXKNU20LCQ","3","0","PICTURE","6","6","0","10490","PICTURE","6","2018-06-30 16:02:19","338930"
"A2UQ98FHANPPLW","cs_wg_full_v3_real1","3WJEQKOXA83351SDAVKAMNLLWTB1AZ","5","0","CANCER","5","6","1","4738","cancer","5","2018-06-30 16:02:19","338931"
"A168UD5L4AYS3P","cs_wg_full_v3_real1","3G5F9DBFOPYY10GPNFERAXF5YS7HVE","4","0","CANCER","7","6","1","3996","cancer","7","2018-06-30 16:02:19","338932"
"A1JRMSNROZ1JX5","cs_wg_full_v3_real1","3FQ5JJ512LPCVL8OR9VXD81K469NK7","13","0","RABBIT","5","6","1","3488","rabbit","5","2018-06-30 16:02:20","338933"
"A3VIDSSJ4J4M80","cs_wg_full_v3_real1","3AWETUDC92TF6FWJUULFVFTGMGSIZ8","11","0","COSTUME","6","6","0","2897","costume","6","2018-06-30 16:02:20","338934"
"A1RTD65R1H8MQW","cs_wg_full_v3_real1","3DPNQGW4LLGJAYDT70M04GQ2CUV46P","6","0","JACKET","1","6","1","1450","JACKET","1","2018-06-30 16:02:20","338935"
"A3QA0Y16Q4273V","cs_wg_full_v3_real1","3IOEN3P9S7K2IZGAKI3Y6IJZ0AL169","1","0","JACKET","1","6","0","7934","jacket ","1","2018-06-30 16:02:22","338936"
"A2SXNWRAVVKLQ9","cs_wg_full_v3_real1","3C44YUNSI1Q4K0ERF7M2DKBPKCDDPG","5","0","ISLAND","5","6","1","4784","ISLAND","5","2018-06-30 16:02:23","338937"
"A17497K07LP4RX","cs_wg_full_v3_real1","3VNL7UK1XFKZACLUNUQC6UF7LSETFC","9","0","GARBAGE","6","6","1","2089","GARBAGE","6","2018-06-30 16:02:23","338938"
"A1QX1YDOAN4LNA","cs_wg_full_v3_real1","3HUTX6F6VUOZWQ4A3IP6S1FVDGSO21","10","0","BLANKET","15","6","0","4924","blanket","15","2018-06-30 16:02:23","338939"
"A23IRWAODQDAA7","cs_wg_full_v3_real1","32Z9ZLUT1LL3BG7SM3SDF5LX2ZAOHJ","13","0","BICYCLE","7","6","0","5438","BICYCLE","7","2018-06-30 16:02:24","338940"
"A291OPFZ41D6CE","cs_wg_full_v3_real1","3DEL4X4EL6MCRKB9XUJXKI7T4ZSXYW","11","0","WIZARD","5","6","1","1973","wizard","5","2018-06-30 16:02:25","338941"
"A2NKD14TXBNA89","cs_wg_full_v3_real1","3C5W7UE9CFRCX3MVERVMQNKMVPEXM6","7","0","GARBAGE","5","6","0","12362","garbage","5","2018-06-30 16:02:25","338942"
"A1522U5W2U1DMN","cs_wg_full_v3_real1","3JRJSWSMQHM25HN4D40F6ZQ9FSN3EO","7","0","ACROBAT","6","6","1","4248","ACROBAT","6","2018-06-30 16:02:25","338943"
"A2FV2U7RGBVK2T","cs_wg_full_v3_real1","36TFCYNS44BQ5PLKNUF9YICQE3FHXH","1","0","SMOKER","1","6","1","2616","smoker","1","2018-06-30 16:02:25","338944"
"A175PJR0W3LO8I","cs_wg_full_v3_real1","33LKR6A5KEL8KXRMGVBRHSBDKIVT1B","3","0","BANQUET","6","6","1","2062","banquet","6","2018-06-30 16:02:26","338945"
"A2EW08X2I87RXL","cs_wg_full_v3_real1","3RWE2M8QWHBAIV1KNGLFUOMBQ840NF","8","0","MONKEY","15","6","0","2789","MONKEY","15","2018-06-30 16:02:26","338946"
"A37UEMTX8CZFEK","cs_wg_full_v3_real1","3R0T90IZ1SDO2VFECS14Z5FFYLEGCF","16","0","COWBOY","7","6","0","1266","cowboy","7","2018-06-30 16:02:26","338947"
"A28AZTW9BRRPBL","cs_wg_full_v3_real1","34Q075JO1XE74OUVITNHXH98N7Z017","25","0","BAMBOO","7","6","1","1232","bamboo","7","2018-06-30 16:02:26","338948"
"A3RMV9ZGFJ0HHF","cs_wg_full_v3_real1","3VHHR074H3IYC6YJW2Q9WBS9TR9L7X","14","0","AIRBAG","5","6","1","1346","airbag","5","2018-06-30 16:02:27","338949"
"ANZNAAS2K0DSY","cs_wg_full_v3_real1","3R2UR8A0IAH0X677R7AZIR9RQPTXOL","13","0","CRICKET","1","6","1","1768","CRICKET","1","2018-06-30 16:02:27","338950"
"A1MCUKJZ15OSOY","cs_wg_full_v3_real1","3KXIR214I4HVSXUSKYAXE39QWPT246","1","0","JACKET","15","6","0","2820","Jacket","15","2018-06-30 16:02:27","338951"
"A2KEQODJB9HXDD","cs_wg_full_v3_real1","3LO69W1SU3EH5Z9KP5U32O52SUSLG0","9","0","COWBOY","5","6","1","2685","COWBOY","5","2018-06-30 16:02:27","338952"
"A34GD7YNGA18YF","cs_wg_full_v3_real1","3XC1O3LBOSNLA4VQ95TA17KRIO0TLH","8","0","ARCADE","7","6","0","4405","Arcade","7","2018-06-30 16:02:27","338953"
"A1XOORV7G5IVGI","cs_wg_full_v3_real1","3RSDURM96AN3LKKS2PT5WTMMOTHYEO","1","0","CRICKET","1","6","0","15713","CRICKET","1","2018-06-30 16:02:27","338954"
"AWFWUFAI33WB2","cs_wg_full_v3_real1","3OVHNO1VE62YY4GX2GK44ID3UBKZDN","2","0","BLANKET","15","6","1","2329","blanket","15","2018-06-30 16:02:27","338955"
"AL337BAZEBO6C","cs_wg_full_v3_real1","3ITXP059PWKE0EUBHKC7BNBDCGHSJP","16","0","MONKEY","1","6","1","2313","monkey","1","2018-06-30 16:02:27","338956"
"A8E99XNOTT390","cs_wg_full_v3_real1","3VP0C6EFSGXZEO2ZD4MWQA72YLG6MM","1","0","BUCKET","1","6","1","5384","Bucket","1","2018-06-30 16:02:28","338957"
"A3US0UZCOXGI13","cs_wg_full_v3_real1","35BLDD71I6YKSLGJT1KYA4JAUIOZVM","0","0","PEBBLE","5","6","0","4397","pebble","5","2018-06-30 16:02:28","338958"
"A1GK5OMI073DJ2","cs_wg_full_v3_real1","3O6CYIULED2GLBMEDOQMFEN9Z9BUW2","7","0","ARCADE","7","6","0","12486","arcade","7","2018-06-30 16:02:28","338959"
"A184EIWAV7P9EH","cs_wg_full_v3_real1","3EA3QWIZ4IWJK3NKO2WX9RSZ1K6TI3","5","0","GARBAGE","5","6","1","5805","GARBAGE","5","2018-06-30 16:02:28","338960"
"A1KUXDQ9VECR4V","cs_wg_full_v3_real1","3Y5140Z9DXHLSBUD7LND4HR2CHLPIU","18","0","SPATULA","6","6","1","1903","spatula","6","2018-06-30 16:02:29","338961"
"A31JRP33Z83Y1C","cs_wg_full_v3_real1","31JLPPHS2UVOH80T7I3BBBKNJUT3OS","5","0","PELICAN","5","6","1","4467","pelican","6","2018-06-30 16:02:31","338962"
"AX8U26GN8EIUD","cs_wg_full_v3_real1","3PM8NZGV8YH3IIKN6K237W4R5QBQXM","2","0","TURKEY","15","6","0","5983","turkey","5","2018-06-30 16:02:31","338963"
"A1SHLWKA0UH1IS","cs_wg_full_v3_real1","37TD41K0AHARS0O57SVLOJYIMW8SCB","11","0","BAMBOO","6","6","1","5332","Bamboo","6","2018-06-30 16:02:31","338964"
"A3VIDSSJ4J4M80","cs_wg_full_v3_real1","3AWETUDC92TF6FWJUULFVFTGMGSIZ8","12","0","CHICKEN","1","6","1","1920","chicken","1","2018-06-30 16:02:31","338965"
"A3HT6SY4V8ZRZW","cs_wg_full_v3_real1","3ND9UOO81K3D2LZK4AYLORRQMIIWLA","0","0","AIRBAG","6","6","1","6824","airbag","6","2018-06-30 16:02:31","338966"
"AHPUQCTR1STXR","cs_wg_full_v3_real1","36AHBNMV1RDYTE6S6UILQB41OHHDYB","0","0","TURKEY","1","6","0","6071","Turkey","1","2018-06-30 16:02:33","338967"
"A17497K07LP4RX","cs_wg_full_v3_real1","3VNL7UK1XFKZACLUNUQC6UF7LSETFC","10","0","MONKEY","1","6","1","1991","MONKEY","1","2018-06-30 16:02:33","338968"
"A1S88VQY8G8CNC","cs_wg_full_v3_real1","3DZQRBDBSLG3F0SMEZKKVGUOGJW3SP","4","0","TURKEY","1","6","1","4939","turkey","1","2018-06-30 16:02:34","338969"
"A2UQ98FHANPPLW","cs_wg_full_v3_real1","3WJEQKOXA83351SDAVKAMNLLWTB1AZ","6","0","PEBBLE","5","6","1","4200","pebble","5","2018-06-30 16:02:34","338970"
"A1RTD65R1H8MQW","cs_wg_full_v3_real1","3DPNQGW4LLGJAYDT70M04GQ2CUV46P","7","0","BUCKET","15","6","1","7615","BUCKET","15","2018-06-30 16:02:35","338971"
"A26FWAX7VEHYS3","cs_wg_full_v3_real1","36TFCYNS44BQ5PLKNUF9YICQE3FXHX","9","0","PALACE","7","6","0","2714","Palace","7","2018-06-30 16:02:36","338972"
"A23IRWAODQDAA7","cs_wg_full_v3_real1","32Z9ZLUT1LL3BG7SM3SDF5LX2ZAOHJ","14","0","BUCKET","1","6","1","5841","BUCKET","1","2018-06-30 16:02:36","338973"
"AYG0DFCHLF8AF","cs_wg_full_v3_real1","3X65QVEQI0O4ONTFNJYKCXKNU20LCQ","4","0","JACKET","15","6","0","7844","JACKET","6","2018-06-30 16:02:36","338974"
"AL337BAZEBO6C","cs_wg_full_v3_real1","3ITXP059PWKE0EUBHKC7BNBDCGHSJP","17","0","JACKET","15","6","0","873","jacket","15","2018-06-30 16:02:36","338975"
"A1JRMSNROZ1JX5","cs_wg_full_v3_real1","3FQ5JJ512LPCVL8OR9VXD81K469NK7","14","0","AVOCADO","5","6","1","5333","avocado","5","2018-06-30 16:02:36","338976"
"A37H8GZCPJ3AA7","cs_wg_full_v3_real1","3300DTYQT2IUCIT6BFCBJ7JKPK0QED","8","0","CHICKEN","15","6","0","1653","Chicken","16","2018-06-30 16:02:36","338977"
"A2SXNWRAVVKLQ9","cs_wg_full_v3_real1","3C44YUNSI1Q4K0ERF7M2DKBPKCDDPG","6","0","COMPANY","6","6","0","2813","COMPANY","6","2018-06-30 16:02:36","338978"
"A3QA0Y16Q4273V","cs_wg_full_v3_real1","3IOEN3P9S7K2IZGAKI3Y6IJZ0AL169","2","0","BANANA","6","6","0","2676","banana","6","2018-06-30 16:02:37","338979"
"A168UD5L4AYS3P","cs_wg_full_v3_real1","3G5F9DBFOPYY10GPNFERAXF5YS7HVE","5","0","CANCER","7","6","0","4770","cancer",,"2018-06-30 16:02:37","338980"
"A3RMV9ZGFJ0HHF","cs_wg_full_v3_real1","3VHHR074H3IYC6YJW2Q9WBS9TR9L7X","15","0","COWBOY","7","6","0","2006","cowboy","7","2018-06-30 16:02:38","338981"
"A2NKD14TXBNA89","cs_wg_full_v3_real1","3C5W7UE9CFRCX3MVERVMQNKMVPEXM6","8","0","LIQUID","6","6","0","4673","LIQUID","6","2018-06-30 16:02:38","338982"
"A1MCUKJZ15OSOY","cs_wg_full_v3_real1","3KXIR214I4HVSXUSKYAXE39QWPT246","2","0","COWBOY","6","6","0","3420","Cowboy","6","2018-06-30 16:02:38","338983"
"A291OPFZ41D6CE","cs_wg_full_v3_real1","3DEL4X4EL6MCRKB9XUJXKI7T4ZSXYW","12","0","ARCADE","5","6","0","2450","arcade","5","2018-06-30 16:02:38","338984"
"A175PJR0W3LO8I","cs_wg_full_v3_real1","33LKR6A5KEL8KXRMGVBRHSBDKIVT1B","4","0","BANQUET","6","6","1","3218","banquet","6","2018-06-30 16:02:39","338985"
"A1QX1YDOAN4LNA","cs_wg_full_v3_real1","3HUTX6F6VUOZWQ4A3IP6S1FVDGSO21","11","0","SPATULA","6","6","0","1935","spatula","6","2018-06-30 16:02:39","338986"
"A1VGZ87KEGN5NE","cs_wg_full_v3_real1","337RC3OW0530NWZFE0TP2P8CF9GVLZ","0","0","CANCER","6","6","1","5700","Cancer","6","2018-06-30 16:02:39","338987"
"A37UEMTX8CZFEK","cs_wg_full_v3_real1","3R0T90IZ1SDO2VFECS14Z5FFYLEGCF","17","0","COMPANY","5","6","1","4134","company","5","2018-06-30 16:02:39","338988"
"AWFWUFAI33WB2","cs_wg_full_v3_real1","3OVHNO1VE62YY4GX2GK44ID3UBKZDN","3","0","BLANKET","15","6","0","2885","blanket","15","2018-06-30 16:02:40","338989"
"A1KUXDQ9VECR4V","cs_wg_full_v3_real1","3Y5140Z9DXHLSBUD7LND4HR2CHLPIU","19","0","COMPANY","6","6","0","1333","company","6","2018-06-30 16:02:40","338990"
"A34GD7YNGA18YF","cs_wg_full_v3_real1","3XC1O3LBOSNLA4VQ95TA17KRIO0TLH","9","0","SUNBURN","6","6","0","3936","Sunburn","6","2018-06-30 16:02:41","338991"
"AKVW5S75T7L15","cs_wg_full_v3_real1","39U1BHVTDLS4U0513ZPA5LQAI2A3TE","0","0","PICTURE","6","6","1","4722","Points","6","2018-06-30 16:02:41","338992"
"AY2U544TCVPMQ","cs_wg_full_v3_real1","3GDTJDAPVUCMI2LN6JJUAO3T4G68MA","4","0","SUNBURN","6","6","0","15154","SUNBURN","6","2018-06-30 16:02:41","338993"
"ANZNAAS2K0DSY","cs_wg_full_v3_real1","3R2UR8A0IAH0X677R7AZIR9RQPTXOL","14","0","CANCER","6","6","0","2650","CANCER","6","2018-06-30 16:02:41","338994"
"A28AZTW9BRRPBL","cs_wg_full_v3_real1","34Q075JO1XE74OUVITNHXH98N7Z017","26","0","ISLAND","7","6","0","4115","island","7","2018-06-30 16:02:41","338995"
"A2FVW2SCF5WKKH","cs_wg_full_v3_real1","3VA45EW49NOS75MEKEPSNI5QLAEO1K","7","0","PICTURE","6","6","0","3586","picture","6","2018-06-30 16:02:41","338996"
"A1GK5OMI073DJ2","cs_wg_full_v3_real1","3O6CYIULED2GLBMEDOQMFEN9Z9BUW2","8","0","WIZARD","7","6","0","3666","wizard","7","2018-06-30 16:02:42","338997"
"A2EW08X2I87RXL","cs_wg_full_v3_real1","3RWE2M8QWHBAIV1KNGLFUOMBQ840NF","9","0","BICYCLE","5","6","0","3981","BICYCLE","5","2018-06-30 16:02:42","338998"
"A17497K07LP4RX","cs_wg_full_v3_real1","3VNL7UK1XFKZACLUNUQC6UF7LSETFC","11","0","MONKEY","1","6","1","1776","MONKEY","1","2018-06-30 16:02:42","338999"
"A8E99XNOTT390","cs_wg_full_v3_real1","3VP0C6EFSGXZEO2ZD4MWQA72YLG6MM","2","0","SPATULA","6","6","0","4149","spatula","6","2018-06-30 16:02:43","339000"
"A3US0UZCOXGI13","cs_wg_full_v3_real1","35BLDD71I6YKSLGJT1KYA4JAUIOZVM","1","0","GRENADE","5","6","0","3728","grenade","5","2018-06-30 16:02:43","339001"
"A184EIWAV7P9EH","cs_wg_full_v3_real1","3EA3QWIZ4IWJK3NKO2WX9RSZ1K6TI3","6","0","AIRBAG","6","6","0","3291","AIRBAG","6","2018-06-30 16:02:44","339002"
"A2NHPAN4850DQ4","cs_wg_full_v3_real1","3WLEIWSYHOIP49INZ5UG8SIU1UF2HS","0","0","PUMPKIN","15","6","0","4652","Pumpkin","15","2018-06-30 16:02:45","339003"
"A1SHLWKA0UH1IS","cs_wg_full_v3_real1","37TD41K0AHARS0O57SVLOJYIMW8SCB","12","0","CANCER","5","6","1","3149","Cancer","5","2018-06-30 16:02:45","339004"
"A2FV2U7RGBVK2T","cs_wg_full_v3_real1","36TFCYNS44BQ5PLKNUF9YICQE3FHXH","2","0","BLANKET","15","6","1","8262","blanket","15","2018-06-30 16:02:45","339005"
"A2UQ98FHANPPLW","cs_wg_full_v3_real1","3WJEQKOXA83351SDAVKAMNLLWTB1AZ","7","0","POTATO","7","6","0","2080","potato","7","2018-06-30 16:02:47","339006"
"A2KEQODJB9HXDD","cs_wg_full_v3_real1","3LO69W1SU3EH5Z9KP5U32O52SUSLG0","10","0","PALACE","7","6","0","6037","PALACE","7","2018-06-30 16:02:47","339007"
"A26FWAX7VEHYS3","cs_wg_full_v3_real1","36TFCYNS44BQ5PLKNUF9YICQE3FXHX","10","0","PALACE","7","6","0","3487","Palace","7","2018-06-30 16:02:48","339008"
"AL337BAZEBO6C","cs_wg_full_v3_real1","3ITXP059PWKE0EUBHKC7BNBDCGHSJP","18","0","BAMBOO","6","6","0","2016","bamboo","6","2018-06-30 16:02:48","339009"
"A1S88VQY8G8CNC","cs_wg_full_v3_real1","3DZQRBDBSLG3F0SMEZKKVGUOGJW3SP","5","0","TURKEY","1","6","1","3634","turkey","1","2018-06-30 16:02:48","339010"
"A1522U5W2U1DMN","cs_wg_full_v3_real1","3JRJSWSMQHM25HN4D40F6ZQ9FSN3EO","8","0","VOLCANO","7","6","0","8048","VOLCANO","6","2018-06-30 16:02:48","339011"
"A3RMV9ZGFJ0HHF","cs_wg_full_v3_real1","3VHHR074H3IYC6YJW2Q9WBS9TR9L7X","16","0","GRENADE","7","6","1","2642","grenade","7","2018-06-30 16:02:48","339012"
"A291OPFZ41D6CE","cs_wg_full_v3_real1","3DEL4X4EL6MCRKB9XUJXKI7T4ZSXYW","13","0","BANQUET","6","6","0","2098","banquet","6","2018-06-30 16:02:49","339013"
"A1JRMSNROZ1JX5","cs_wg_full_v3_real1","3FQ5JJ512LPCVL8OR9VXD81K469NK7","15","0","ARCADE","7","6","1","4736","arcade","7","2018-06-30 16:02:49","339014"
"A2SXNWRAVVKLQ9","cs_wg_full_v3_real1","3C44YUNSI1Q4K0ERF7M2DKBPKCDDPG","7","0","ISLAND","5","6","1","2520","ISLAND","5","2018-06-30 16:02:49","339015"
"AHPUQCTR1STXR","cs_wg_full_v3_real1","36AHBNMV1RDYTE6S6UILQB41OHHDYB","1","0","RABBIT","6","6","0","3665","RABBIT","6","2018-06-30 16:02:49","339016"
"A37UEMTX8CZFEK","cs_wg_full_v3_real1","3R0T90IZ1SDO2VFECS14Z5FFYLEGCF","18","0","PEBBLE","5","6","1","2294","pebble","5","2018-06-30 16:02:50","339017"
"AWFWUFAI33WB2","cs_wg_full_v3_real1","3OVHNO1VE62YY4GX2GK44ID3UBKZDN","4","0","BLANKET","15","6","0","1471","blanket","15","2018-06-30 16:02:50","339018"
"A3VIDSSJ4J4M80","cs_wg_full_v3_real1","3AWETUDC92TF6FWJUULFVFTGMGSIZ8","13","0","CHICKEN","1","6","1","7929","chicken","1","2018-06-30 16:02:50","339019"
"AX8U26GN8EIUD","cs_wg_full_v3_real1","3PM8NZGV8YH3IIKN6K237W4R5QBQXM","3","0","WIZARD","6","6","0","4916","wizard","6","2018-06-30 16:02:50","339020"
"A1KUXDQ9VECR4V","cs_wg_full_v3_real1","3Y5140Z9DXHLSBUD7LND4HR2CHLPIU","20","0","SPATULA","6","6","0","2283","spatula","6","2018-06-30 16:02:51","339021"
"A37H8GZCPJ3AA7","cs_wg_full_v3_real1","3300DTYQT2IUCIT6BFCBJ7JKPK0QED","9","0","CHICKEN","15","6","0","1816","Chicken","15","2018-06-30 16:02:51","339022"
"A3QVZ4SZB79D8W","cs_wg_full_v3_real1","3R6P78PK7KC5OCHPYEWUOFFJM7ETGB","6","0","PENGUIN","6","6","0","5240","pengein","5","2018-06-30 16:02:51","339023"
"A1RTD65R1H8MQW","cs_wg_full_v3_real1","3DPNQGW4LLGJAYDT70M04GQ2CUV46P","8","0","BUCKET","15","6","1","8752","BUCKET","15","2018-06-30 16:02:52","339024"
"A1MCUKJZ15OSOY","cs_wg_full_v3_real1","3KXIR214I4HVSXUSKYAXE39QWPT246","3","0","COSTUME","6","6","0","2564","Costume","6","2018-06-30 16:02:52","339025"
"A3QA0Y16Q4273V","cs_wg_full_v3_real1","3IOEN3P9S7K2IZGAKI3Y6IJZ0AL169","3","0","JACKET","1","6","1","3120","jacket","1","2018-06-30 16:02:52","339026"
"A34GD7YNGA18YF","cs_wg_full_v3_real1","3XC1O3LBOSNLA4VQ95TA17KRIO0TLH","10","0","TOMATO","5","6","1","2080","Tomato","5","2018-06-30 16:02:53","339027"
"A23IRWAODQDAA7","cs_wg_full_v3_real1","32Z9ZLUT1LL3BG7SM3SDF5LX2ZAOHJ","15","0","VOLCANO","5","6","1","7973","VOLCANO","5","2018-06-30 16:02:53","339028"
"A175PJR0W3LO8I","cs_wg_full_v3_real1","33LKR6A5KEL8KXRMGVBRHSBDKIVT1B","5","0","GRENADE","7","6","1","2530","grenade","7","2018-06-30 16:02:53","339029"
"A28AZTW9BRRPBL","cs_wg_full_v3_real1","34Q075JO1XE74OUVITNHXH98N7Z017","27","0","CHICKEN","15","6","0","2916","chicken","15","2018-06-30 16:02:53","339030"
"A8E99XNOTT390","cs_wg_full_v3_real1","3VP0C6EFSGXZEO2ZD4MWQA72YLG6MM","3","0","SPATULA","6","6","0","2837","spatula","6","2018-06-30 16:02:54","339031"
"A1QX1YDOAN4LNA","cs_wg_full_v3_real1","3HUTX6F6VUOZWQ4A3IP6S1FVDGSO21","12","0","AVOCADO","6","6","0","4528","avocado","6","2018-06-30 16:02:55","339032"
"A168UD5L4AYS3P","cs_wg_full_v3_real1","3G5F9DBFOPYY10GPNFERAXF5YS7HVE","6","0","LIZARD","6","6","0","4055","lizard","6","2018-06-30 16:02:55","339033"
"AY2U544TCVPMQ","cs_wg_full_v3_real1","3GDTJDAPVUCMI2LN6JJUAO3T4G68MA","5","0","BAMBOO","6","6","1","4905","BAMBOO","6","2018-06-30 16:02:55","339034"
"AD368A1RHHRC3","cs_wg_full_v3_real1","3M68NM076H8QB4FRICIDC91C48ER6U","0","0","AIRBAG","6","6","1","6755","airbag","6","2018-06-30 16:02:56","339035"
"A17497K07LP4RX","cs_wg_full_v3_real1","3VNL7UK1XFKZACLUNUQC6UF7LSETFC","12","0","SPATULA","6","6","0","4868","SPATULA","6","2018-06-30 16:02:56","339036"
"A1GK5OMI073DJ2","cs_wg_full_v3_real1","3O6CYIULED2GLBMEDOQMFEN9Z9BUW2","9","0","GARBAGE","6","6","1","3672","garbage","6","2018-06-30 16:02:56","339037"
"A1XOORV7G5IVGI","cs_wg_full_v3_real1","3RSDURM96AN3LKKS2PT5WTMMOTHYEO","2","0","PICTURE","6","6","0","12561","PICTURE","6","2018-06-30 16:02:56","339038"
"A2EW08X2I87RXL","cs_wg_full_v3_real1","3RWE2M8QWHBAIV1KNGLFUOMBQ840NF","10","0","WIZARD","5","6","0","3446","WIZARD","5","2018-06-30 16:02:56","339039"
"A2NKD14TXBNA89","cs_wg_full_v3_real1","3C5W7UE9CFRCX3MVERVMQNKMVPEXM6","9","0","PEBBLE","7","6","0","6778","PEBBLE","7","2018-06-30 16:02:57","339040"
"A1CUDX7TTS2W61","cs_wg_full_v3_real1","39U1BHVTDLS4U0513ZPA5LQAI29T33","1","0","BASKET","15","6","0","7722","basket","15","2018-06-30 16:02:58","339041"
"AL337BAZEBO6C","cs_wg_full_v3_real1","3ITXP059PWKE0EUBHKC7BNBDCGHSJP","19","0","JACKET","15","6","0","889","jacket","15","2018-06-30 16:02:58","339042"
"AYG0DFCHLF8AF","cs_wg_full_v3_real1","3X65QVEQI0O4ONTFNJYKCXKNU20LCQ","5","0","PICTURE","6","6","0","10924","PICTURE","6","2018-06-30 16:02:58","339043"
"A184EIWAV7P9EH","cs_wg_full_v3_real1","3EA3QWIZ4IWJK3NKO2WX9RSZ1K6TI3","7","0","MONKEY","15","6","0","2074","MONKEY","15","2018-06-30 16:02:58","339044"
"A3US0UZCOXGI13","cs_wg_full_v3_real1","35BLDD71I6YKSLGJT1KYA4JAUIOZVM","2","0","BUCKET","15","6","0","3704","bucket","15","2018-06-30 16:02:58","339045"
"A2NHPAN4850DQ4","cs_wg_full_v3_real1","3WLEIWSYHOIP49INZ5UG8SIU1UF2HS","1","0","JACKET","1","6","1","3568","Jacket","1","2018-06-30 16:02:58","339046"
"A2KEQODJB9HXDD","cs_wg_full_v3_real1","3LO69W1SU3EH5Z9KP5U32O52SUSLG0","11","0","ISLAND","7","6","0","2994","ISLAND","7","2018-06-30 16:02:59","339047"
"A1SHLWKA0UH1IS","cs_wg_full_v3_real1","37TD41K0AHARS0O57SVLOJYIMW8SCB","13","0","RABBIT","5","6","1","3532","Rabbit","5","2018-06-30 16:02:59","339048"
"ANZNAAS2K0DSY","cs_wg_full_v3_real1","3R2UR8A0IAH0X677R7AZIR9RQPTXOL","15","0","BASKET","15","6","0","1354","BASKET","1515","2018-06-30 16:02:59","339049"
"A3HT6SY4V8ZRZW","cs_wg_full_v3_real1","3ND9UOO81K3D2LZK4AYLORRQMIIWLA","1","0","AIRBAG","6","6","1","5991","airbag","6","2018-06-30 16:03:00","339050"
"AWFWUFAI33WB2","cs_wg_full_v3_real1","3OVHNO1VE62YY4GX2GK44ID3UBKZDN","5","0","BANQUET","6","6","1","2016","banquet","6","2018-06-30 16:03:00","339051"
"A291OPFZ41D6CE","cs_wg_full_v3_real1","3DEL4X4EL6MCRKB9XUJXKI7T4ZSXYW","14","0","TURKEY","1","6","0","3231","turkey","1","2018-06-30 16:03:00","339052"
"A2SXNWRAVVKLQ9","cs_wg_full_v3_real1","3C44YUNSI1Q4K0ERF7M2DKBPKCDDPG","8","0","AVOCADO","5","6","1","1735","AVOCADO","5","2018-06-30 16:03:01","339053"
"A2UQ98FHANPPLW","cs_wg_full_v3_real1","3WJEQKOXA83351SDAVKAMNLLWTB1AZ","8","0","PENGUIN","6","6","0","2312","penguin","6","2018-06-30 16:03:01","339054"
"A2FVW2SCF5WKKH","cs_wg_full_v3_real1","3VA45EW49NOS75MEKEPSNI5QLAEO1K","8","0","TURKEY","15","6","0","4073","turkey","16","2018-06-30 16:03:02","339055"
"A3RMV9ZGFJ0HHF","cs_wg_full_v3_real1","3VHHR074H3IYC6YJW2Q9WBS9TR9L7X","17","0","AIRBAG","5","6","1","4865","airbag","5","2018-06-30 16:03:02","339056"
"A31JRP33Z83Y1C","cs_wg_full_v3_real1","31JLPPHS2UVOH80T7I3BBBKNJUT3OS","6","0","POTATO","7","6","1","3635","patato","7","2018-06-30 16:03:02","339057"
"A2FV2U7RGBVK2T","cs_wg_full_v3_real1","36TFCYNS44BQ5PLKNUF9YICQE3FHXH","3","0","BLANKET","15","6","0","2915","blanket","15","2018-06-30 16:03:02","339058"
"A1KUXDQ9VECR4V","cs_wg_full_v3_real1","3Y5140Z9DXHLSBUD7LND4HR2CHLPIU","21","0","CRICKET","15","6","0","1246","cricket","15","2018-06-30 16:03:02","339059"
"A3QVZ4SZB79D8W","cs_wg_full_v3_real1","3R6P78PK7KC5OCHPYEWUOFFJM7ETGB","7","0","AVOCADO","7","6","0","2671","avacado","7","2018-06-30 16:03:02","339060"
"A26FWAX7VEHYS3","cs_wg_full_v3_real1","36TFCYNS44BQ5PLKNUF9YICQE3FXHX","11","0","BAMBOO","5","6","0","1784","Banboo","5","2018-06-30 16:03:03","339061"
"A1JRMSNROZ1JX5","cs_wg_full_v3_real1","3FQ5JJ512LPCVL8OR9VXD81K469NK7","16","0","SQUARE","5","6","0","2189","square","5","2018-06-30 16:03:04","339062"
"A1522U5W2U1DMN","cs_wg_full_v3_real1","3JRJSWSMQHM25HN4D40F6ZQ9FSN3EO","9","0","BANQUET","6","6","1","5945","BANQUET","6","2018-06-30 16:03:04","339063"
"A23IRWAODQDAA7","cs_wg_full_v3_real1","32Z9ZLUT1LL3BG7SM3SDF5LX2ZAOHJ","16","0","SQUARE","7","6","1","5057","SQUARE","7","2018-06-30 16:03:04","339064"
"A1MCUKJZ15OSOY","cs_wg_full_v3_real1","3KXIR214I4HVSXUSKYAXE39QWPT246","4","0","JACKET","15","6","0","1972","Jacket","15","2018-06-30 16:03:04","339065"
"A1RTD65R1H8MQW","cs_wg_full_v3_real1","3DPNQGW4LLGJAYDT70M04GQ2CUV46P","9","0","JACKET","1","6","1","1680","JACKET","1","2018-06-30 16:03:04","339066"
"A175PJR0W3LO8I","cs_wg_full_v3_real1","33LKR6A5KEL8KXRMGVBRHSBDKIVT1B","6","0","PUMPKIN","1","6","0","1948","pumpkin","1","2018-06-30 16:03:05","339067"
"A34GD7YNGA18YF","cs_wg_full_v3_real1","3XC1O3LBOSNLA4VQ95TA17KRIO0TLH","11","0","LIZARD","6","6","1","2867","Lizard","6","2018-06-30 16:03:05","339068"
"A28AZTW9BRRPBL","cs_wg_full_v3_real1","34Q075JO1XE74OUVITNHXH98N7Z017","28","0","AIRBAG","5","6","1","6144","airbag","5","2018-06-30 16:03:06","339069"
"A37UEMTX8CZFEK","cs_wg_full_v3_real1","3R0T90IZ1SDO2VFECS14Z5FFYLEGCF","19","0","BLANKET","15","6","0","5121","blanket","15","2018-06-30 16:03:06","339070"
"A17497K07LP4RX","cs_wg_full_v3_real1","3VNL7UK1XFKZACLUNUQC6UF7LSETFC","13","0","SPATULA","6","6","0","1684","SPATULA","6","2018-06-30 16:03:06","339071"
"A3QA0Y16Q4273V","cs_wg_full_v3_real1","3IOEN3P9S7K2IZGAKI3Y6IJZ0AL169","4","0","PENGUIN","6","6","0","2770","penguin","6","2018-06-30 16:03:06","339072"
"A37H8GZCPJ3AA7","cs_wg_full_v3_real1","3300DTYQT2IUCIT6BFCBJ7JKPK0QED","10","0","LIQUID","6","6","0","4741","Liquid","6","2018-06-30 16:03:07","339073"
"AY2U544TCVPMQ","cs_wg_full_v3_real1","3GDTJDAPVUCMI2LN6JJUAO3T4G68MA","6","0","CHICKEN","1","6","1","2113","CHICKEN","1","2018-06-30 16:03:07","339074"
"A3TX2KJ7VJG3N0","cs_wg_full_v3_real1","3QXNC7EIPIWPTTXQM62ACNRRLJN90P","0","0","TOMATO","7","6","1","7068","TOMATO","7","2018-06-30 16:03:08","339075"
"AHPUQCTR1STXR","cs_wg_full_v3_real1","36AHBNMV1RDYTE6S6UILQB41OHHDYB","2","0","SPATULA","6","6","0","6160","SPATULA","6","2018-06-30 16:03:08","339076"
"A8E99XNOTT390","cs_wg_full_v3_real1","3VP0C6EFSGXZEO2ZD4MWQA72YLG6MM","4","0","BUCKET","1","6","1","3637","bucket","1","2018-06-30 16:03:08","339077"
"A2EW08X2I87RXL","cs_wg_full_v3_real1","3RWE2M8QWHBAIV1KNGLFUOMBQ840NF","11","0","PEBBLE","7","6","0","2588","PEBBLE","7","2018-06-30 16:03:08","339078"
"A3VIDSSJ4J4M80","cs_wg_full_v3_real1","3AWETUDC92TF6FWJUULFVFTGMGSIZ8","14","0","COSTUME","6","6","1","7034","costume","6","2018-06-30 16:03:08","339079"
"AL337BAZEBO6C","cs_wg_full_v3_real1","3ITXP059PWKE0EUBHKC7BNBDCGHSJP","20","0","MONKEY","1","6","1","2024","monkey","1","2018-06-30 16:03:08","339080"
"A1GK5OMI073DJ2","cs_wg_full_v3_real1","3O6CYIULED2GLBMEDOQMFEN9Z9BUW2","10","0","ARCADE","7","6","0","3306","arcade","7","2018-06-30 16:03:09","339081"
"A1QX1YDOAN4LNA","cs_wg_full_v3_real1","3HUTX6F6VUOZWQ4A3IP6S1FVDGSO21","13","0","SPATULA","6","6","0","2506","spatula","6","2018-06-30 16:03:09","339082"
"AWFWUFAI33WB2","cs_wg_full_v3_real1","3OVHNO1VE62YY4GX2GK44ID3UBKZDN","6","0","TOMATO","6","6","1","1952","tomato","6","2018-06-30 16:03:10","339083"
"A2SXNWRAVVKLQ9","cs_wg_full_v3_real1","3C44YUNSI1Q4K0ERF7M2DKBPKCDDPG","9","0","CHICKEN","1","6","1","1851","CHICKEN","1","2018-06-30 16:03:10","339084"
"A1VGZ87KEGN5NE","cs_wg_full_v3_real1","337RC3OW0530NWZFE0TP2P8CF9GVLZ","1","0","BLANKET","15","6","0","15166","Blanket","15","2018-06-30 16:03:11","339085"
"AKVW5S75T7L15","cs_wg_full_v3_real1","39U1BHVTDLS4U0513ZPA5LQAI2A3TE","1","0","PICTURE","6","6","0","9758","Picture","6","2018-06-30 16:03:12","339086"
"A1KUXDQ9VECR4V","cs_wg_full_v3_real1","3Y5140Z9DXHLSBUD7LND4HR2CHLPIU","22","0","BASKET","1","6","1","1736","basket ","1","2018-06-30 16:03:12","339087"
"A3US0UZCOXGI13","cs_wg_full_v3_real1","35BLDD71I6YKSLGJT1KYA4JAUIOZVM","3","0","COMPANY","7","6","0","3072","company","7","2018-06-30 16:03:12","339088"
"A184EIWAV7P9EH","cs_wg_full_v3_real1","3EA3QWIZ4IWJK3NKO2WX9RSZ1K6TI3","8","0","GARBAGE","5","6","1","3720","GARBAGE","5","2018-06-30 16:03:13","339089"
"A23IRWAODQDAA7","cs_wg_full_v3_real1","32Z9ZLUT1LL3BG7SM3SDF5LX2ZAOHJ","17","0","VOLCANO","5","6","0","3087","VOLCANO","5","2018-06-30 16:03:13","339090"
"A2UQ98FHANPPLW","cs_wg_full_v3_real1","3WJEQKOXA83351SDAVKAMNLLWTB1AZ","9","0","GARBAGE","5","6","0","1481","garbage","5","2018-06-30 16:03:13","339091"
"A2NKD14TXBNA89","cs_wg_full_v3_real1","3C5W7UE9CFRCX3MVERVMQNKMVPEXM6","10","0","BICYCLE","5","6","0","7529","BICYCLE","5","2018-06-30 16:03:13","339092"
"A291OPFZ41D6CE","cs_wg_full_v3_real1","3DEL4X4EL6MCRKB9XUJXKI7T4ZSXYW","15","0","LIZARD","5","6","1","4947","lizard","5","2018-06-30 16:03:13","339093"
"A1SHLWKA0UH1IS","cs_wg_full_v3_real1","37TD41K0AHARS0O57SVLOJYIMW8SCB","14","0","VOLCANO","5","6","1","2446","Volcano ","5","2018-06-30 16:03:13","339094"
"A28AZTW9BRRPBL","cs_wg_full_v3_real1","34Q075JO1XE74OUVITNHXH98N7Z017","29","0","RABBIT","5","6","1","1100","rabbit","5","2018-06-30 16:03:14","339095"
"AYG0DFCHLF8AF","cs_wg_full_v3_real1","3X65QVEQI0O4ONTFNJYKCXKNU20LCQ","6","0","GARBAGE","6","6","0","6434","GARBAGE","6","2018-06-30 16:03:14","339096"
"A168UD5L4AYS3P","cs_wg_full_v3_real1","3G5F9DBFOPYY10GPNFERAXF5YS7HVE","7","0","PEBBLE","5","6","0","3493","pebble","6","2018-06-30 16:03:15","339097"
"A26FWAX7VEHYS3","cs_wg_full_v3_real1","36TFCYNS44BQ5PLKNUF9YICQE3FXHX","12","0","BAMBOO","5","6","1","3447","Banboo","5","2018-06-30 16:03:15","339098"
"A1JRMSNROZ1JX5","cs_wg_full_v3_real1","3FQ5JJ512LPCVL8OR9VXD81K469NK7","17","0","RABBIT","5","6","1","1699","rabbit","5","2018-06-30 16:03:15","339099"
"A175PJR0W3LO8I","cs_wg_full_v3_real1","33LKR6A5KEL8KXRMGVBRHSBDKIVT1B","7","0","VOLCANO","7","6","1","1770","volcano","7","2018-06-30 16:03:15","339100"
"A3RMV9ZGFJ0HHF","cs_wg_full_v3_real1","3VHHR074H3IYC6YJW2Q9WBS9TR9L7X","18","0","VOLCANO","5","6","1","3432","volcano","5","2018-06-30 16:03:15","339101"
"A1MCUKJZ15OSOY","cs_wg_full_v3_real1","3KXIR214I4HVSXUSKYAXE39QWPT246","5","0","BUCKET","1","6","0","1347","Bucket","1","2018-06-30 16:03:15","339102"
"A34GD7YNGA18YF","cs_wg_full_v3_real1","3XC1O3LBOSNLA4VQ95TA17KRIO0TLH","12","0","BLANKET","1","6","1","2387","Blanket","1","2018-06-30 16:03:16","339103"
"A1RTD65R1H8MQW","cs_wg_full_v3_real1","3DPNQGW4LLGJAYDT70M04GQ2CUV46P","10","0","BUCKET","15","6","1","4521","BUCKET","15","2018-06-30 16:03:17","339104"
"A1522U5W2U1DMN","cs_wg_full_v3_real1","3JRJSWSMQHM25HN4D40F6ZQ9FSN3EO","10","0","SMOKER","1","6","0","2073","SMOKER","1","2018-06-30 16:03:17","339105"
"A2NHPAN4850DQ4","cs_wg_full_v3_real1","3WLEIWSYHOIP49INZ5UG8SIU1UF2HS","2","0","LIQUID","6","6","0","4865","Liquid","6","2018-06-30 16:03:17","339106"
"A31JRP33Z83Y1C","cs_wg_full_v3_real1","31JLPPHS2UVOH80T7I3BBBKNJUT3OS","7","0","PALACE","5","6","0","5165","palace","5","2018-06-30 16:03:18","339107"
"AX8U26GN8EIUD","cs_wg_full_v3_real1","3PM8NZGV8YH3IIKN6K237W4R5QBQXM","4","0","TURKEY","15","6","0","6554","turkey","6","2018-06-30 16:03:18","339108"
"A37UEMTX8CZFEK","cs_wg_full_v3_real1","3R0T90IZ1SDO2VFECS14Z5FFYLEGCF","20","0","SQUARE","5","6","0","1923","square","5","2018-06-30 16:03:18","339109"
"A17497K07LP4RX","cs_wg_full_v3_real1","3VNL7UK1XFKZACLUNUQC6UF7LSETFC","14","0","SPATULA","6","6","0","2103","SPATULA","6","2018-06-30 16:03:18","339110"
"A37H8GZCPJ3AA7","cs_wg_full_v3_real1","3300DTYQT2IUCIT6BFCBJ7JKPK0QED","11","0","MONKEY","1","6","1","2038","Monkey","1","2018-06-30 16:03:19","339111"
"A3VIDSSJ4J4M80","cs_wg_full_v3_real1","3AWETUDC92TF6FWJUULFVFTGMGSIZ8","15","0","CRICKET","15","6","0","1666","cricket","15","2018-06-30 16:03:19","339112"
"A2FV2U7RGBVK2T","cs_wg_full_v3_real1","36TFCYNS44BQ5PLKNUF9YICQE3FHXH","4","0","COWBOY","6","6","0","4859","cowboy","6","2018-06-30 16:03:19","339113"
"A1S88VQY8G8CNC","cs_wg_full_v3_real1","3DZQRBDBSLG3F0SMEZKKVGUOGJW3SP","6","0","CRICKET","15","6","1","11889","cricket","15","2018-06-30 16:03:20","339114"
"A1KUXDQ9VECR4V","cs_wg_full_v3_real1","3Y5140Z9DXHLSBUD7LND4HR2CHLPIU","23","0","CRICKET","15","6","0","939","cricket","15","2018-06-30 16:03:20","339115"
"A2KEQODJB9HXDD","cs_wg_full_v3_real1","3LO69W1SU3EH5Z9KP5U32O52SUSLG0","12","0","VOLCANO","5","6","0","4662","VOLCANO","5","2018-06-30 16:03:20","339116"
"A1GK5OMI073DJ2","cs_wg_full_v3_real1","3O6CYIULED2GLBMEDOQMFEN9Z9BUW2","11","0","ARCADE","7","6","0","2119","arcade","7","2018-06-30 16:03:20","339117"
"AWFWUFAI33WB2","cs_wg_full_v3_real1","3OVHNO1VE62YY4GX2GK44ID3UBKZDN","7","0","BANQUET","6","6","1","2130","banquet","6","2018-06-30 16:03:20","339118"
"ANZNAAS2K0DSY","cs_wg_full_v3_real1","3R2UR8A0IAH0X677R7AZIR9RQPTXOL","16","0","SUNBURN","6","6","1","4887","SUNBURN","6","2018-06-30 16:03:20","339119"
"AL337BAZEBO6C","cs_wg_full_v3_real1","3ITXP059PWKE0EUBHKC7BNBDCGHSJP","21","0","BAMBOO","6","6","0","1657","bamboo","6","2018-06-30 16:03:20","339120"
"AHPUQCTR1STXR","cs_wg_full_v3_real1","36AHBNMV1RDYTE6S6UILQB41OHHDYB","3","0","AIRBAG","5","6","0","2755","AIRBAG","5","2018-06-30 16:03:22","339121"
"A8E99XNOTT390","cs_wg_full_v3_real1","3VP0C6EFSGXZEO2ZD4MWQA72YLG6MM","5","0","BUCKET","1","6","1","6465","bucket","1","2018-06-30 16:03:22","339122"
"A2EW08X2I87RXL","cs_wg_full_v3_real1","3RWE2M8QWHBAIV1KNGLFUOMBQ840NF","12","0","COWBOY","7","6","0","3224","COWBOY","7","2018-06-30 16:03:22","339123"
"A2FVW2SCF5WKKH","cs_wg_full_v3_real1","3VA45EW49NOS75MEKEPSNI5QLAEO1K","9","0","BASKET","1","6","0","4264","basket","1","2018-06-30 16:03:22","339124"
"A1QVX30ZORPQGX","cs_wg_full_v3_real1","32KTQ2V7RDGMW74XBBP8AKY4OMO9M0","0","0","CRICKET","1","6","1","5547","cricket","1","2018-06-30 16:03:22","339125"
"A28AZTW9BRRPBL","cs_wg_full_v3_real1","34Q075JO1XE74OUVITNHXH98N7Z017","30","0","BAMBOO","7","6","1","1222","bamboo","7","2018-06-30 16:03:22","339126"
"A1QX1YDOAN4LNA","cs_wg_full_v3_real1","3HUTX6F6VUOZWQ4A3IP6S1FVDGSO21","14","0","SPATULA","6","6","0","2468","spatula","6","2018-06-30 16:03:22","339127"
"A3QA0Y16Q4273V","cs_wg_full_v3_real1","3IOEN3P9S7K2IZGAKI3Y6IJZ0AL169","5","0","PENGUIN","6","6","0","4633","penguin","6","2018-06-30 16:03:22","339128"
"A2SXNWRAVVKLQ9","cs_wg_full_v3_real1","3C44YUNSI1Q4K0ERF7M2DKBPKCDDPG","10","0","COMPANY","6","6","0","3560","COMPANY","6","2018-06-30 16:03:24","339129"
"A3QVZ4SZB79D8W","cs_wg_full_v3_real1","3R6P78PK7KC5OCHPYEWUOFFJM7ETGB","8","0","AVOCADO","7","6","0","3125","avocado","7","2018-06-30 16:03:24","339130"
"A3RMV9ZGFJ0HHF","cs_wg_full_v3_real1","3VHHR074H3IYC6YJW2Q9WBS9TR9L7X","19","0","COWBOY","7","6","0","1650","cowboy","7","2018-06-30 16:03:25","339131"
"AD368A1RHHRC3","cs_wg_full_v3_real1","3M68NM076H8QB4FRICIDC91C48ER6U","1","0","LIQUID","6","6","0","7093","liquid","6","2018-06-30 16:03:25","339132"
"A2UQ98FHANPPLW","cs_wg_full_v3_real1","3WJEQKOXA83351SDAVKAMNLLWTB1AZ","10","0","PELICAN","7","6","0","1554","pelican","7","2018-06-30 16:03:25","339133"
"A23IRWAODQDAA7","cs_wg_full_v3_real1","32Z9ZLUT1LL3BG7SM3SDF5LX2ZAOHJ","18","0","TURKEY","15","6","1","3589","TURKEY","15","2018-06-30 16:03:25","339134"
"A175PJR0W3LO8I","cs_wg_full_v3_real1","33LKR6A5KEL8KXRMGVBRHSBDKIVT1B","8","0","COMPANY","6","6","1","1540","company","6","2018-06-30 16:03:26","339135"
"A1RTD65R1H8MQW","cs_wg_full_v3_real1","3DPNQGW4LLGJAYDT70M04GQ2CUV46P","11","0","BUCKET","15","6","1","1767","BUCKET","15","2018-06-30 16:03:26","339136"
"A1CUDX7TTS2W61","cs_wg_full_v3_real1","39U1BHVTDLS4U0513ZPA5LQAI29T33","2","0","BASKET","15","6","0","5764","basket","15","2018-06-30 16:03:26","339137"
"A3VMFCG9L3XOB2","cs_wg_full_v3_real1","3B3WTRP3DB3WP3041T6OVBK6IH7929","0","0","CRICKET","15","6","1","5054","Cricket","15","2018-06-30 16:03:26","339138"
"A291OPFZ41D6CE","cs_wg_full_v3_real1","3DEL4X4EL6MCRKB9XUJXKI7T4ZSXYW","16","0","PICKLE","15","6","1","5208","pickle","15","2018-06-30 16:03:26","339139"
"A1MCUKJZ15OSOY","cs_wg_full_v3_real1","3KXIR214I4HVSXUSKYAXE39QWPT246","6","0","COWBOY","6","6","0","1426","Cowboy","6","2018-06-30 16:03:27","339140"
"A17497K07LP4RX","cs_wg_full_v3_real1","3VNL7UK1XFKZACLUNUQC6UF7LSETFC","15","0","MONKEY","1","6","1","1866","MONKEY","1","2018-06-30 16:03:27","339141"
"A3US0UZCOXGI13","cs_wg_full_v3_real1","35BLDD71I6YKSLGJT1KYA4JAUIOZVM","4","0","PICTURE","6","6","0","2283","picture","6","2018-06-30 16:03:27","339142"
"A1XOORV7G5IVGI","cs_wg_full_v3_real1","3RSDURM96AN3LKKS2PT5WTMMOTHYEO","3","0","PUMPKIN","15","6","1","11854","PUMPKIN","15","2018-06-30 16:03:27","339143"
"A1SHLWKA0UH1IS","cs_wg_full_v3_real1","37TD41K0AHARS0O57SVLOJYIMW8SCB","15","0","PALACE","7","6","0","4114","palace","7","2018-06-30 16:03:27","339144"
"A2NKD14TXBNA89","cs_wg_full_v3_real1","3C5W7UE9CFRCX3MVERVMQNKMVPEXM6","11","0","GRENADE","7","6","0","5198","GRENADE","7","2018-06-30 16:03:28","339145"
"A184EIWAV7P9EH","cs_wg_full_v3_real1","3EA3QWIZ4IWJK3NKO2WX9RSZ1K6TI3","9","0","CRICKET","1","6","0","2135","CRICKET","1","2018-06-30 16:03:28","339146"
"A34GD7YNGA18YF","cs_wg_full_v3_real1","3XC1O3LBOSNLA4VQ95TA17KRIO0TLH","13","0","TOMATO","5","6","1","3635","Tomato","5","2018-06-30 16:03:28","339147"
"AD7UB9OHVLMNK","cs_wg_full_v3_real1","3N8OEVH1FRRD3XTFQGN3ZEIYELOOO7","3","0","LIZARD","6","6","0","29474","lizard","6","2018-06-30 16:03:29","339148"
"A1522U5W2U1DMN","cs_wg_full_v3_real1","3JRJSWSMQHM25HN4D40F6ZQ9FSN3EO","11","0","ACROBAT","6","6","0","2017","ACROBAT","6","2018-06-30 16:03:29","339149"
"AWFWUFAI33WB2","cs_wg_full_v3_real1","3OVHNO1VE62YY4GX2GK44ID3UBKZDN","8","0","BANQUET","6","6","0","1758","banquet","6","2018-06-30 16:03:29","339150"
"A1KUXDQ9VECR4V","cs_wg_full_v3_real1","3Y5140Z9DXHLSBUD7LND4HR2CHLPIU","24","0","SPATULA","6","6","1","1274","spatula","6","2018-06-30 16:03:29","339151"
"A3HT6SY4V8ZRZW","cs_wg_full_v3_real1","3ND9UOO81K3D2LZK4AYLORRQMIIWLA","2","0","AIRBAG","6","6","1","4985","airbag","6","2018-06-30 16:03:29","339152"
"AUSRHMZM3R6CW","cs_wg_full_v3_real1","308XBLVESI5WHGWME3ZLNPN4I9PRBF","0","0","PUMPKIN","1","6","0","11570","pumpkin","1","2018-06-30 16:03:30","339153"
"A1JRMSNROZ1JX5","cs_wg_full_v3_real1","3FQ5JJ512LPCVL8OR9VXD81K469NK7","18","0","ARCADE","7","6","0","4838","arcade","7","2018-06-30 16:03:30","339154"
"A2NHPAN4850DQ4","cs_wg_full_v3_real1","3WLEIWSYHOIP49INZ5UG8SIU1UF2HS","3","0","PUMPKIN","15","6","1","2047","Pumpkin","15","2018-06-30 16:03:30","339155"
"A37UEMTX8CZFEK","cs_wg_full_v3_real1","3R0T90IZ1SDO2VFECS14Z5FFYLEGCF","21","0","POTATO","7","6","0","3059","potato","7","2018-06-30 16:03:30","339156"
"A31JRP33Z83Y1C","cs_wg_full_v3_real1","31JLPPHS2UVOH80T7I3BBBKNJUT3OS","8","0","SQUARE","7","6","1","2375","square","7","2018-06-30 16:03:31","339157"
"AL337BAZEBO6C","cs_wg_full_v3_real1","3ITXP059PWKE0EUBHKC7BNBDCGHSJP","22","0","JACKET","15","6","0","864","jacket","15","2018-06-30 16:03:31","339158"
"A1GK5OMI073DJ2","cs_wg_full_v3_real1","3O6CYIULED2GLBMEDOQMFEN9Z9BUW2","12","0","PEBBLE","7","6","0","3315","pebble","7","2018-06-30 16:03:32","339159"
"A28AZTW9BRRPBL","cs_wg_full_v3_real1","34Q075JO1XE74OUVITNHXH98N7Z017","31","0","ACROBAT","6","6","1","1305","acrobat","6","2018-06-30 16:03:32","339160"
"AYG0DFCHLF8AF","cs_wg_full_v3_real1","3X65QVEQI0O4ONTFNJYKCXKNU20LCQ","7","0","BLANKET","1","6","0","9785","BLANKET","1","2018-06-30 16:03:32","339161"
"A2FV2U7RGBVK2T","cs_wg_full_v3_real1","36TFCYNS44BQ5PLKNUF9YICQE3FHXH","5","0","COSTUME","6","6","0","2488","costume","6","2018-06-30 16:03:32","339162"
"A37H8GZCPJ3AA7","cs_wg_full_v3_real1","3300DTYQT2IUCIT6BFCBJ7JKPK0QED","12","0","LIQUID","6","6","0","3450","Liquid","6","2018-06-30 16:03:33","339163"
"A8E99XNOTT390","cs_wg_full_v3_real1","3VP0C6EFSGXZEO2ZD4MWQA72YLG6MM","6","0","BASKET","15","6","0","1842","basket","15","2018-06-30 16:03:33","339164"
"A3VIDSSJ4J4M80","cs_wg_full_v3_real1","3AWETUDC92TF6FWJUULFVFTGMGSIZ8","16","0","CRICKET","15","6","1","1681","cricket","15","2018-06-30 16:03:33","339165"
"A26FWAX7VEHYS3","cs_wg_full_v3_real1","36TFCYNS44BQ5PLKNUF9YICQE3FXHX","13","0","AIRBAG","6","6","0","2178","Airbag ","6","2018-06-30 16:03:33","339166"
"AY2U544TCVPMQ","cs_wg_full_v3_real1","3GDTJDAPVUCMI2LN6JJUAO3T4G68MA","7","0","SUNBURN","6","6","1","7702","SUNBURN","6","2018-06-30 16:03:34","339167"
"ANZNAAS2K0DSY","cs_wg_full_v3_real1","3R2UR8A0IAH0X677R7AZIR9RQPTXOL","17","0","CANCER","6","6","1","1044","CANCER","6","2018-06-30 16:03:34","339168"
"AHPUQCTR1STXR","cs_wg_full_v3_real1","36AHBNMV1RDYTE6S6UILQB41OHHDYB","4","0","AIRBAG","5","6","0","1868","AIRBAG","5","2018-06-30 16:03:34","339169"
"A2KEQODJB9HXDD","cs_wg_full_v3_real1","3LO69W1SU3EH5Z9KP5U32O52SUSLG0","13","0","CRICKET","1","6","0","6619","CRICKET","1","2018-06-30 16:03:34","339170"
"A1S88VQY8G8CNC","cs_wg_full_v3_real1","3DZQRBDBSLG3F0SMEZKKVGUOGJW3SP","7","0","ISLAND","6","6","0","5026","island","6","2018-06-30 16:03:35","339171"
"A25HVD3UIHVIBP","cs_wg_full_v3_real1","3Y5140Z9DXHLSBUD7LND4HR2CHMPIV","0","0","BAMBOO","5","6","1","6000","bamboo","5","2018-06-30 16:03:35","339172"
"A3RMV9ZGFJ0HHF","cs_wg_full_v3_real1","3VHHR074H3IYC6YJW2Q9WBS9TR9L7X","20","0","SMOKER","15","6","0","1396","smoker","15","2018-06-30 16:03:35","339173"
"A2SXNWRAVVKLQ9","cs_wg_full_v3_real1","3C44YUNSI1Q4K0ERF7M2DKBPKCDDPG","11","0","POTATO","5","6","1","2398","POTATO","5","2018-06-30 16:03:35","339174"
"AKVW5S75T7L15","cs_wg_full_v3_real1","39U1BHVTDLS4U0513ZPA5LQAI2A3TE","2","0","TURKEY","1","6","1","8674","Turkey","1","2018-06-30 16:03:35","339175"
"A2EW08X2I87RXL","cs_wg_full_v3_real1","3RWE2M8QWHBAIV1KNGLFUOMBQ840NF","13","0","COWBOY","7","6","0","2916","COWBOY","7","2018-06-30 16:03:36","339176"
"A2UQ98FHANPPLW","cs_wg_full_v3_real1","3WJEQKOXA83351SDAVKAMNLLWTB1AZ","11","0","MONKEY","1","6","1","2795","monkey","1","2018-06-30 16:03:36","339177"
"A291OPFZ41D6CE","cs_wg_full_v3_real1","3DEL4X4EL6MCRKB9XUJXKI7T4ZSXYW","17","0","ISLAND","7","6","0","1613","island","7","2018-06-30 16:03:36","339178"
"A1RTD65R1H8MQW","cs_wg_full_v3_real1","3DPNQGW4LLGJAYDT70M04GQ2CUV46P","12","0","COSTUME","6","6","1","2340","COSTUME","6","2018-06-30 16:03:36","339179"
"A1MCUKJZ15OSOY","cs_wg_full_v3_real1","3KXIR214I4HVSXUSKYAXE39QWPT246","7","0","COSTUME","6","6","0","1811","Costume","6","2018-06-30 16:03:37","339180"
"A3QVZ4SZB79D8W","cs_wg_full_v3_real1","3R6P78PK7KC5OCHPYEWUOFFJM7ETGB","9","0","TURKEY","1","6","1","2768","turkey","1","2018-06-30 16:03:37","339181"
"A1QX1YDOAN4LNA","cs_wg_full_v3_real1","3HUTX6F6VUOZWQ4A3IP6S1FVDGSO21","15","0","BUCKET","1","6","1","3527","bucket","1","2018-06-30 16:03:37","339182"
"A175PJR0W3LO8I","cs_wg_full_v3_real1","33LKR6A5KEL8KXRMGVBRHSBDKIVT1B","9","0","PELICAN","5","6","1","2196","pelican","5","2018-06-30 16:03:38","339183"
"A3VMFCG9L3XOB2","cs_wg_full_v3_real1","3B3WTRP3DB3WP3041T6OVBK6IH7929","1","0","CRICKET","15","6","0","1801","Cricket","15","2018-06-30 16:03:38","339184"
"A3TX2KJ7VJG3N0","cs_wg_full_v3_real1","3QXNC7EIPIWPTTXQM62ACNRRLJN90P","1","0","ISLAND","5","6","0","6097","ISLAND","5","2018-06-30 16:03:38","339185"
"A1KUXDQ9VECR4V","cs_wg_full_v3_real1","3Y5140Z9DXHLSBUD7LND4HR2CHLPIU","25","0","COMPANY","6","6","1","1381","company","6","2018-06-30 16:03:38","339186"
"A1CUDX7TTS2W61","cs_wg_full_v3_real1","39U1BHVTDLS4U0513ZPA5LQAI29T33","3","0","BUCKET","1","6","0","2435","bucket","1","2018-06-30 16:03:39","339187"
"A168UD5L4AYS3P","cs_wg_full_v3_real1","3G5F9DBFOPYY10GPNFERAXF5YS7HVE","8","0","PEBBLE","5","6","1","2985","pebble","5","2018-06-30 16:03:39","339188"
"AFRJKS3Z3H4CA","cs_wg_full_v3_real1","3A4TN5196KJ22RAPWYJMK5RGDLSHCG","0","0","CRICKET","15","6","1","3540","CRICKET","15","2018-06-30 16:03:39","339189"
"A23IRWAODQDAA7","cs_wg_full_v3_real1","32Z9ZLUT1LL3BG7SM3SDF5LX2ZAOHJ","19","0","VOLCANO","5","6","0","6838","VOLCANO","5","2018-06-30 16:03:39","339190"
"A3QA0Y16Q4273V","cs_wg_full_v3_real1","3IOEN3P9S7K2IZGAKI3Y6IJZ0AL169","6","0","TURKEY","15","6","0","2309","turkey","15","2018-06-30 16:03:39","339191"
"AWFWUFAI33WB2","cs_wg_full_v3_real1","3OVHNO1VE62YY4GX2GK44ID3UBKZDN","9","0","BLANKET","15","6","0","1855","blanket","15","2018-06-30 16:03:39","339192"
"A37UEMTX8CZFEK","cs_wg_full_v3_real1","3R0T90IZ1SDO2VFECS14Z5FFYLEGCF","22","0","COWBOY","7","6","0","813","cowboy","7","2018-06-30 16:03:40","339193"
"A17497K07LP4RX","cs_wg_full_v3_real1","3VNL7UK1XFKZACLUNUQC6UF7LSETFC","16","0","GARBAGE","6","6","0","1548","GARBAGE","6","2018-06-30 16:03:40","339194"
"A2NKD14TXBNA89","cs_wg_full_v3_real1","3C5W7UE9CFRCX3MVERVMQNKMVPEXM6","12","0","COMPANY","7","6","0","443","COMPANY","7","2018-06-30 16:03:40","339195"
"A34GD7YNGA18YF","cs_wg_full_v3_real1","3XC1O3LBOSNLA4VQ95TA17KRIO0TLH","14","0","VOLCANO","7","6","1","1984","Volcano","7","2018-06-30 16:03:41","339196"
"A2FARB7LA24AU8","cs_wg_full_v3_real1","3XM0HYN6NK09C6SRB2XMJ2TAKOEPEL","0","0","BASKET","15","6","0","4885","basket","15","2018-06-30 16:03:42","339197"
"A28AZTW9BRRPBL","cs_wg_full_v3_real1","34Q075JO1XE74OUVITNHXH98N7Z017","32","0","BAMBOO","7","6","1","2694","bamboo","7","2018-06-30 16:03:42","339198"
"A1SHLWKA0UH1IS","cs_wg_full_v3_real1","37TD41K0AHARS0O57SVLOJYIMW8SCB","16","0","VOLCANO","5","6","1","2635","volcano","5","2018-06-30 16:03:42","339199"
"A8E99XNOTT390","cs_wg_full_v3_real1","3VP0C6EFSGXZEO2ZD4MWQA72YLG6MM","7","0","BASKET","15","6","0","1970","basket","15","2018-06-30 16:03:42","339200"
"A1JRMSNROZ1JX5","cs_wg_full_v3_real1","3FQ5JJ512LPCVL8OR9VXD81K469NK7","19","0","AVOCADO","5","6","1","2768","avocado","7","2018-06-30 16:03:42","339201"
"A1QVX30ZORPQGX","cs_wg_full_v3_real1","32KTQ2V7RDGMW74XBBP8AKY4OMO9M0","1","0","POTATO","7","6","1","7681","potato","7","2018-06-30 16:03:42","339202"
"A184EIWAV7P9EH","cs_wg_full_v3_real1","3EA3QWIZ4IWJK3NKO2WX9RSZ1K6TI3","10","0","LIZARD","7","6","0","5111","LIZARD","7","2018-06-30 16:03:43","339203"
"AL337BAZEBO6C","cs_wg_full_v3_real1","3ITXP059PWKE0EUBHKC7BNBDCGHSJP","23","0","BANQUET","6","6","0","1736","banquet","6","2018-06-30 16:03:43","339204"
"A3VIDSSJ4J4M80","cs_wg_full_v3_real1","3AWETUDC92TF6FWJUULFVFTGMGSIZ8","17","0","CRICKET","15","6","0","1400","cricket","15","2018-06-30 16:03:44","339205"
"A2FV2U7RGBVK2T","cs_wg_full_v3_real1","36TFCYNS44BQ5PLKNUF9YICQE3FHXH","6","0","COSTUME","6","6","0","2679","costume","6","2018-06-30 16:03:44","339206"
"A3RMV9ZGFJ0HHF","cs_wg_full_v3_real1","3VHHR074H3IYC6YJW2Q9WBS9TR9L7X","21","0","COWBOY","7","6","0","1305","cowboy","7","2018-06-30 16:03:44","339207"
"A1RTD65R1H8MQW","cs_wg_full_v3_real1","3DPNQGW4LLGJAYDT70M04GQ2CUV46P","13","0","COSTUME","6","6","1","934","COSTUME","6","2018-06-30 16:03:44","339208"
"AHPUQCTR1STXR","cs_wg_full_v3_real1","36AHBNMV1RDYTE6S6UILQB41OHHDYB","5","0","ARCADE","5","6","0","1800","ARCADE","5","2018-06-30 16:03:44","339209"
"AD7UB9OHVLMNK","cs_wg_full_v3_real1","3N8OEVH1FRRD3XTFQGN3ZEIYELOOO7","4","0","LIZARD","6","6","0","2419","lizard","6","2018-06-30 16:03:44","339210"
"A3HT6SY4V8ZRZW","cs_wg_full_v3_real1","3ND9UOO81K3D2LZK4AYLORRQMIIWLA","3","0","AIRBAG","6","6","0","4096","airbag","6","2018-06-30 16:03:45","339211"
"A37H8GZCPJ3AA7","cs_wg_full_v3_real1","3300DTYQT2IUCIT6BFCBJ7JKPK0QED","13","0","CHICKEN","15","6","0","1918","Chicken","15","2018-06-30 16:03:45","339212"
"A1GK5OMI073DJ2","cs_wg_full_v3_real1","3O6CYIULED2GLBMEDOQMFEN9Z9BUW2","13","0","VOLCANO","5","6","1","3845","volcano","5","2018-06-30 16:03:45","339213"
"A1522U5W2U1DMN","cs_wg_full_v3_real1","3JRJSWSMQHM25HN4D40F6ZQ9FSN3EO","12","0","PALACE","7","6","0","5066","PALACE","7
7","2018-06-30 16:03:45","339214"
"AX8U26GN8EIUD","cs_wg_full_v3_real1","3PM8NZGV8YH3IIKN6K237W4R5QBQXM","5","0","WIZARD","6","6","0","13362","wizard","6","2018-06-30 16:03:45","339215"
"A3US0UZCOXGI13","cs_wg_full_v3_real1","35BLDD71I6YKSLGJT1KYA4JAUIOZVM","5","0","VOLCANO","5","6","1","5902","volcano","5","2018-06-30 16:03:45","339216"
"A2KEQODJB9HXDD","cs_wg_full_v3_real1","3LO69W1SU3EH5Z9KP5U32O52SUSLG0","14","0","ISLAND","7","6","0","1678","ISLAND","7","2018-06-30 16:03:45","339217"
"A291OPFZ41D6CE","cs_wg_full_v3_real1","3DEL4X4EL6MCRKB9XUJXKI7T4ZSXYW","18","0","ARCADE","5","6","1","2213","arcade","5","2018-06-30 16:03:46","339218"
"A31JRP33Z83Y1C","cs_wg_full_v3_real1","31JLPPHS2UVOH80T7I3BBBKNJUT3OS","9","0","PELICAN","5","6","1","4961","pelican","6","2018-06-30 16:03:46","339219"
"A2SXNWRAVVKLQ9","cs_wg_full_v3_real1","3C44YUNSI1Q4K0ERF7M2DKBPKCDDPG","12","0","POTATO","5","6","1","1933","POTATO","5","2018-06-30 16:03:46","339220"
"A2UQ98FHANPPLW","cs_wg_full_v3_real1","3WJEQKOXA83351SDAVKAMNLLWTB1AZ","12","0","MONKEY","1","6","1","2667","monkey","1","2018-06-30 16:03:47","339221"
"A2EW08X2I87RXL","cs_wg_full_v3_real1","3RWE2M8QWHBAIV1KNGLFUOMBQ840NF","14","0","COWBOY","7","6","0","1983","COWBOY","7","2018-06-30 16:03:47","339222"
"A2NHPAN4850DQ4","cs_wg_full_v3_real1","3WLEIWSYHOIP49INZ5UG8SIU1UF2HS","4","0","JACKET","1","6","1","3727","Jacket","1","2018-06-30 16:03:47","339223"
"A2FFMN0E9IUKQ6","cs_wg_full_v3_real1","38F5OAUN5NDWQAFT5HBB4JZ2CA17HD","0","0","PUMPKIN","1","6","1","12943","pumpkin","1","2018-06-30 16:03:47","339224"
"A1KUXDQ9VECR4V","cs_wg_full_v3_real1","3Y5140Z9DXHLSBUD7LND4HR2CHLPIU","26","0","CRICKET","15","6","0","1058","cricket","15","2018-06-30 16:03:47","339225"
"A3QVZ4SZB79D8W","cs_wg_full_v3_real1","3R6P78PK7KC5OCHPYEWUOFFJM7ETGB","10","0","BAMBOO","7","6","0","1789","bamboo","7","2018-06-30 16:03:48","339226"
"AYG0DFCHLF8AF","cs_wg_full_v3_real1","3X65QVEQI0O4ONTFNJYKCXKNU20LCQ","8","0","BLANKET","1","6","0","4884","BLANKET","1","2018-06-30 16:03:48","339227"
"A23IRWAODQDAA7","cs_wg_full_v3_real1","32Z9ZLUT1LL3BG7SM3SDF5LX2ZAOHJ","20","0","AIRBAG","7","6","0","2505","VOLCANO","7","2018-06-30 16:03:48","339228"
"A175PJR0W3LO8I","cs_wg_full_v3_real1","33LKR6A5KEL8KXRMGVBRHSBDKIVT1B","10","0","BANANA","5","6","1","1602","banana","5","2018-06-30 16:03:48","339229"
"A26FWAX7VEHYS3","cs_wg_full_v3_real1","36TFCYNS44BQ5PLKNUF9YICQE3FXHX","14","0","BUCKET","15","6","0","5912","Bucket","15","2018-06-30 16:03:49","339230"
"A1XOORV7G5IVGI","cs_wg_full_v3_real1","3RSDURM96AN3LKKS2PT5WTMMOTHYEO","4","0","PUMPKIN","15","6","0","8539","PUMPKIN","15","2018-06-30 16:03:49","339231"
"AWFWUFAI33WB2","cs_wg_full_v3_real1","3OVHNO1VE62YY4GX2GK44ID3UBKZDN","10","0","BANQUET","6","6","0","1687","banquet","6","2018-06-30 16:03:49","339232"
"ANZNAAS2K0DSY","cs_wg_full_v3_real1","3R2UR8A0IAH0X677R7AZIR9RQPTXOL","18","0","CRICKET","1","6","1","1706","CRICKET","1","2018-06-30 16:03:49","339233"
"AD368A1RHHRC3","cs_wg_full_v3_real1","3M68NM076H8QB4FRICIDC91C48ER6U","2","0","AIRBAG","6","6","1","8456","airbag","6","2018-06-30 16:03:50","339234"
"A17497K07LP4RX","cs_wg_full_v3_real1","3VNL7UK1XFKZACLUNUQC6UF7LSETFC","17","0","GARBAGE","6","6","0","1226","GARBAGE","6","2018-06-30 16:03:50","339235"
"A3L8LSM7V7KX3T","cs_wg_full_v3_real1","3OB0CAO74HQF5UBUSQ1BHWJZG99YH4","0","0","CHICKEN","15","6","0","3987","chicken","15","2018-06-30 16:03:50","339236"
"A28AZTW9BRRPBL","cs_wg_full_v3_real1","34Q075JO1XE74OUVITNHXH98N7Z017","33","0","LIZARD","7","6","1","1178","lizard","7","2018-06-30 16:03:50","339237"
"A37UEMTX8CZFEK","cs_wg_full_v3_real1","3R0T90IZ1SDO2VFECS14Z5FFYLEGCF","23","0","LIZARD","5","6","0","1734","lizard","5","2018-06-30 16:03:50","339238"
"A34GD7YNGA18YF","cs_wg_full_v3_real1","3XC1O3LBOSNLA4VQ95TA17KRIO0TLH","15","0","PALACE","5","6","1","1878","Palace","5","2018-06-30 16:03:51","339239"
"AY2U544TCVPMQ","cs_wg_full_v3_real1","3GDTJDAPVUCMI2LN6JJUAO3T4G68MA","8","0","CHICKEN","1","6","1","1618","CHICKEN","1","2018-06-30 16:03:51","339240"
"A1MCUKJZ15OSOY","cs_wg_full_v3_real1","3KXIR214I4HVSXUSKYAXE39QWPT246","8","0","BUCKET","1","6","1","3805","Bucket","1","2018-06-30 16:03:51","339241"
"AKVW5S75T7L15","cs_wg_full_v3_real1","39U1BHVTDLS4U0513ZPA5LQAI2A3TE","3","0","ACROBAT","6","6","1","4368","acrobat","6","2018-06-30 16:03:51","339242"
"A3VMFCG9L3XOB2","cs_wg_full_v3_real1","3B3WTRP3DB3WP3041T6OVBK6IH7929","2","0","CHICKEN","1","6","1","3968","Chicken","1","2018-06-30 16:03:51","339243"
"A25HVD3UIHVIBP","cs_wg_full_v3_real1","3Y5140Z9DXHLSBUD7LND4HR2CHMPIV","1","0","VOLCANO","7","6","0","3600","volcano","7","2018-06-30 16:03:52","339244"
"A1JRMSNROZ1JX5","cs_wg_full_v3_real1","3FQ5JJ512LPCVL8OR9VXD81K469NK7","20","0","ARCADE","7","6","0","2685","arcade","7","2018-06-30 16:03:53","339245"
"A8E99XNOTT390","cs_wg_full_v3_real1","3VP0C6EFSGXZEO2ZD4MWQA72YLG6MM","8","0","AIRBAG","6","6","0","2287","airbag","6","2018-06-30 16:03:53","339246"
"AFRJKS3Z3H4CA","cs_wg_full_v3_real1","3A4TN5196KJ22RAPWYJMK5RGDLSHCG","1","0","SUNBURN","6","6","0","2749","SUNBURN","6","2018-06-30 16:03:53","339247"
"A1QX1YDOAN4LNA","cs_wg_full_v3_real1","3HUTX6F6VUOZWQ4A3IP6S1FVDGSO21","16","0","BUCKET","1","6","1","3929","bucket","1","2018-06-30 16:03:53","339248"
"A2FARB7LA24AU8","cs_wg_full_v3_real1","3XM0HYN6NK09C6SRB2XMJ2TAKOEPEL","1","0","ISLAND","6","6","0","2684","island","6","2018-06-30 16:03:54","339249"
"A3QA0Y16Q4273V","cs_wg_full_v3_real1","3IOEN3P9S7K2IZGAKI3Y6IJZ0AL169","7","0","BANANA","6","6","0","2092","banana","6","2018-06-30 16:03:54","339250"
"AL337BAZEBO6C","cs_wg_full_v3_real1","3ITXP059PWKE0EUBHKC7BNBDCGHSJP","24","0","BANQUET","6","6","0","1529","banquet","6","2018-06-30 16:03:54","339251"
"A1SHLWKA0UH1IS","cs_wg_full_v3_real1","37TD41K0AHARS0O57SVLOJYIMW8SCB","17","0","BANANA","7","6","0","2122","banana","7","2018-06-30 16:03:55","339252"
"A1S88VQY8G8CNC","cs_wg_full_v3_real1","3DZQRBDBSLG3F0SMEZKKVGUOGJW3SP","8","0","COSTUME","6","6","0","4860","costume","6","2018-06-30 16:03:55","339253"
"A184EIWAV7P9EH","cs_wg_full_v3_real1","3EA3QWIZ4IWJK3NKO2WX9RSZ1K6TI3","11","0","MONKEY","15","6","0","2351","MONKEY","15","2018-06-30 16:03:56","339254"
"A1GK5OMI073DJ2","cs_wg_full_v3_real1","3O6CYIULED2GLBMEDOQMFEN9Z9BUW2","14","0","VOLCANO","5","6","1","2111","volcano","5","2018-06-30 16:03:56","339255"
"A1CUDX7TTS2W61","cs_wg_full_v3_real1","39U1BHVTDLS4U0513ZPA5LQAI29T33","4","0","BUCKET","1","6","1","2872","bucket","1","2018-06-30 16:03:56","339256"
"A1KUXDQ9VECR4V","cs_wg_full_v3_real1","3Y5140Z9DXHLSBUD7LND4HR2CHLPIU","27","0","BASKET","1","6","1","1196","basket","1","2018-06-30 16:03:56","339257"
"A2FVW2SCF5WKKH","cs_wg_full_v3_real1","3VA45EW49NOS75MEKEPSNI5QLAEO1K","10","0","TURKEY","15","6","0","7774","turkey","1","2018-06-30 16:03:57","339258"
"A291OPFZ41D6CE","cs_wg_full_v3_real1","3DEL4X4EL6MCRKB9XUJXKI7T4ZSXYW","19","0","ARCADE","5","6","1","2450","arcade","5","2018-06-30 16:03:57","339259"
"A23IRWAODQDAA7","cs_wg_full_v3_real1","32Z9ZLUT1LL3BG7SM3SDF5LX2ZAOHJ","21","0","VOLCANO","5","6","0","2132","VOLCANO","5","2018-06-30 16:03:57","339260"
"A168UD5L4AYS3P","cs_wg_full_v3_real1","3G5F9DBFOPYY10GPNFERAXF5YS7HVE","9","0","TOMATO","7","6","0","6255","tomato","7","2018-06-30 16:03:57","339261"
