"subject","version","assignmentId","trial","trial_type","word","value","alt","value2","choice","rt","resp","resp2","resp3","resp4","used_hint","stamp","id"
"A2IW9L0OVI3D0I","cs_wg_rev_conf_v3_pilot1","3E13VNJ1NNWIBJBBMJCN3L9400L1IX","0","0","CHICKEN","3","AIRBAG","11","1","17704",,,,,"1","2018-10-18 20:37:17","285742"
"A2IW9L0OVI3D0I","cs_wg_rev_conf_v3_pilot1","3E13VNJ1NNWIBJBBMJCN3L9400L1IX","1","0","PALACE","10","SAUCE","8","0","10289",,,,,"1","2018-10-18 20:37:31","285743"
"A2IW9L0OVI3D0I","cs_wg_rev_conf_v3_pilot1","3E13VNJ1NNWIBJBBMJCN3L9400L1IX","2","0","SAUCE","8","AIRBAG","11","1","4383",,,,,"1","2018-10-18 20:37:38","285744"
"A2IW9L0OVI3D0I","cs_wg_rev_conf_v3_pilot1","3E13VNJ1NNWIBJBBMJCN3L9400L1IX","3","0","VOLCANO","5","PALACE","10","1","7765",,,,,"1","2018-10-18 20:37:48","285745"
"A2IW9L0OVI3D0I","cs_wg_rev_conf_v3_pilot1","3E13VNJ1NNWIBJBBMJCN3L9400L1IX","4","0","PALACE","10","COWBOY","6","0","3447",,,,,"1","2018-10-18 20:37:57","285746"
"A2IW9L0OVI3D0I","cs_wg_rev_conf_v3_pilot1","3E13VNJ1NNWIBJBBMJCN3L9400L1IX","5","0","COWBOY","6","SAUCE","8","1","4274",,,,,"0","2018-10-18 20:38:04","285747"
"A2IW9L0OVI3D0I","cs_wg_rev_conf_v3_pilot1","3E13VNJ1NNWIBJBBMJCN3L9400L1IX","6","0","GRENADE","1","SAUCE","8","1","8129",,,,,"1","2018-10-18 20:38:15","285748"
"A2IW9L0OVI3D0I","cs_wg_rev_conf_v3_pilot1","3E13VNJ1NNWIBJBBMJCN3L9400L1IX","7","0","AVOCADO","7","PALACE","10","1","11338",,,,,"1","2018-10-18 20:38:30","285749"
"A2IW9L0OVI3D0I","cs_wg_rev_conf_v3_pilot1","3E13VNJ1NNWIBJBBMJCN3L9400L1IX","8","0","AIRBAG","11","CHICKEN","3","0","7565",,,,,"1","2018-10-18 20:38:45","285750"
"A3DCGKISDE1HWO","cs_wg_rev_conf_v3_pilot1","3LEIZ60CDJ0MVE3GQ0F2IMUDUPAZ90","0","0","PELICAN","7","COWBOY","9","1","8192",,,,,"1","2018-10-18 20:38:51","285751"
"A2IW9L0OVI3D0I","cs_wg_rev_conf_v3_pilot1","3E13VNJ1NNWIBJBBMJCN3L9400L1IX","9","0","COWBOY","6","CHICKEN","3","0","3664",,,,,"0","2018-10-18 20:38:53","285752"
"A3DCGKISDE1HWO","cs_wg_rev_conf_v3_pilot1","3LEIZ60CDJ0MVE3GQ0F2IMUDUPAZ90","1","0","COWBOY","9","PELICAN","7","0","2856",,,,,"1","2018-10-18 20:38:57","285753"
"A2IW9L0OVI3D0I","cs_wg_rev_conf_v3_pilot1","3E13VNJ1NNWIBJBBMJCN3L9400L1IX","10","0","SAUCE","8","PALACE","10","1","6199",,,,,"1","2018-10-18 20:39:02","285754"
"A3DCGKISDE1HWO","cs_wg_rev_conf_v3_pilot1","3LEIZ60CDJ0MVE3GQ0F2IMUDUPAZ90","2","0","MONKEY","13","PENGUIN","8","0","2983",,,,,"1","2018-10-18 20:39:02","285755"
"A2IW9L0OVI3D0I","cs_wg_rev_conf_v3_pilot1","3E13VNJ1NNWIBJBBMJCN3L9400L1IX","11","0","COWBOY","6","AIRBAG","11","1","2111",,,,,"1","2018-10-18 20:39:06","285756"
"A3DCGKISDE1HWO","cs_wg_rev_conf_v3_pilot1","3LEIZ60CDJ0MVE3GQ0F2IMUDUPAZ90","3","0","PELICAN","7","COOKIE","3","0","3796",,,,,"1","2018-10-18 20:39:08","285757"
"A2IW9L0OVI3D0I","cs_wg_rev_conf_v3_pilot1","3E13VNJ1NNWIBJBBMJCN3L9400L1IX","12","0","PALACE","10","CHICKEN","3","0","2121",,,,,"1","2018-10-18 20:39:11","285758"
"A3DCGKISDE1HWO","cs_wg_rev_conf_v3_pilot1","3LEIZ60CDJ0MVE3GQ0F2IMUDUPAZ90","4","0","PELICAN","7","MONKEY","13","1","3387",,,,,"1","2018-10-18 20:39:14","285759"
"A3DCGKISDE1HWO","cs_wg_rev_conf_v3_pilot1","3LEIZ60CDJ0MVE3GQ0F2IMUDUPAZ90","5","0","CANCER","1","LIZARD","10","1","3003",,,,,"1","2018-10-18 20:39:19","285760"
"A1B12H23Q4YE6J","cs_wg_rev_conf_v3_pilot1","3ZY8KE4ISJ4BETFS651LJB76GE8QVD","0","0","CRICKET","13","HOCKEY","3","0","10100",,,,,"0","2018-10-18 20:39:19","285761"
"A2IW9L0OVI3D0I","cs_wg_rev_conf_v3_pilot1","3E13VNJ1NNWIBJBBMJCN3L9400L1IX","13","0","BANANA","15","AIRBAG","11","0","3863",,,,,"1","2018-10-18 20:39:21","285762"
"A3DCGKISDE1HWO","cs_wg_rev_conf_v3_pilot1","3LEIZ60CDJ0MVE3GQ0F2IMUDUPAZ90","6","0","BANANA","6","COOKIE","3","0","2129",,,,,"1","2018-10-18 20:39:23","285763"
"A2IW9L0OVI3D0I","cs_wg_rev_conf_v3_pilot1","3E13VNJ1NNWIBJBBMJCN3L9400L1IX","14","0","CHICKEN","3","SAUCE","8","1","3623",,,,,"0","2018-10-18 20:39:26","285764"
"A1B12H23Q4YE6J","cs_wg_rev_conf_v3_pilot1","3ZY8KE4ISJ4BETFS651LJB76GE8QVD","1","0","CRICKET","13","AIRBAG","7","0","3328",,,,,"0","2018-10-18 20:39:27","285765"
"A3DCGKISDE1HWO","cs_wg_rev_conf_v3_pilot1","3LEIZ60CDJ0MVE3GQ0F2IMUDUPAZ90","7","0","PENGUIN","8","CANCER","1","0","2464",,,,,"1","2018-10-18 20:39:27","285766"
"A3DCGKISDE1HWO","cs_wg_rev_conf_v3_pilot1","3LEIZ60CDJ0MVE3GQ0F2IMUDUPAZ90","8","0","GRENADE","5","TOMATO","11","1","3545",,,,,"1","2018-10-18 20:39:33","285767"
"A1B12H23Q4YE6J","cs_wg_rev_conf_v3_pilot1","3ZY8KE4ISJ4BETFS651LJB76GE8QVD","2","0","HOCKEY","3","CRICKET","13","1","5764",,,,,"0","2018-10-18 20:39:36","285768"
"A3DCGKISDE1HWO","cs_wg_rev_conf_v3_pilot1","3LEIZ60CDJ0MVE3GQ0F2IMUDUPAZ90","9","0","LIZARD","10","COWBOY","9","0","1759",,,,,"1","2018-10-18 20:39:37","285769"
"A2IW9L0OVI3D0I","cs_wg_rev_conf_v3_pilot1","3E13VNJ1NNWIBJBBMJCN3L9400L1IX","15","0","PELICAN","9","COWBOY","6","0","8407",,,,,"1","2018-10-18 20:39:37","285770"
"A2IW9L0OVI3D0I","cs_wg_rev_conf_v3_pilot1","3E13VNJ1NNWIBJBBMJCN3L9400L1IX","16","0","AVOCADO","7","BANANA","15","1","2647",,,,,"1","2018-10-18 20:39:42","285771"
"A3DCGKISDE1HWO","cs_wg_rev_conf_v3_pilot1","3LEIZ60CDJ0MVE3GQ0F2IMUDUPAZ90","10","0","PELICAN","7","BANANA","6","0","2718",,,,,"1","2018-10-18 20:39:43","285772"
"A2IW9L0OVI3D0I","cs_wg_rev_conf_v3_pilot1","3E13VNJ1NNWIBJBBMJCN3L9400L1IX","17","0","BANANA","15","CRICKET","13","0","908",,,,,"0","2018-10-18 20:39:45","285773"
"A1B12H23Q4YE6J","cs_wg_rev_conf_v3_pilot1","3ZY8KE4ISJ4BETFS651LJB76GE8QVD","3","0","AIRBAG","7","BLOUSE","8","0","5972",,,,,"0","2018-10-18 20:39:45","285774"
"A3DCGKISDE1HWO","cs_wg_rev_conf_v3_pilot1","3LEIZ60CDJ0MVE3GQ0F2IMUDUPAZ90","11","0","PELICAN","7","CANCER","1","0","2526",,,,,"1","2018-10-18 20:39:47","285775"
"A1B12H23Q4YE6J","cs_wg_rev_conf_v3_pilot1","3ZY8KE4ISJ4BETFS651LJB76GE8QVD","4","0","AIRBAG","7","HOCKEY","3","1","2859",,,,,"0","2018-10-18 20:39:50","285776"
"A3DCGKISDE1HWO","cs_wg_rev_conf_v3_pilot1","3LEIZ60CDJ0MVE3GQ0F2IMUDUPAZ90","12","0","LIZARD","10","BICYCLE","15","1","2277",,,,,"1","2018-10-18 20:39:52","285777"
"A2IW9L0OVI3D0I","cs_wg_rev_conf_v3_pilot1","3E13VNJ1NNWIBJBBMJCN3L9400L1IX","18","0","SAUCE","8","BANANA","15","1","7432",,,,,"0","2018-10-18 20:39:54","285778"
"A1B12H23Q4YE6J","cs_wg_rev_conf_v3_pilot1","3ZY8KE4ISJ4BETFS651LJB76GE8QVD","5","0","HOCKEY","3","AIRBAG","7","0","5295",,,,,"0","2018-10-18 20:39:58","285779"
"A2IW9L0OVI3D0I","cs_wg_rev_conf_v3_pilot1","3E13VNJ1NNWIBJBBMJCN3L9400L1IX","19","0","AIRBAG","11","VOLCANO","5","0","4164",,,,,"0","2018-10-18 20:40:00","285780"
"A3DCGKISDE1HWO","cs_wg_rev_conf_v3_pilot1","3LEIZ60CDJ0MVE3GQ0F2IMUDUPAZ90","13","0","TOMATO","11","PENGUIN","8","0","8248",,,,,"1","2018-10-18 20:40:02","285781"
"A2IW9L0OVI3D0I","cs_wg_rev_conf_v3_pilot1","3E13VNJ1NNWIBJBBMJCN3L9400L1IX","20","0","VOLCANO","5","GRENADE","1","0","1773",,,,,"1","2018-10-18 20:40:04","285782"
"A1B12H23Q4YE6J","cs_wg_rev_conf_v3_pilot1","3ZY8KE4ISJ4BETFS651LJB76GE8QVD","6","0","BLOUSE","8","AIRBAG","7","0","4380",,,,,"0","2018-10-18 20:40:05","285783"
"A2IW9L0OVI3D0I","cs_wg_rev_conf_v3_pilot1","3E13VNJ1NNWIBJBBMJCN3L9400L1IX","21","0","CHICKEN","3","CRICKET","13","1","2763",,,,,"1","2018-10-18 20:40:08","285784"
"A3DCGKISDE1HWO","cs_wg_rev_conf_v3_pilot1","3LEIZ60CDJ0MVE3GQ0F2IMUDUPAZ90","14","0","GRENADE","5","BICYCLE","15","1","3774",,,,,"1","2018-10-18 20:40:09","285785"
"A1B12H23Q4YE6J","cs_wg_rev_conf_v3_pilot1","3ZY8KE4ISJ4BETFS651LJB76GE8QVD","7","0","AIRBAG","7","HOCKEY","3","0","4260",,,,,"0","2018-10-18 20:40:12","285786"
"A2IW9L0OVI3D0I","cs_wg_rev_conf_v3_pilot1","3E13VNJ1NNWIBJBBMJCN3L9400L1IX","22","0","SAUCE","8","PELICAN","9","1","2533",,,,,"1","2018-10-18 20:40:14","285787"
"A3DCGKISDE1HWO","cs_wg_rev_conf_v3_pilot1","3LEIZ60CDJ0MVE3GQ0F2IMUDUPAZ90","15","0","LIZARD","10","MONKEY","13","1","3145",,,,,"1","2018-10-18 20:40:14","285788"
"A2IW9L0OVI3D0I","cs_wg_rev_conf_v3_pilot1","3E13VNJ1NNWIBJBBMJCN3L9400L1IX","23","0","GRENADE","1","PALACE","10","1","2108",,,,,"0","2018-10-18 20:40:18","285789"
"A3DCGKISDE1HWO","cs_wg_rev_conf_v3_pilot1","3LEIZ60CDJ0MVE3GQ0F2IMUDUPAZ90","16","0","TOMATO","11","MONKEY","13","1","2566",,,,,"1","2018-10-18 20:40:19","285790"
"A1B12H23Q4YE6J","cs_wg_rev_conf_v3_pilot1","3ZY8KE4ISJ4BETFS651LJB76GE8QVD","8","0","AIRBAG","7","CRICKET","13","1","4106",,,,,"0","2018-10-18 20:40:19","285791"
"A3DCGKISDE1HWO","cs_wg_rev_conf_v3_pilot1","3LEIZ60CDJ0MVE3GQ0F2IMUDUPAZ90","17","0","LIZARD","10","COOKIE","3","0","1630",,,,,"1","2018-10-18 20:40:22","285792"
"A2IW9L0OVI3D0I","cs_wg_rev_conf_v3_pilot1","3E13VNJ1NNWIBJBBMJCN3L9400L1IX","24","0","AIRBAG","11","GRENADE","1","0","3731",,,,,"0","2018-10-18 20:40:24","285793"
"A3DCGKISDE1HWO","cs_wg_rev_conf_v3_pilot1","3LEIZ60CDJ0MVE3GQ0F2IMUDUPAZ90","18","0","COWBOY","9","COOKIE","3","0","1721",,,,,"1","2018-10-18 20:40:26","285794"
"A1B12H23Q4YE6J","cs_wg_rev_conf_v3_pilot1","3ZY8KE4ISJ4BETFS651LJB76GE8QVD","9","0","BLOUSE","8","HOCKEY","3","0","5444",,,,,"0","2018-10-18 20:40:27","285795"
"A2IW9L0OVI3D0I","cs_wg_rev_conf_v3_pilot1","3E13VNJ1NNWIBJBBMJCN3L9400L1IX","25","0","AVOCADO","7","SAUCE","8","1","2845",,,,,"1","2018-10-18 20:40:29","285796"
"A1B12H23Q4YE6J","cs_wg_rev_conf_v3_pilot1","3ZY8KE4ISJ4BETFS651LJB76GE8QVD","10","0","BLOUSE","8","AIRBAG","7","1","2980",,,,,"0","2018-10-18 20:40:33","285797"
"A2IW9L0OVI3D0I","cs_wg_rev_conf_v3_pilot1","3E13VNJ1NNWIBJBBMJCN3L9400L1IX","26","0","SAUCE","8","COWBOY","6","0","2926",,,,,"1","2018-10-18 20:40:34","285798"
"A3DCGKISDE1HWO","cs_wg_rev_conf_v3_pilot1","3LEIZ60CDJ0MVE3GQ0F2IMUDUPAZ90","19","0","PENGUIN","8","PELICAN","7","0","8530",,,,,"1","2018-10-18 20:40:37","285799"
"A1B12H23Q4YE6J","cs_wg_rev_conf_v3_pilot1","3ZY8KE4ISJ4BETFS651LJB76GE8QVD","11","0","HOCKEY","3","BLOUSE","8","0","2369",,,,,"0","2018-10-18 20:40:37","285800"
"A2IW9L0OVI3D0I","cs_wg_rev_conf_v3_pilot1","3E13VNJ1NNWIBJBBMJCN3L9400L1IX","27","0","PELICAN","9","CRICKET","13","1","3191",,,,,"1","2018-10-18 20:40:39","285801"
"A1B12H23Q4YE6J","cs_wg_rev_conf_v3_pilot1","3ZY8KE4ISJ4BETFS651LJB76GE8QVD","12","0","BLOUSE","8","AIRBAG","7","1","2348",,,,,"0","2018-10-18 20:40:42","285802"
"A3DCGKISDE1HWO","cs_wg_rev_conf_v3_pilot1","3LEIZ60CDJ0MVE3GQ0F2IMUDUPAZ90","20","0","COOKIE","3","PENGUIN","8","1","3435",,,,,"0","2018-10-18 20:40:42","285803"
"A2IW9L0OVI3D0I","cs_wg_rev_conf_v3_pilot1","3E13VNJ1NNWIBJBBMJCN3L9400L1IX","28","0","AVOCADO","7","AIRBAG","11","1","3005",,,,,"1","2018-10-18 20:40:44","285804"
"A1B12H23Q4YE6J","cs_wg_rev_conf_v3_pilot1","3ZY8KE4ISJ4BETFS651LJB76GE8QVD","13","0","BLOUSE","8","CRICKET","13","0","1539",,,,,"0","2018-10-18 20:40:45","285805"
"A3DCGKISDE1HWO","cs_wg_rev_conf_v3_pilot1","3LEIZ60CDJ0MVE3GQ0F2IMUDUPAZ90","21","0","BANANA","6","COWBOY","9","1","3123",,,,,"1","2018-10-18 20:40:48","285806"
"A1B12H23Q4YE6J","cs_wg_rev_conf_v3_pilot1","3ZY8KE4ISJ4BETFS651LJB76GE8QVD","14","0","AIRBAG","7","BLOUSE","8","0","1237",,,,,"0","2018-10-18 20:40:49","285807"
"A2IW9L0OVI3D0I","cs_wg_rev_conf_v3_pilot1","3E13VNJ1NNWIBJBBMJCN3L9400L1IX","29","0","AVOCADO","7","CHICKEN","3","0","2811",,,,,"1","2018-10-18 20:40:49","285808"
"A1B12H23Q4YE6J","cs_wg_rev_conf_v3_pilot1","3ZY8KE4ISJ4BETFS651LJB76GE8QVD","15","0","CRICKET","13","BLOUSE","8","1","1380",,,,,"0","2018-10-18 20:40:52","285809"
"A3DCGKISDE1HWO","cs_wg_rev_conf_v3_pilot1","3LEIZ60CDJ0MVE3GQ0F2IMUDUPAZ90","22","0","LIZARD","10","PELICAN","7","0","2541",,,,,"1","2018-10-18 20:40:52","285810"
"A2IW9L0OVI3D0I","cs_wg_rev_conf_v3_pilot1","3E13VNJ1NNWIBJBBMJCN3L9400L1IX","30","0","CHICKEN","3","AVOCADO","7","1","2390",,,,,"1","2018-10-18 20:40:53","285811"
"A1B12H23Q4YE6J","cs_wg_rev_conf_v3_pilot1","3ZY8KE4ISJ4BETFS651LJB76GE8QVD","16","0","BLOUSE","8","HOCKEY","3","0","1212",,,,,"0","2018-10-18 20:40:56","285812"
"A3DCGKISDE1HWO","cs_wg_rev_conf_v3_pilot1","3LEIZ60CDJ0MVE3GQ0F2IMUDUPAZ90","23","0","BANANA","6","CANCER","1","0","1664",,,,,"0","2018-10-18 20:40:56","285813"
"A2IW9L0OVI3D0I","cs_wg_rev_conf_v3_pilot1","3E13VNJ1NNWIBJBBMJCN3L9400L1IX","31","0","CHICKEN","3","PALACE","10","1","2061",,,,,"1","2018-10-18 20:40:58","285814"
"A1B12H23Q4YE6J","cs_wg_rev_conf_v3_pilot1","3ZY8KE4ISJ4BETFS651LJB76GE8QVD","17","0","HOCKEY","3","BLOUSE","8","0","1422",,,,,"0","2018-10-18 20:41:00","285815"
"A3DCGKISDE1HWO","cs_wg_rev_conf_v3_pilot1","3LEIZ60CDJ0MVE3GQ0F2IMUDUPAZ90","24","0","BICYCLE","15","MONKEY","13","0","2794",,,,,"1","2018-10-18 20:41:01","285816"
"A2IW9L0OVI3D0I","cs_wg_rev_conf_v3_pilot1","3E13VNJ1NNWIBJBBMJCN3L9400L1IX","32","0","PELICAN","9","AIRBAG","11","1","2621",,,,,"1","2018-10-18 20:41:02","285817"
"A2IW9L0OVI3D0I","cs_wg_rev_conf_v3_pilot1","3E13VNJ1NNWIBJBBMJCN3L9400L1IX","33","0","CHICKEN","3","VOLCANO","5","1","2463",,,,,"1","2018-10-18 20:41:07","285818"
"A1B12H23Q4YE6J","cs_wg_rev_conf_v3_pilot1","3ZY8KE4ISJ4BETFS651LJB76GE8QVD","18","0","HOCKEY","3","CRICKET","13","0","2893",,,,,"0","2018-10-18 20:41:09","285819"
"A2IW9L0OVI3D0I","cs_wg_rev_conf_v3_pilot1","3E13VNJ1NNWIBJBBMJCN3L9400L1IX","34","0","SAUCE","8","CHICKEN","3","0","2632",,,,,"1","2018-10-18 20:41:11","285820"
"A1B12H23Q4YE6J","cs_wg_rev_conf_v3_pilot1","3ZY8KE4ISJ4BETFS651LJB76GE8QVD","19","0","AIRBAG","7","BLOUSE","8","1","1788",,,,,"0","2018-10-18 20:41:13","285821"
"A3DCGKISDE1HWO","cs_wg_rev_conf_v3_pilot1","3LEIZ60CDJ0MVE3GQ0F2IMUDUPAZ90","25","0","TOMATO","11","PELICAN","7","0","2261",,,,,"1","2018-10-18 20:41:15","285822"
"A2IW9L0OVI3D0I","cs_wg_rev_conf_v3_pilot1","3E13VNJ1NNWIBJBBMJCN3L9400L1IX","35","0","PALACE","10","AIRBAG","11","1","2361",,,,,"1","2018-10-18 20:41:16","285823"
"A1B12H23Q4YE6J","cs_wg_rev_conf_v3_pilot1","3ZY8KE4ISJ4BETFS651LJB76GE8QVD","20","0","BLOUSE","8","CRICKET","13","1","1772",,,,,"0","2018-10-18 20:41:17","285824"
"A2IW9L0OVI3D0I","cs_wg_rev_conf_v3_pilot1","3E13VNJ1NNWIBJBBMJCN3L9400L1IX","36","0","GRENADE","1","BANANA","15","1","1700",,,,,"0","2018-10-18 20:41:19","285825"
"A1B12H23Q4YE6J","cs_wg_rev_conf_v3_pilot1","3ZY8KE4ISJ4BETFS651LJB76GE8QVD","21","0","HOCKEY","3","BLOUSE","8","1","1264",,,,,"0","2018-10-18 20:41:21","285826"
"A3DCGKISDE1HWO","cs_wg_rev_conf_v3_pilot1","3LEIZ60CDJ0MVE3GQ0F2IMUDUPAZ90","26","0","PENGUIN","8","BICYCLE","15","1","4519",,,,,"1","2018-10-18 20:41:22","285827"
"A1B12H23Q4YE6J","cs_wg_rev_conf_v3_pilot1","3ZY8KE4ISJ4BETFS651LJB76GE8QVD","22","0","HOCKEY","3","CRICKET","13","1","2107",,,,,"0","2018-10-18 20:41:25","285828"
"A3DCGKISDE1HWO","cs_wg_rev_conf_v3_pilot1","3LEIZ60CDJ0MVE3GQ0F2IMUDUPAZ90","27","0","CANCER","1","PELICAN","7","1","1920",,,,,"0","2018-10-18 20:41:26","285829"
"A1B12H23Q4YE6J","cs_wg_rev_conf_v3_pilot1","3ZY8KE4ISJ4BETFS651LJB76GE8QVD","23","0","HOCKEY","3","AIRBAG","7","0","485",,,,,"0","2018-10-18 20:41:27","285830"
"A2IW9L0OVI3D0I","cs_wg_rev_conf_v3_pilot1","3E13VNJ1NNWIBJBBMJCN3L9400L1IX","37","0","CRICKET","13","PALACE","10","0","6201",,,,,"0","2018-10-18 20:41:28","285831"
"A2IW9L0OVI3D0I","cs_wg_rev_conf_v3_pilot1","3E13VNJ1NNWIBJBBMJCN3L9400L1IX","38","0","CRICKET","13","BANANA","15","1","1471",,,,,"0","2018-10-18 20:41:31","285832"
"A3DCGKISDE1HWO","cs_wg_rev_conf_v3_pilot1","3LEIZ60CDJ0MVE3GQ0F2IMUDUPAZ90","28","0","COOKIE","3","GRENADE","5","1","3405",,,,,"1","2018-10-18 20:41:31","285833"
"A1B12H23Q4YE6J","cs_wg_rev_conf_v3_pilot1","3ZY8KE4ISJ4BETFS651LJB76GE8QVD","24","0","CRICKET","13","AIRBAG","7","0","828",,,,,"0","2018-10-18 20:41:31","285834"
"A1B12H23Q4YE6J","cs_wg_rev_conf_v3_pilot1","3ZY8KE4ISJ4BETFS651LJB76GE8QVD","25","0","HOCKEY","3","AIRBAG","7","0","1365",,,,,"0","2018-10-18 20:41:35","285835"
"A3DCGKISDE1HWO","cs_wg_rev_conf_v3_pilot1","3LEIZ60CDJ0MVE3GQ0F2IMUDUPAZ90","29","0","BANANA","6","PENGUIN","8","1","2307",,,,,"1","2018-10-18 20:41:35","285836"
"A2IW9L0OVI3D0I","cs_wg_rev_conf_v3_pilot1","3E13VNJ1NNWIBJBBMJCN3L9400L1IX","39","0","PELICAN","9","PALACE","10","1","3876",,,,,"0","2018-10-18 20:41:36","285837"
"A1B12H23Q4YE6J","cs_wg_rev_conf_v3_pilot1","3ZY8KE4ISJ4BETFS651LJB76GE8QVD","26","0","AIRBAG","7","HOCKEY","3","1","1661",,,,,"0","2018-10-18 20:41:38","285838"
"A3DCGKISDE1HWO","cs_wg_rev_conf_v3_pilot1","3LEIZ60CDJ0MVE3GQ0F2IMUDUPAZ90","30","0","GRENADE","5","PELICAN","7","1","1656",,,,,"1","2018-10-18 20:41:39","285839"
"A3DCGKISDE1HWO","cs_wg_rev_conf_v3_pilot1","3LEIZ60CDJ0MVE3GQ0F2IMUDUPAZ90","31","0","COWBOY","9","BANANA","6","0","2582",,,,,"1","2018-10-18 20:41:43","285840"
"A2IW9L0OVI3D0I","cs_wg_rev_conf_v3_pilot1","3E13VNJ1NNWIBJBBMJCN3L9400L1IX","40","0","COWBOY","6","CRICKET","13","1","4915",,,,,"0","2018-10-18 20:41:43","285841"
"A1B12H23Q4YE6J","cs_wg_rev_conf_v3_pilot1","3ZY8KE4ISJ4BETFS651LJB76GE8QVD","27","0","CRICKET","13","HOCKEY","3","0","1430",,,,,"0","2018-10-18 20:41:45","285842"
"A3NPYIGN1MP121","cs_wg_rev_conf_v3_pilot1","3H0W84IWBK3UOJ86OU1BOXTPC57ERW","0","0","PELICAN","1","VOLCANO","15","0","4215",,,,,"0","2018-10-18 20:41:45","285843"
"A2IW9L0OVI3D0I","cs_wg_rev_conf_v3_pilot1","3E13VNJ1NNWIBJBBMJCN3L9400L1IX","41","0","AIRBAG","11","BANANA","15","1","1083",,,,,"0","2018-10-18 20:41:45","285844"
"A3DCGKISDE1HWO","cs_wg_rev_conf_v3_pilot1","3LEIZ60CDJ0MVE3GQ0F2IMUDUPAZ90","32","0","TOMATO","11","COWBOY","9","0","1712",,,,,"1","2018-10-18 20:41:46","285845"
"A1B12H23Q4YE6J","cs_wg_rev_conf_v3_pilot1","3ZY8KE4ISJ4BETFS651LJB76GE8QVD","28","0","AIRBAG","7","CRICKET","13","0","2469",,,,,"0","2018-10-18 20:41:49","285846"
"A3NPYIGN1MP121","cs_wg_rev_conf_v3_pilot1","3H0W84IWBK3UOJ86OU1BOXTPC57ERW","1","0","AIRBAG","7","CHICKEN","13","1","1741",,,,,"0","2018-10-18 20:41:50","285847"
"A3DCGKISDE1HWO","cs_wg_rev_conf_v3_pilot1","3LEIZ60CDJ0MVE3GQ0F2IMUDUPAZ90","33","0","BANANA","6","LIZARD","10","1","2238",,,,,"1","2018-10-18 20:41:51","285848"
"A2IW9L0OVI3D0I","cs_wg_rev_conf_v3_pilot1","3E13VNJ1NNWIBJBBMJCN3L9400L1IX","42","0","COWBOY","6","VOLCANO","5","0","6215",,,,,"0","2018-10-18 20:41:54","285849"
"A1B12H23Q4YE6J","cs_wg_rev_conf_v3_pilot1","3ZY8KE4ISJ4BETFS651LJB76GE8QVD","29","0","CRICKET","13","BLOUSE","8","1","1949",,,,,"0","2018-10-18 20:41:54","285850"
"A3NPYIGN1MP121","cs_wg_rev_conf_v3_pilot1","3H0W84IWBK3UOJ86OU1BOXTPC57ERW","2","0","COWBOY","6","VOLCANO","15","1","1447",,,,,"0","2018-10-18 20:41:54","285851"
"A3DCGKISDE1HWO","cs_wg_rev_conf_v3_pilot1","3LEIZ60CDJ0MVE3GQ0F2IMUDUPAZ90","34","0","PENGUIN","8","BANANA","6","0","3791",,,,,"1","2018-10-18 20:41:57","285852"
"A1B12H23Q4YE6J","cs_wg_rev_conf_v3_pilot1","3ZY8KE4ISJ4BETFS651LJB76GE8QVD","30","0","BLOUSE","8","HOCKEY","3","0","546",,,,,"0","2018-10-18 20:41:57","285853"
"A3NPYIGN1MP121","cs_wg_rev_conf_v3_pilot1","3H0W84IWBK3UOJ86OU1BOXTPC57ERW","3","0","COWBOY","6","POTATO","9","1","1574",,,,,"0","2018-10-18 20:41:58","285854"
"A2IW9L0OVI3D0I","cs_wg_rev_conf_v3_pilot1","3E13VNJ1NNWIBJBBMJCN3L9400L1IX","43","0","SAUCE","8","CRICKET","13","1","3581",,,,,"0","2018-10-18 20:41:59","285855"
"A1B12H23Q4YE6J","cs_wg_rev_conf_v3_pilot1","3ZY8KE4ISJ4BETFS651LJB76GE8QVD","31","0","CRICKET","13","AIRBAG","7","1","705",,,,,"0","2018-10-18 20:42:00","285856"
"A3NPYIGN1MP121","cs_wg_rev_conf_v3_pilot1","3H0W84IWBK3UOJ86OU1BOXTPC57ERW","4","0","ROCKET","3","MOUSE","8","0","814",,,,,"0","2018-10-18 20:42:01","285857"
"A1B12H23Q4YE6J","cs_wg_rev_conf_v3_pilot1","3ZY8KE4ISJ4BETFS651LJB76GE8QVD","32","0","CRICKET","13","HOCKEY","3","0","829",,,,,"0","2018-10-18 20:42:03","285858"
"A3NPYIGN1MP121","cs_wg_rev_conf_v3_pilot1","3H0W84IWBK3UOJ86OU1BOXTPC57ERW","5","0","COWBOY","6","PELICAN","1","1","1431",,,,,"0","2018-10-18 20:42:05","285859"
"A2IW9L0OVI3D0I","cs_wg_rev_conf_v3_pilot1","3E13VNJ1NNWIBJBBMJCN3L9400L1IX","44","0","PALACE","10","AVOCADO","7","0","4593",,,,,"0","2018-10-18 20:42:05","285860"
"A1B12H23Q4YE6J","cs_wg_rev_conf_v3_pilot1","3ZY8KE4ISJ4BETFS651LJB76GE8QVD","33","0","BLOUSE","8","CRICKET","13","0","1308",,,,,"0","2018-10-18 20:42:08","285861"
"A2IW9L0OVI3D0I","cs_wg_rev_conf_v3_pilot1","3E13VNJ1NNWIBJBBMJCN3L9400L1IX","45","0","CRICKET","13","SAUCE","8","0","3428",,,,,"0","2018-10-18 20:42:10","285862"
"A1B12H23Q4YE6J","cs_wg_rev_conf_v3_pilot1","3ZY8KE4ISJ4BETFS651LJB76GE8QVD","34","0","AIRBAG","7","CRICKET","13","0","2340",,,,,"0","2018-10-18 20:42:12","285863"
"A3NPYIGN1MP121","cs_wg_rev_conf_v3_pilot1","3H0W84IWBK3UOJ86OU1BOXTPC57ERW","6","0","POTATO","9","ROCKET","3","0","7477",,,,,"1","2018-10-18 20:42:15","285864"
"A2IW9L0OVI3D0I","cs_wg_rev_conf_v3_pilot1","3E13VNJ1NNWIBJBBMJCN3L9400L1IX","46","0","CHICKEN","3","GRENADE","1","0","4729",,,,,"0","2018-10-18 20:42:16","285865"
"A1B12H23Q4YE6J","cs_wg_rev_conf_v3_pilot1","3ZY8KE4ISJ4BETFS651LJB76GE8QVD","35","0","CRICKET","13","BLOUSE","8","1","908",,,,,"0","2018-10-18 20:42:17","285866"
"A3NPYIGN1MP121","cs_wg_rev_conf_v3_pilot1","3H0W84IWBK3UOJ86OU1BOXTPC57ERW","7","0","AIRBAG","7","ROCKET","3","0","3646",,,,,"1","2018-10-18 20:42:20","285867"
"A2IW9L0OVI3D0I","cs_wg_rev_conf_v3_pilot1","3E13VNJ1NNWIBJBBMJCN3L9400L1IX","47","0","VOLCANO","5","COWBOY","6","1","6011",,,,,"0","2018-10-18 20:42:24","285868"
"A3NPYIGN1MP121","cs_wg_rev_conf_v3_pilot1","3H0W84IWBK3UOJ86OU1BOXTPC57ERW","8","0","AVOCADO","10","PELICAN","1","0","2078",,,,,"0","2018-10-18 20:42:25","285869"
"A2IW9L0OVI3D0I","cs_wg_rev_conf_v3_pilot1","3E13VNJ1NNWIBJBBMJCN3L9400L1IX","48","0","BANANA","15","AVOCADO","7","0","1021",,,,,"0","2018-10-18 20:42:26","285870"
"A3DCGKISDE1HWO","cs_wg_rev_conf_v3_pilot1","3LEIZ60CDJ0MVE3GQ0F2IMUDUPAZ90","35","0","COOKIE","3","CANCER","1","0","28544",,,,,"0","2018-10-18 20:42:27","285871"
"A3NPYIGN1MP121","cs_wg_rev_conf_v3_pilot1","3H0W84IWBK3UOJ86OU1BOXTPC57ERW","9","0","VOLCANO","15","POTATO","9","0","1159",,,,,"0","2018-10-18 20:42:29","285872"
"A2IW9L0OVI3D0I","cs_wg_rev_conf_v3_pilot1","3E13VNJ1NNWIBJBBMJCN3L9400L1IX","49","0","VOLCANO","5","CRICKET","13","1","1887",,,,,"0","2018-10-18 20:42:30","285873"
"A3NPYIGN1MP121","cs_wg_rev_conf_v3_pilot1","3H0W84IWBK3UOJ86OU1BOXTPC57ERW","10","0","PELICAN","1","COWBOY","6","1","1100",,,,,"0","2018-10-18 20:42:31","285874"
"A3DCGKISDE1HWO","cs_wg_rev_conf_v3_pilot1","3LEIZ60CDJ0MVE3GQ0F2IMUDUPAZ90","36","0","CANCER","1","MONKEY","13","1","1582",,,,,"0","2018-10-18 20:42:33","285875"
"A3NPYIGN1MP121","cs_wg_rev_conf_v3_pilot1","3H0W84IWBK3UOJ86OU1BOXTPC57ERW","11","0","TOMATO","5","ROCKET","3","1","1254",,,,,"0","2018-10-18 20:42:35","285876"
"A3DCGKISDE1HWO","cs_wg_rev_conf_v3_pilot1","3LEIZ60CDJ0MVE3GQ0F2IMUDUPAZ90","37","0","BICYCLE","15","CANCER","1","0","1158",,,,,"0","2018-10-18 20:42:36","285877"
"A3NPYIGN1MP121","cs_wg_rev_conf_v3_pilot1","3H0W84IWBK3UOJ86OU1BOXTPC57ERW","12","0","COWBOY","6","AVOCADO","10","1","1101",,,,,"0","2018-10-18 20:42:38","285878"
"A3NPYIGN1MP121","cs_wg_rev_conf_v3_pilot1","3H0W84IWBK3UOJ86OU1BOXTPC57ERW","13","0","POTATO","9","AIRBAG","7","1","2527",,,,,"0","2018-10-18 20:42:43","285879"
"A2IW9L0OVI3D0I","cs_wg_rev_conf_v3_pilot1","3E13VNJ1NNWIBJBBMJCN3L9400L1IX","50","0","COWBOY","6","PALACE","10","1","11227",,,,,"0","2018-10-18 20:42:43","285880"
"A2IW9L0OVI3D0I","cs_wg_rev_conf_v3_pilot1","3E13VNJ1NNWIBJBBMJCN3L9400L1IX","51","0","PELICAN","9","GRENADE","1","0","847",,,,,"0","2018-10-18 20:42:45","285881"
"A3NPYIGN1MP121","cs_wg_rev_conf_v3_pilot1","3H0W84IWBK3UOJ86OU1BOXTPC57ERW","14","0","VOLCANO","15","AVOCADO","10","0","925",,,,,"0","2018-10-18 20:42:46","285882"
"A3DCGKISDE1HWO","cs_wg_rev_conf_v3_pilot1","3LEIZ60CDJ0MVE3GQ0F2IMUDUPAZ90","38","0","LIZARD","10","TOMATO","11","1","7423",,,,,"0","2018-10-18 20:42:46","285883"
"A2IW9L0OVI3D0I","cs_wg_rev_conf_v3_pilot1","3E13VNJ1NNWIBJBBMJCN3L9400L1IX","52","0","GRENADE","1","AVOCADO","7","1","1057",,,,,"0","2018-10-18 20:42:48","285884"
"A3DCGKISDE1HWO","cs_wg_rev_conf_v3_pilot1","3LEIZ60CDJ0MVE3GQ0F2IMUDUPAZ90","39","0","TOMATO","11","BICYCLE","15","1","1622",,,,,"0","2018-10-18 20:42:49","285885"
"A3NPYIGN1MP121","cs_wg_rev_conf_v3_pilot1","3H0W84IWBK3UOJ86OU1BOXTPC57ERW","15","0","MOUSE","8","CHICKEN","13","0","1375",,,,,"0","2018-10-18 20:42:49","285886"
"A3NPYIGN1MP121","cs_wg_rev_conf_v3_pilot1","3H0W84IWBK3UOJ86OU1BOXTPC57ERW","16","0","CANCER","11","AVOCADO","10","1","1149",,,,,"0","2018-10-18 20:42:52","285887"
"A3DCGKISDE1HWO","cs_wg_rev_conf_v3_pilot1","3LEIZ60CDJ0MVE3GQ0F2IMUDUPAZ90","40","0","PENGUIN","8","TOMATO","11","1","2136",,,,,"0","2018-10-18 20:42:53","285888"
"A2IW9L0OVI3D0I","cs_wg_rev_conf_v3_pilot1","3E13VNJ1NNWIBJBBMJCN3L9400L1IX","53","0","VOLCANO","5","SAUCE","8","1","4016",,,,,"0","2018-10-18 20:42:53","285889"
"A3DCGKISDE1HWO","cs_wg_rev_conf_v3_pilot1","3LEIZ60CDJ0MVE3GQ0F2IMUDUPAZ90","41","0","MONKEY","13","BANANA","6","0","1408",,,,,"0","2018-10-18 20:42:56","285890"
"A3NPYIGN1MP121","cs_wg_rev_conf_v3_pilot1","3H0W84IWBK3UOJ86OU1BOXTPC57ERW","17","0","ROCKET","3","PELICAN","1","0","1413",,,,,"0","2018-10-18 20:42:56","285891"
"A3DCGKISDE1HWO","cs_wg_rev_conf_v3_pilot1","3LEIZ60CDJ0MVE3GQ0F2IMUDUPAZ90","42","0","PENGUIN","8","COOKIE","3","0","1056",,,,,"0","2018-10-18 20:42:59","285892"
"A3NPYIGN1MP121","cs_wg_rev_conf_v3_pilot1","3H0W84IWBK3UOJ86OU1BOXTPC57ERW","18","0","COWBOY","6","AIRBAG","7","1","1126",,,,,"0","2018-10-18 20:42:59","285893"
"A2IW9L0OVI3D0I","cs_wg_rev_conf_v3_pilot1","3E13VNJ1NNWIBJBBMJCN3L9400L1IX","54","0","AVOCADO","7","COWBOY","6","0","6734",,,,,"0","2018-10-18 20:43:01","285894"
"A3DCGKISDE1HWO","cs_wg_rev_conf_v3_pilot1","3LEIZ60CDJ0MVE3GQ0F2IMUDUPAZ90","43","0","GRENADE","5","MONKEY","13","1","1353",,,,,"0","2018-10-18 20:43:02","285895"
"A3NPYIGN1MP121","cs_wg_rev_conf_v3_pilot1","3H0W84IWBK3UOJ86OU1BOXTPC57ERW","19","0","PELICAN","1","TOMATO","5","1","1382",,,,,"0","2018-10-18 20:43:02","285896"
"A3DCGKISDE1HWO","cs_wg_rev_conf_v3_pilot1","3LEIZ60CDJ0MVE3GQ0F2IMUDUPAZ90","44","0","MONKEY","13","COOKIE","3","0","924",,,,,"0","2018-10-18 20:43:04","285897"
"A3NPYIGN1MP121","cs_wg_rev_conf_v3_pilot1","3H0W84IWBK3UOJ86OU1BOXTPC57ERW","20","0","MOUSE","8","PELICAN","1","0","1007",,,,,"0","2018-10-18 20:43:05","285898"
"A3DCGKISDE1HWO","cs_wg_rev_conf_v3_pilot1","3LEIZ60CDJ0MVE3GQ0F2IMUDUPAZ90","45","0","CANCER","1","PENGUIN","8","1","1174",,,,,"0","2018-10-18 20:43:07","285899"
"A2IW9L0OVI3D0I","cs_wg_rev_conf_v3_pilot1","3E13VNJ1NNWIBJBBMJCN3L9400L1IX","55","0","COWBOY","6","AVOCADO","7","1","4116",,,,,"0","2018-10-18 20:43:07","285900"
"A2IW9L0OVI3D0I","cs_wg_rev_conf_v3_pilot1","3E13VNJ1NNWIBJBBMJCN3L9400L1IX","56","0","GRENADE","1","AIRBAG","11","1","1233",,,,,"0","2018-10-18 20:43:10","285901"
"A3NPYIGN1MP121","cs_wg_rev_conf_v3_pilot1","3H0W84IWBK3UOJ86OU1BOXTPC57ERW","21","0","CHICKEN","13","POTATO","9","1","2670",,,,,"0","2018-10-18 20:43:10","285902"
"A3DCGKISDE1HWO","cs_wg_rev_conf_v3_pilot1","3LEIZ60CDJ0MVE3GQ0F2IMUDUPAZ90","46","0","PELICAN","7","TOMATO","11","1","1910",,,,,"0","2018-10-18 20:43:11","285903"
"A3NPYIGN1MP121","cs_wg_rev_conf_v3_pilot1","3H0W84IWBK3UOJ86OU1BOXTPC57ERW","22","0","CHICKEN","13","ROCKET","3","0","710",,,,,"0","2018-10-18 20:43:12","285904"
"A3DCGKISDE1HWO","cs_wg_rev_conf_v3_pilot1","3LEIZ60CDJ0MVE3GQ0F2IMUDUPAZ90","47","0","BICYCLE","15","COOKIE","3","0","1362",,,,,"0","2018-10-18 20:43:14","285905"
"A2IW9L0OVI3D0I","cs_wg_rev_conf_v3_pilot1","3E13VNJ1NNWIBJBBMJCN3L9400L1IX","57","0","AVOCADO","7","PELICAN","9","1","4111",,,,,"0","2018-10-18 20:43:15","285906"
"A3NPYIGN1MP121","cs_wg_rev_conf_v3_pilot1","3H0W84IWBK3UOJ86OU1BOXTPC57ERW","23","0","AIRBAG","7","COWBOY","6","0","3398",,,,,"0","2018-10-18 20:43:18","285907"
"A3DCGKISDE1HWO","cs_wg_rev_conf_v3_pilot1","3LEIZ60CDJ0MVE3GQ0F2IMUDUPAZ90","48","0","COWBOY","9","BICYCLE","15","1","3035",,,,,"0","2018-10-18 20:43:18","285908"
"A3NPYIGN1MP121","cs_wg_rev_conf_v3_pilot1","3H0W84IWBK3UOJ86OU1BOXTPC57ERW","24","0","TOMATO","5","VOLCANO","15","1","984",,,,,"0","2018-10-18 20:43:21","285909"
"A3DCGKISDE1HWO","cs_wg_rev_conf_v3_pilot1","3LEIZ60CDJ0MVE3GQ0F2IMUDUPAZ90","49","0","LIZARD","10","CANCER","1","0","1036",,,,,"0","2018-10-18 20:43:21","285910"
"A2IW9L0OVI3D0I","cs_wg_rev_conf_v3_pilot1","3E13VNJ1NNWIBJBBMJCN3L9400L1IX","58","0","VOLCANO","5","CHICKEN","3","0","5950",,,,,"0","2018-10-18 20:43:23","285911"
"A3NPYIGN1MP121","cs_wg_rev_conf_v3_pilot1","3H0W84IWBK3UOJ86OU1BOXTPC57ERW","25","0","AIRBAG","7","POTATO","9","0","1654",,,,,"0","2018-10-18 20:43:24","285912"
"A3DCGKISDE1HWO","cs_wg_rev_conf_v3_pilot1","3LEIZ60CDJ0MVE3GQ0F2IMUDUPAZ90","50","0","TOMATO","11","LIZARD","10","0","2223",,,,,"0","2018-10-18 20:43:25","285913"
"A2IW9L0OVI3D0I","cs_wg_rev_conf_v3_pilot1","3E13VNJ1NNWIBJBBMJCN3L9400L1IX","59","0","CRICKET","13","AVOCADO","7","0","1890",,,,,"0","2018-10-18 20:43:26","285914"
"A3NPYIGN1MP121","cs_wg_rev_conf_v3_pilot1","3H0W84IWBK3UOJ86OU1BOXTPC57ERW","26","0","PELICAN","1","AVOCADO","10","1","1478",,,,,"0","2018-10-18 20:43:28","285915"
"A3NPYIGN1MP121","cs_wg_rev_conf_v3_pilot1","3H0W84IWBK3UOJ86OU1BOXTPC57ERW","27","0","PELICAN","1","CHICKEN","13","1","822",,,,,"0","2018-10-18 20:43:30","285916"
"A3NPYIGN1MP121","cs_wg_rev_conf_v3_pilot1","3H0W84IWBK3UOJ86OU1BOXTPC57ERW","28","0","VOLCANO","15","PELICAN","1","0","830",,,,,"0","2018-10-18 20:43:32","285917"
"A2IW9L0OVI3D0I","cs_wg_rev_conf_v3_pilot1","3E13VNJ1NNWIBJBBMJCN3L9400L1IX","60","0","COWBOY","6","PELICAN","9","1","7662",,,,,"0","2018-10-18 20:43:37","285918"
"A3NPYIGN1MP121","cs_wg_rev_conf_v3_pilot1","3H0W84IWBK3UOJ86OU1BOXTPC57ERW","29","0","COWBOY","6","MOUSE","8","1","3600",,,,,"0","2018-10-18 20:43:38","285919"
"A3DCGKISDE1HWO","cs_wg_rev_conf_v3_pilot1","3LEIZ60CDJ0MVE3GQ0F2IMUDUPAZ90","51","0","MONKEY","13","CANCER","1","0","13282",,,,,"0","2018-10-18 20:43:40","285920"
"A3NPYIGN1MP121","cs_wg_rev_conf_v3_pilot1","3H0W84IWBK3UOJ86OU1BOXTPC57ERW","30","0","AIRBAG","7","AVOCADO","10","1","1822",,,,,"0","2018-10-18 20:43:41","285921"
"A2IW9L0OVI3D0I","cs_wg_rev_conf_v3_pilot1","3E13VNJ1NNWIBJBBMJCN3L9400L1IX","61","0","VOLCANO","5","PELICAN","9","1","4332",,,,,"0","2018-10-18 20:43:42","285922"
"A3DCGKISDE1HWO","cs_wg_rev_conf_v3_pilot1","3LEIZ60CDJ0MVE3GQ0F2IMUDUPAZ90","52","0","BANANA","6","MONKEY","13","1","1448",,,,,"0","2018-10-18 20:43:43","285923"
"A3NPYIGN1MP121","cs_wg_rev_conf_v3_pilot1","3H0W84IWBK3UOJ86OU1BOXTPC57ERW","31","0","ROCKET","3","AVOCADO","10","1","1231",,,,,"0","2018-10-18 20:43:44","285924"
"A3DCGKISDE1HWO","cs_wg_rev_conf_v3_pilot1","3LEIZ60CDJ0MVE3GQ0F2IMUDUPAZ90","53","0","COOKIE","3","BICYCLE","15","1","1215",,,,,"0","2018-10-18 20:43:46","285925"
"A3NPYIGN1MP121","cs_wg_rev_conf_v3_pilot1","3H0W84IWBK3UOJ86OU1BOXTPC57ERW","32","0","AVOCADO","10","ROCKET","3","0","983",,,,,"0","2018-10-18 20:43:47","285926"
"A3NPYIGN1MP121","cs_wg_rev_conf_v3_pilot1","3H0W84IWBK3UOJ86OU1BOXTPC57ERW","33","0","TOMATO","5","CHICKEN","13","1","1238",,,,,"0","2018-10-18 20:43:49","285927"
"A2IW9L0OVI3D0I","cs_wg_rev_conf_v3_pilot1","3E13VNJ1NNWIBJBBMJCN3L9400L1IX","62","0","VOLCANO","5","AIRBAG","11","1","5494",,,,,"0","2018-10-18 20:43:49","285928"
"A3NPYIGN1MP121","cs_wg_rev_conf_v3_pilot1","3H0W84IWBK3UOJ86OU1BOXTPC57ERW","34","0","AVOCADO","10","MOUSE","8","0","831",,,,,"0","2018-10-18 20:43:52","285929"
"A3DCGKISDE1HWO","cs_wg_rev_conf_v3_pilot1","3LEIZ60CDJ0MVE3GQ0F2IMUDUPAZ90","54","0","PENGUIN","8","COWBOY","9","1","4126",,,,,"0","2018-10-18 20:43:53","285930"
"A3NPYIGN1MP121","cs_wg_rev_conf_v3_pilot1","3H0W84IWBK3UOJ86OU1BOXTPC57ERW","35","0","PELICAN","1","MOUSE","8","1","1078",,,,,"0","2018-10-18 20:43:55","285931"
"A2IW9L0OVI3D0I","cs_wg_rev_conf_v3_pilot1","3E13VNJ1NNWIBJBBMJCN3L9400L1IX","63","0","AIRBAG","11","PELICAN","9","0","5608",,,,,"0","2018-10-18 20:43:56","285932"
"A3DCGKISDE1HWO","cs_wg_rev_conf_v3_pilot1","3LEIZ60CDJ0MVE3GQ0F2IMUDUPAZ90","55","0","BANANA","6","BICYCLE","15","1","1432",,,,,"0","2018-10-18 20:43:57","285933"
"A3NPYIGN1MP121","cs_wg_rev_conf_v3_pilot1","3H0W84IWBK3UOJ86OU1BOXTPC57ERW","36","0","POTATO","9","MOUSE","8","1","2375",,,,,"0","2018-10-18 20:43:59","285934"
"A2IW9L0OVI3D0I","cs_wg_rev_conf_v3_pilot1","3E13VNJ1NNWIBJBBMJCN3L9400L1IX","64","0","CRICKET","13","AIRBAG","11","0","2595",,,,,"0","2018-10-18 20:44:00","285935"
"A3NPYIGN1MP121","cs_wg_rev_conf_v3_pilot1","3H0W84IWBK3UOJ86OU1BOXTPC57ERW","37","0","TOMATO","5","COWBOY","6","1","1215",,,,,"0","2018-10-18 20:44:02","285936"
"A3DCGKISDE1HWO","cs_wg_rev_conf_v3_pilot1","3LEIZ60CDJ0MVE3GQ0F2IMUDUPAZ90","56","0","MONKEY","13","PELICAN","7","0","3713",,,,,"0","2018-10-18 20:44:03","285937"
"A2IW9L0OVI3D0I","cs_wg_rev_conf_v3_pilot1","3E13VNJ1NNWIBJBBMJCN3L9400L1IX","65","0","GRENADE","1","COWBOY","6","1","1294",,,,,"0","2018-10-18 20:44:03","285938"
"A3NPYIGN1MP121","cs_wg_rev_conf_v3_pilot1","3H0W84IWBK3UOJ86OU1BOXTPC57ERW","38","0","CANCER","11","AIRBAG","7","0","1087",,,,,"0","2018-10-18 20:44:05","285939"
"A2IW9L0OVI3D0I","cs_wg_rev_conf_v3_pilot1","3E13VNJ1NNWIBJBBMJCN3L9400L1IX","66","0","CRICKET","13","VOLCANO","5","0","1897",,,,,"0","2018-10-18 20:44:07","285940"
"A3DCGKISDE1HWO","cs_wg_rev_conf_v3_pilot1","3LEIZ60CDJ0MVE3GQ0F2IMUDUPAZ90","57","0","BANANA","6","PELICAN","7","1","2344",,,,,"0","2018-10-18 20:44:07","285941"
"A3NPYIGN1MP121","cs_wg_rev_conf_v3_pilot1","3H0W84IWBK3UOJ86OU1BOXTPC57ERW","39","0","CANCER","11","PELICAN","1","0","1174",,,,,"0","2018-10-18 20:44:07","285942"
"A2IW9L0OVI3D0I","cs_wg_rev_conf_v3_pilot1","3E13VNJ1NNWIBJBBMJCN3L9400L1IX","67","0","BANANA","15","PALACE","10","0","764",,,,,"0","2018-10-18 20:44:09","285943"
"A3DCGKISDE1HWO","cs_wg_rev_conf_v3_pilot1","3LEIZ60CDJ0MVE3GQ0F2IMUDUPAZ90","58","0","GRENADE","5","PENGUIN","8","1","2340",,,,,"0","2018-10-18 20:44:11","285944"
"A3NPYIGN1MP121","cs_wg_rev_conf_v3_pilot1","3H0W84IWBK3UOJ86OU1BOXTPC57ERW","40","0","MOUSE","8","POTATO","9","1","3632",,,,,"0","2018-10-18 20:44:13","285945"
"A3DCGKISDE1HWO","cs_wg_rev_conf_v3_pilot1","3LEIZ60CDJ0MVE3GQ0F2IMUDUPAZ90","59","0","PENGUIN","8","GRENADE","5","0","1200",,,,,"0","2018-10-18 20:44:14","285946"
"A3DCGKISDE1HWO","cs_wg_rev_conf_v3_pilot1","3LEIZ60CDJ0MVE3GQ0F2IMUDUPAZ90","60","0","BICYCLE","15","BANANA","6","0","787",,,,,"0","2018-10-18 20:44:16","285947"
"A3NPYIGN1MP121","cs_wg_rev_conf_v3_pilot1","3H0W84IWBK3UOJ86OU1BOXTPC57ERW","41","0","MOUSE","8","CANCER","11","1","1838",,,,,"0","2018-10-18 20:44:16","285948"
"A2IW9L0OVI3D0I","cs_wg_rev_conf_v3_pilot1","3E13VNJ1NNWIBJBBMJCN3L9400L1IX","68","0","COWBOY","6","BANANA","15","1","4970",,,,,"0","2018-10-18 20:44:17","285949"
"A3DCGKISDE1HWO","cs_wg_rev_conf_v3_pilot1","3LEIZ60CDJ0MVE3GQ0F2IMUDUPAZ90","61","0","COOKIE","3","COWBOY","9","1","989",,,,,"0","2018-10-18 20:44:19","285950"
"A3NPYIGN1MP121","cs_wg_rev_conf_v3_pilot1","3H0W84IWBK3UOJ86OU1BOXTPC57ERW","42","0","ROCKET","3","AIRBAG","7","1","1927",,,,,"0","2018-10-18 20:44:20","285951"
"A2IW9L0OVI3D0I","cs_wg_rev_conf_v3_pilot1","3E13VNJ1NNWIBJBBMJCN3L9400L1IX","69","0","BANANA","15","PELICAN","9","0","1251",,,,,"0","2018-10-18 20:44:20","285952"
"A3DCGKISDE1HWO","cs_wg_rev_conf_v3_pilot1","3LEIZ60CDJ0MVE3GQ0F2IMUDUPAZ90","62","0","LIZARD","10","GRENADE","5","0","1003",,,,,"0","2018-10-18 20:44:21","285953"
"A3DCGKISDE1HWO","cs_wg_rev_conf_v3_pilot1","3LEIZ60CDJ0MVE3GQ0F2IMUDUPAZ90","63","0","BICYCLE","15","PELICAN","7","0","1251",,,,,"0","2018-10-18 20:44:24","285954"
"A3NPYIGN1MP121","cs_wg_rev_conf_v3_pilot1","3H0W84IWBK3UOJ86OU1BOXTPC57ERW","43","0","MOUSE","8","ROCKET","3","0","3167",,,,,"0","2018-10-18 20:44:24","285955"
"A3NPYIGN1MP121","cs_wg_rev_conf_v3_pilot1","3H0W84IWBK3UOJ86OU1BOXTPC57ERW","44","0","VOLCANO","15","MOUSE","8","0","774",,,,,"0","2018-10-18 20:44:27","285956"
"A2IW9L0OVI3D0I","cs_wg_rev_conf_v3_pilot1","3E13VNJ1NNWIBJBBMJCN3L9400L1IX","70","0","VOLCANO","5","AVOCADO","7","1","5031",,,,,"0","2018-10-18 20:44:27","285957"
"A3DCGKISDE1HWO","cs_wg_rev_conf_v3_pilot1","3LEIZ60CDJ0MVE3GQ0F2IMUDUPAZ90","64","0","COOKIE","3","TOMATO","11","1","1742",,,,,"0","2018-10-18 20:44:27","285958"
"A3NPYIGN1MP121","cs_wg_rev_conf_v3_pilot1","3H0W84IWBK3UOJ86OU1BOXTPC57ERW","45","0","CANCER","11","VOLCANO","15","1","1301",,,,,"0","2018-10-18 20:44:29","285959"
"A3DCGKISDE1HWO","cs_wg_rev_conf_v3_pilot1","3LEIZ60CDJ0MVE3GQ0F2IMUDUPAZ90","65","0","COWBOY","9","MONKEY","13","1","1818",,,,,"0","2018-10-18 20:44:31","285960"
"A3NPYIGN1MP121","cs_wg_rev_conf_v3_pilot1","3H0W84IWBK3UOJ86OU1BOXTPC57ERW","46","0","CHICKEN","13","VOLCANO","15","1","1231",,,,,"0","2018-10-18 20:44:32","285961"
"A2IW9L0OVI3D0I","cs_wg_rev_conf_v3_pilot1","3E13VNJ1NNWIBJBBMJCN3L9400L1IX","71","0","PALACE","10","VOLCANO","5","0","4081",,,,,"0","2018-10-18 20:44:32","285962"
"A3DCGKISDE1HWO","cs_wg_rev_conf_v3_pilot1","3LEIZ60CDJ0MVE3GQ0F2IMUDUPAZ90","66","0","CANCER","1","BICYCLE","15","1","1156",,,,,"0","2018-10-18 20:44:34","285963"
"A2IW9L0OVI3D0I","cs_wg_rev_conf_v3_pilot1","3E13VNJ1NNWIBJBBMJCN3L9400L1IX","72","0","CHICKEN","3","BANANA","15","1","1586",,,,,"0","2018-10-18 20:44:35","285964"
"A3DCGKISDE1HWO","cs_wg_rev_conf_v3_pilot1","3LEIZ60CDJ0MVE3GQ0F2IMUDUPAZ90","67","0","CANCER","1","GRENADE","5","1","1840",,,,,"0","2018-10-18 20:44:37","285965"
"A2IW9L0OVI3D0I","cs_wg_rev_conf_v3_pilot1","3E13VNJ1NNWIBJBBMJCN3L9400L1IX","73","0","CHICKEN","3","COWBOY","6","1","1604",,,,,"0","2018-10-18 20:44:39","285966"
"A3NPYIGN1MP121","cs_wg_rev_conf_v3_pilot1","3H0W84IWBK3UOJ86OU1BOXTPC57ERW","47","0","POTATO","9","PELICAN","1","0","4975",,,,,"0","2018-10-18 20:44:39","285967"
"A3DCGKISDE1HWO","cs_wg_rev_conf_v3_pilot1","3LEIZ60CDJ0MVE3GQ0F2IMUDUPAZ90","68","0","COOKIE","3","BANANA","6","1","1691",,,,,"0","2018-10-18 20:44:41","285968"
"A3NPYIGN1MP121","cs_wg_rev_conf_v3_pilot1","3H0W84IWBK3UOJ86OU1BOXTPC57ERW","48","0","VOLCANO","15","TOMATO","5","0","687",,,,,"0","2018-10-18 20:44:41","285969"
"A2IW9L0OVI3D0I","cs_wg_rev_conf_v3_pilot1","3E13VNJ1NNWIBJBBMJCN3L9400L1IX","74","0","GRENADE","1","VOLCANO","5","1","1468",,,,,"0","2018-10-18 20:44:41","285970"
"A3DCGKISDE1HWO","cs_wg_rev_conf_v3_pilot1","3LEIZ60CDJ0MVE3GQ0F2IMUDUPAZ90","69","0","GRENADE","5","COOKIE","3","0","1051",,,,,"0","2018-10-18 20:44:43","285971"
"A3DCGKISDE1HWO","cs_wg_rev_conf_v3_pilot1","3LEIZ60CDJ0MVE3GQ0F2IMUDUPAZ90","70","0","BICYCLE","15","GRENADE","5","0","823",,,,,"0","2018-10-18 20:44:46","285972"
"A3NPYIGN1MP121","cs_wg_rev_conf_v3_pilot1","3H0W84IWBK3UOJ86OU1BOXTPC57ERW","49","0","ROCKET","3","CHICKEN","13","1","3686",,,,,"0","2018-10-18 20:44:46","285973"
"A3DCGKISDE1HWO","cs_wg_rev_conf_v3_pilot1","3LEIZ60CDJ0MVE3GQ0F2IMUDUPAZ90","71","0","COWBOY","9","GRENADE","5","0","1260",,,,,"0","2018-10-18 20:44:48","285974"
"A2IW9L0OVI3D0I","cs_wg_rev_conf_v3_pilot1","3E13VNJ1NNWIBJBBMJCN3L9400L1IX","75","0","PALACE","10","GRENADE","1","0","6108",,,,,"0","2018-10-18 20:44:49","285975"
"A12R8A3ORFKMBV","cs_wg_rev_conf_v3_pilot1","3OE22WJIGIPB1EQS1FRGNP5N27ZQUO","0","0","POTATO","11","DONKEY","3","0","11290",,,,,"1","2018-10-18 20:44:49","285976"
"A3NPYIGN1MP121","cs_wg_rev_conf_v3_pilot1","3H0W84IWBK3UOJ86OU1BOXTPC57ERW","50","0","MOUSE","8","TOMATO","5","0","1807",,,,,"0","2018-10-18 20:44:50","285977"
"A2IW9L0OVI3D0I","cs_wg_rev_conf_v3_pilot1","3E13VNJ1NNWIBJBBMJCN3L9400L1IX","76","0","BANANA","15","GRENADE","1","0","808",,,,,"0","2018-10-18 20:44:51","285978"
"A3DCGKISDE1HWO","cs_wg_rev_conf_v3_pilot1","3LEIZ60CDJ0MVE3GQ0F2IMUDUPAZ90","72","0","LIZARD","10","PENGUIN","8","0","1357",,,,,"0","2018-10-18 20:44:52","285979"
"A3NPYIGN1MP121","cs_wg_rev_conf_v3_pilot1","3H0W84IWBK3UOJ86OU1BOXTPC57ERW","51","0","VOLCANO","15","AIRBAG","7","0","748",,,,,"0","2018-10-18 20:44:52","285980"
"A2IW9L0OVI3D0I","cs_wg_rev_conf_v3_pilot1","3E13VNJ1NNWIBJBBMJCN3L9400L1IX","77","0","VOLCANO","5","BANANA","15","1","1453",,,,,"0","2018-10-18 20:44:54","285981"
"A3DCGKISDE1HWO","cs_wg_rev_conf_v3_pilot1","3LEIZ60CDJ0MVE3GQ0F2IMUDUPAZ90","73","0","MONKEY","13","COWBOY","9","0","1333",,,,,"0","2018-10-18 20:44:54","285982"
"A3NPYIGN1MP121","cs_wg_rev_conf_v3_pilot1","3H0W84IWBK3UOJ86OU1BOXTPC57ERW","52","0","MOUSE","8","VOLCANO","15","1","1087",,,,,"0","2018-10-18 20:44:55","285983"
"A3NPYIGN1MP121","cs_wg_rev_conf_v3_pilot1","3H0W84IWBK3UOJ86OU1BOXTPC57ERW","53","0","TOMATO","5","AIRBAG","7","0","4222",,,,,"0","2018-10-18 20:45:01","285984"
"A2IW9L0OVI3D0I","cs_wg_rev_conf_v3_pilot1","3E13VNJ1NNWIBJBBMJCN3L9400L1IX","78","0","GRENADE","1","CHICKEN","3","1","4271",,,,,"0","2018-10-18 20:45:02","285985"
"A3DCGKISDE1HWO","cs_wg_rev_conf_v3_pilot1","3LEIZ60CDJ0MVE3GQ0F2IMUDUPAZ90","74","0","MONKEY","13","LIZARD","10","0","2187",,,,,"0","2018-10-18 20:45:02","285986"
"A3NPYIGN1MP121","cs_wg_rev_conf_v3_pilot1","3H0W84IWBK3UOJ86OU1BOXTPC57ERW","54","0","ROCKET","3","CANCER","11","1","1206",,,,,"0","2018-10-18 20:45:04","285987"
"A2IW9L0OVI3D0I","cs_wg_rev_conf_v3_pilot1","3E13VNJ1NNWIBJBBMJCN3L9400L1IX","79","0","COWBOY","6","GRENADE","1","0","1181",,,,,"0","2018-10-18 20:45:04","285988"
"A3DCGKISDE1HWO","cs_wg_rev_conf_v3_pilot1","3LEIZ60CDJ0MVE3GQ0F2IMUDUPAZ90","75","0","TOMATO","11","BANANA","6","0","1342",,,,,"0","2018-10-18 20:45:05","285989"
"A3NPYIGN1MP121","cs_wg_rev_conf_v3_pilot1","3H0W84IWBK3UOJ86OU1BOXTPC57ERW","55","0","TOMATO","5","CANCER","11","1","910",,,,,"0","2018-10-18 20:45:06","285990"
"A2IW9L0OVI3D0I","cs_wg_rev_conf_v3_pilot1","3E13VNJ1NNWIBJBBMJCN3L9400L1IX","80","0","PELICAN","9","BANANA","15","1","1223",,,,,"0","2018-10-18 20:45:07","285991"
"A3NPYIGN1MP121","cs_wg_rev_conf_v3_pilot1","3H0W84IWBK3UOJ86OU1BOXTPC57ERW","56","0","VOLCANO","15","ROCKET","3","0","591",,,,,"0","2018-10-18 20:45:08","285992"
"A2IW9L0OVI3D0I","cs_wg_rev_conf_v3_pilot1","3E13VNJ1NNWIBJBBMJCN3L9400L1IX","81","0","AIRBAG","11","COWBOY","6","0","1645",,,,,"0","2018-10-18 20:45:10","285993"
"A3DCGKISDE1HWO","cs_wg_rev_conf_v3_pilot1","3LEIZ60CDJ0MVE3GQ0F2IMUDUPAZ90","76","0","LIZARD","10","BANANA","6","0","3097",,,,,"0","2018-10-18 20:45:10","285994"
"A3NPYIGN1MP121","cs_wg_rev_conf_v3_pilot1","3H0W84IWBK3UOJ86OU1BOXTPC57ERW","57","0","ROCKET","3","TOMATO","5","1","2279",,,,,"0","2018-10-18 20:45:12","285995"
"A2IW9L0OVI3D0I","cs_wg_rev_conf_v3_pilot1","3E13VNJ1NNWIBJBBMJCN3L9400L1IX","82","0","CRICKET","13","COWBOY","6","0","874",,,,,"0","2018-10-18 20:45:13","285996"
"A3NPYIGN1MP121","cs_wg_rev_conf_v3_pilot1","3H0W84IWBK3UOJ86OU1BOXTPC57ERW","58","0","VOLCANO","15","CANCER","11","0","655",,,,,"0","2018-10-18 20:45:14","285997"
"A2IW9L0OVI3D0I","cs_wg_rev_conf_v3_pilot1","3E13VNJ1NNWIBJBBMJCN3L9400L1IX","83","0","CHICKEN","3","PELICAN","9","1","2904",,,,,"0","2018-10-18 20:45:17","285998"
"A3NPYIGN1MP121","cs_wg_rev_conf_v3_pilot1","3H0W84IWBK3UOJ86OU1BOXTPC57ERW","59","0","COWBOY","6","CHICKEN","13","1","2110",,,,,"0","2018-10-18 20:45:18","285999"
"A3DCGKISDE1HWO","cs_wg_rev_conf_v3_pilot1","3LEIZ60CDJ0MVE3GQ0F2IMUDUPAZ90","77","0","GRENADE","5","BANANA","6","1","5642",,,,,"0","2018-10-18 20:45:18","286000"
"A2IW9L0OVI3D0I","cs_wg_rev_conf_v3_pilot1","3E13VNJ1NNWIBJBBMJCN3L9400L1IX","84","0","BANANA","15","VOLCANO","5","0","648",,,,,"0","2018-10-18 20:45:19","286001"
"A3NPYIGN1MP121","cs_wg_rev_conf_v3_pilot1","3H0W84IWBK3UOJ86OU1BOXTPC57ERW","60","0","CHICKEN","13","AVOCADO","10","0","838",,,,,"0","2018-10-18 20:45:20","286002"
"A2IW9L0OVI3D0I","cs_wg_rev_conf_v3_pilot1","3E13VNJ1NNWIBJBBMJCN3L9400L1IX","85","0","PELICAN","9","VOLCANO","5","0","570",,,,,"0","2018-10-18 20:45:22","286003"
"A3DCGKISDE1HWO","cs_wg_rev_conf_v3_pilot1","3LEIZ60CDJ0MVE3GQ0F2IMUDUPAZ90","78","0","CANCER","1","COWBOY","9","1","1342",,,,,"0","2018-10-18 20:45:22","286004"
"A3NPYIGN1MP121","cs_wg_rev_conf_v3_pilot1","3H0W84IWBK3UOJ86OU1BOXTPC57ERW","61","0","MOUSE","8","AVOCADO","10","1","710",,,,,"0","2018-10-18 20:45:22","286005"
"A2IW9L0OVI3D0I","cs_wg_rev_conf_v3_pilot1","3E13VNJ1NNWIBJBBMJCN3L9400L1IX","86","0","CRICKET","13","GRENADE","1","0","933",,,,,"0","2018-10-18 20:45:24","286006"
"A3NPYIGN1MP121","cs_wg_rev_conf_v3_pilot1","3H0W84IWBK3UOJ86OU1BOXTPC57ERW","62","0","VOLCANO","15","CHICKEN","13","0","654",,,,,"0","2018-10-18 20:45:25","286007"
"A3DCGKISDE1HWO","cs_wg_rev_conf_v3_pilot1","3LEIZ60CDJ0MVE3GQ0F2IMUDUPAZ90","79","0","CANCER","1","COOKIE","3","0","828",,,,,"0","2018-10-18 20:45:26","286008"
"A2IW9L0OVI3D0I","cs_wg_rev_conf_v3_pilot1","3E13VNJ1NNWIBJBBMJCN3L9400L1IX","87","0","AIRBAG","11","CRICKET","13","0","1240",,,,,"0","2018-10-18 20:45:27","286009"
"A3NPYIGN1MP121","cs_wg_rev_conf_v3_pilot1","3H0W84IWBK3UOJ86OU1BOXTPC57ERW","63","0","PELICAN","1","POTATO","9","1","1343",,,,,"0","2018-10-18 20:45:28","286010"
"A3DCGKISDE1HWO","cs_wg_rev_conf_v3_pilot1","3LEIZ60CDJ0MVE3GQ0F2IMUDUPAZ90","80","0","CANCER","1","TOMATO","11","1","1190",,,,,"0","2018-10-18 20:45:29","286011"
"A3NPYIGN1MP121","cs_wg_rev_conf_v3_pilot1","3H0W84IWBK3UOJ86OU1BOXTPC57ERW","64","0","TOMATO","5","POTATO","9","1","1158",,,,,"0","2018-10-18 20:45:30","286012"
"A3LA5P3N3KI8U7","cs_wg_rev_conf_v3_pilot1","3TVSS0C0E111LY7PDJ0CAI177U9TW4","0","0","CANCER","15","BUCKET","3","1","6824",,,,,"0","2018-10-18 20:45:31","286013"
"A2IW9L0OVI3D0I","cs_wg_rev_conf_v3_pilot1","3E13VNJ1NNWIBJBBMJCN3L9400L1IX","88","0","PALACE","10","PELICAN","9","0","4026",,,,,"0","2018-10-18 20:45:33","286014"
"A3NPYIGN1MP121","cs_wg_rev_conf_v3_pilot1","3H0W84IWBK3UOJ86OU1BOXTPC57ERW","65","0","TOMATO","5","PELICAN","1","0","1758",,,,,"0","2018-10-18 20:45:34","286015"
"A3DCGKISDE1HWO","cs_wg_rev_conf_v3_pilot1","3LEIZ60CDJ0MVE3GQ0F2IMUDUPAZ90","81","0","COWBOY","9","TOMATO","11","1","3742",,,,,"0","2018-10-18 20:45:35","286016"
"A2IW9L0OVI3D0I","cs_wg_rev_conf_v3_pilot1","3E13VNJ1NNWIBJBBMJCN3L9400L1IX","89","0","PALACE","10","CRICKET","13","1","1540",,,,,"0","2018-10-18 20:45:36","286017"
"A3NPYIGN1MP121","cs_wg_rev_conf_v3_pilot1","3H0W84IWBK3UOJ86OU1BOXTPC57ERW","66","0","CHICKEN","13","AIRBAG","7","0","1454",,,,,"0","2018-10-18 20:45:36","286018"
"A3LA5P3N3KI8U7","cs_wg_rev_conf_v3_pilot1","3TVSS0C0E111LY7PDJ0CAI177U9TW4","1","0","VOLCANO","7","LIQUID","8","0","1289",,,,,"0","2018-10-18 20:45:37","286019"
"A2IW9L0OVI3D0I","cs_wg_rev_conf_v3_pilot1","3E13VNJ1NNWIBJBBMJCN3L9400L1IX","90","0","GRENADE","1","CRICKET","13","1","1145",,,,,"0","2018-10-18 20:45:39","286020"
"A3DCGKISDE1HWO","cs_wg_rev_conf_v3_pilot1","3LEIZ60CDJ0MVE3GQ0F2IMUDUPAZ90","82","0","MONKEY","13","TOMATO","11","1","2750",,,,,"0","2018-10-18 20:45:40","286021"
"A3NPYIGN1MP121","cs_wg_rev_conf_v3_pilot1","3H0W84IWBK3UOJ86OU1BOXTPC57ERW","67","0","CANCER","11","CHICKEN","13","1","3048",,,,,"0","2018-10-18 20:45:41","286022"
"A2IW9L0OVI3D0I","cs_wg_rev_conf_v3_pilot1","3E13VNJ1NNWIBJBBMJCN3L9400L1IX","91","0","AVOCADO","7","GRENADE","1","0","1689",,,,,"0","2018-10-18 20:45:42","286023"
"A3LA5P3N3KI8U7","cs_wg_rev_conf_v3_pilot1","3TVSS0C0E111LY7PDJ0CAI177U9TW4","2","0","PELICAN","9","BAKER","13","0","1048",,,,,"0","2018-10-18 20:45:42","286024"
"A3NPYIGN1MP121","cs_wg_rev_conf_v3_pilot1","3H0W84IWBK3UOJ86OU1BOXTPC57ERW","68","0","TOMATO","5","AVOCADO","10","1","2751",,,,,"0","2018-10-18 20:45:45","286025"
"A2IW9L0OVI3D0I","cs_wg_rev_conf_v3_pilot1","3E13VNJ1NNWIBJBBMJCN3L9400L1IX","92","0","CRICKET","13","PELICAN","9","0","2452",,,,,"0","2018-10-18 20:45:45","286026"
"A3LA5P3N3KI8U7","cs_wg_rev_conf_v3_pilot1","3TVSS0C0E111LY7PDJ0CAI177U9TW4","3","0","PELICAN","9","BUCKET","3","0","1934",,,,,"0","2018-10-18 20:45:47","286027"
"A2IW9L0OVI3D0I","cs_wg_rev_conf_v3_pilot1","3E13VNJ1NNWIBJBBMJCN3L9400L1IX","93","0","PELICAN","9","CHICKEN","3","0","1200",,,,,"0","2018-10-18 20:45:48","286028"
"A3DCGKISDE1HWO","cs_wg_rev_conf_v3_pilot1","3LEIZ60CDJ0MVE3GQ0F2IMUDUPAZ90","83","0","PENGUIN","8","LIZARD","10","1","5657",,,,,"0","2018-10-18 20:45:49","286029"
"A2IW9L0OVI3D0I","cs_wg_rev_conf_v3_pilot1","3E13VNJ1NNWIBJBBMJCN3L9400L1IX","94","0","PALACE","10","BANANA","15","1","1332",,,,,"0","2018-10-18 20:45:51","286030"
"A3LA5P3N3KI8U7","cs_wg_rev_conf_v3_pilot1","3TVSS0C0E111LY7PDJ0CAI177U9TW4","4","0","TOMATO","10","VOLCANO","7","0","1299",,,,,"0","2018-10-18 20:45:51","286031"
"A3DCGKISDE1HWO","cs_wg_rev_conf_v3_pilot1","3LEIZ60CDJ0MVE3GQ0F2IMUDUPAZ90","84","0","COOKIE","3","PELICAN","7","1","1646",,,,,"0","2018-10-18 20:45:52","286032"
"A3NPYIGN1MP121","cs_wg_rev_conf_v3_pilot1","3H0W84IWBK3UOJ86OU1BOXTPC57ERW","69","0","AIRBAG","7","MOUSE","8","1","5437",,,,,"0","2018-10-18 20:45:53","286033"
"A2V3GBDTA9KEU0","cs_wg_rev_conf_v3_pilot1","3YT88D1N08Z5RHFE9QBI4U3EQONK3I","0","0","SEAGULL","8","BASKET","3","0","8942",,,,,"1","2018-10-18 20:45:53","286034"
"A3LA5P3N3KI8U7","cs_wg_rev_conf_v3_pilot1","3TVSS0C0E111LY7PDJ0CAI177U9TW4","5","0","POTATO","1","GRENADE","11","0","1261",,,,,"0","2018-10-18 20:45:55","286035"
"A3DCGKISDE1HWO","cs_wg_rev_conf_v3_pilot1","3LEIZ60CDJ0MVE3GQ0F2IMUDUPAZ90","85","0","PELICAN","7","PENGUIN","8","1","2159",,,,,"0","2018-10-18 20:45:56","286036"
"A2IW9L0OVI3D0I","cs_wg_rev_conf_v3_pilot1","3E13VNJ1NNWIBJBBMJCN3L9400L1IX","95","0","AIRBAG","11","SAUCE","8","0","3917",,,,,"0","2018-10-18 20:45:56","286037"
"A3NPYIGN1MP121","cs_wg_rev_conf_v3_pilot1","3H0W84IWBK3UOJ86OU1BOXTPC57ERW","70","0","CANCER","11","ROCKET","3","0","1814",,,,,"0","2018-10-18 20:45:56","286038"
"A3DCGKISDE1HWO","cs_wg_rev_conf_v3_pilot1","3LEIZ60CDJ0MVE3GQ0F2IMUDUPAZ90","86","0","BICYCLE","15","TOMATO","11","0","1740",,,,,"0","2018-10-18 20:46:00","286039"
"A2IW9L0OVI3D0I","cs_wg_rev_conf_v3_pilot1","3E13VNJ1NNWIBJBBMJCN3L9400L1IX","96","0","AIRBAG","11","AVOCADO","7","0","2916",,,,,"0","2018-10-18 20:46:01","286040"
"A3LA5P3N3KI8U7","cs_wg_rev_conf_v3_pilot1","3TVSS0C0E111LY7PDJ0CAI177U9TW4","6","0","PELICAN","9","GRENADE","11","0","1718",,,,,"0","2018-10-18 20:46:01","286041"
"A3DCGKISDE1HWO","cs_wg_rev_conf_v3_pilot1","3LEIZ60CDJ0MVE3GQ0F2IMUDUPAZ90","87","0","TOMATO","11","GRENADE","5","0","1471",,,,,"0","2018-10-18 20:46:02","286042"
"A3NPYIGN1MP121","cs_wg_rev_conf_v3_pilot1","3H0W84IWBK3UOJ86OU1BOXTPC57ERW","71","0","COWBOY","6","TOMATO","5","1","3821",,,,,"0","2018-10-18 20:46:03","286043"
"A2IW9L0OVI3D0I","cs_wg_rev_conf_v3_pilot1","3E13VNJ1NNWIBJBBMJCN3L9400L1IX","97","0","BANANA","15","SAUCE","8","0","1241",,,,,"0","2018-10-18 20:46:03","286044"
"A2V3GBDTA9KEU0","cs_wg_rev_conf_v3_pilot1","3YT88D1N08Z5RHFE9QBI4U3EQONK3I","1","0","BASKET","3","SEAGULL","8","1","8230",,,,,"1","2018-10-18 20:46:04","286045"
"A3LA5P3N3KI8U7","cs_wg_rev_conf_v3_pilot1","3TVSS0C0E111LY7PDJ0CAI177U9TW4","7","0","VOLCANO","7","LIZARD","6","0","1152",,,,,"0","2018-10-18 20:46:05","286046"
"A3DCGKISDE1HWO","cs_wg_rev_conf_v3_pilot1","3LEIZ60CDJ0MVE3GQ0F2IMUDUPAZ90","88","0","GRENADE","5","CANCER","1","0","1122",,,,,"0","2018-10-18 20:46:06","286047"
"A3NPYIGN1MP121","cs_wg_rev_conf_v3_pilot1","3H0W84IWBK3UOJ86OU1BOXTPC57ERW","72","0","AIRBAG","7","TOMATO","5","0","3687",,,,,"0","2018-10-18 20:46:08","286048"
"A3LA5P3N3KI8U7","cs_wg_rev_conf_v3_pilot1","3TVSS0C0E111LY7PDJ0CAI177U9TW4","8","0","BAKER","13","CANCER","15","0","958",,,,,"0","2018-10-18 20:46:09","286049"
"A3DCGKISDE1HWO","cs_wg_rev_conf_v3_pilot1","3LEIZ60CDJ0MVE3GQ0F2IMUDUPAZ90","89","0","PELICAN","7","LIZARD","10","1","2114",,,,,"0","2018-10-18 20:46:10","286050"
"A2IW9L0OVI3D0I","cs_wg_rev_conf_v3_pilot1","3E13VNJ1NNWIBJBBMJCN3L9400L1IX","98","0","AVOCADO","7","VOLCANO","5","0","5927",,,,,"0","2018-10-18 20:46:11","286051"
"A3NPYIGN1MP121","cs_wg_rev_conf_v3_pilot1","3H0W84IWBK3UOJ86OU1BOXTPC57ERW","73","0","CHICKEN","13","PELICAN","1","0","1334",,,,,"0","2018-10-18 20:46:11","286052"
"A2V3GBDTA9KEU0","cs_wg_rev_conf_v3_pilot1","3YT88D1N08Z5RHFE9QBI4U3EQONK3I","2","0","POTATO","7","SEAGULL","8","1","4412",,,,,"1","2018-10-18 20:46:12","286053"
"A3LA5P3N3KI8U7","cs_wg_rev_conf_v3_pilot1","3TVSS0C0E111LY7PDJ0CAI177U9TW4","9","0","LIZARD","6","PELICAN","9","1","871",,,,,"0","2018-10-18 20:46:12","286054"
"A3DCGKISDE1HWO","cs_wg_rev_conf_v3_pilot1","3LEIZ60CDJ0MVE3GQ0F2IMUDUPAZ90","90","0","MONKEY","13","BICYCLE","15","1","1405",,,,,"0","2018-10-18 20:46:14","286055"
"A3NPYIGN1MP121","cs_wg_rev_conf_v3_pilot1","3H0W84IWBK3UOJ86OU1BOXTPC57ERW","74","0","AVOCADO","10","AIRBAG","7","0","1238",,,,,"0","2018-10-18 20:46:14","286056"
"A2IW9L0OVI3D0I","cs_wg_rev_conf_v3_pilot1","3E13VNJ1NNWIBJBBMJCN3L9400L1IX","99","0","PELICAN","9","AVOCADO","7","0","2634",,,,,"0","2018-10-18 20:46:15","286057"
"A3LA5P3N3KI8U7","cs_wg_rev_conf_v3_pilot1","3TVSS0C0E111LY7PDJ0CAI177U9TW4","10","0","BUCKET","3","VOLCANO","7","1","1517",,,,,"0","2018-10-18 20:46:16","286058"
"A2IW9L0OVI3D0I","cs_wg_rev_conf_v3_pilot1","3E13VNJ1NNWIBJBBMJCN3L9400L1IX","100","0","BANANA","15","COWBOY","6","0","701",,,,,"0","2018-10-18 20:46:17","286059"
"A3DCGKISDE1HWO","cs_wg_rev_conf_v3_pilot1","3LEIZ60CDJ0MVE3GQ0F2IMUDUPAZ90","91","0","BICYCLE","15","PENGUIN","8","0","1475",,,,,"0","2018-10-18 20:46:17","286060"
"A3NPYIGN1MP121","cs_wg_rev_conf_v3_pilot1","3H0W84IWBK3UOJ86OU1BOXTPC57ERW","75","0","POTATO","9","COWBOY","6","0","1677",,,,,"0","2018-10-18 20:46:17","286061"
"A3DCGKISDE1HWO","cs_wg_rev_conf_v3_pilot1","3LEIZ60CDJ0MVE3GQ0F2IMUDUPAZ90","92","0","BICYCLE","15","COWBOY","9","0","837",,,,,"0","2018-10-18 20:46:19","286062"
"A3NPYIGN1MP121","cs_wg_rev_conf_v3_pilot1","3H0W84IWBK3UOJ86OU1BOXTPC57ERW","76","0","CHICKEN","13","COWBOY","6","0","1159",,,,,"0","2018-10-18 20:46:20","286063"
"A3LA5P3N3KI8U7","cs_wg_rev_conf_v3_pilot1","3TVSS0C0E111LY7PDJ0CAI177U9TW4","11","0","GRENADE","11","BAKER","13","0","708",,,,,"0","2018-10-18 20:46:20","286064"
"A2IW9L0OVI3D0I","cs_wg_rev_conf_v3_pilot1","3E13VNJ1NNWIBJBBMJCN3L9400L1IX","101","0","AVOCADO","7","CRICKET","13","1","2398",,,,,"0","2018-10-18 20:46:20","286065"
"A2V3GBDTA9KEU0","cs_wg_rev_conf_v3_pilot1","3YT88D1N08Z5RHFE9QBI4U3EQONK3I","3","0","SEAGULL","8","DONKEY","13","1","6155",,,,,"1","2018-10-18 20:46:20","286066"
"A3NPYIGN1MP121","cs_wg_rev_conf_v3_pilot1","3H0W84IWBK3UOJ86OU1BOXTPC57ERW","77","0","CANCER","11","COWBOY","6","0","838",,,,,"0","2018-10-18 20:46:22","286067"
"A3DCGKISDE1HWO","cs_wg_rev_conf_v3_pilot1","3LEIZ60CDJ0MVE3GQ0F2IMUDUPAZ90","93","0","COWBOY","9","LIZARD","10","0","1619",,,,,"0","2018-10-18 20:46:23","286068"
"A3LA5P3N3KI8U7","cs_wg_rev_conf_v3_pilot1","3TVSS0C0E111LY7PDJ0CAI177U9TW4","12","0","BICYCLE","5","CANCER","15","1","1393",,,,,"0","2018-10-18 20:46:23","286069"
"A3NPYIGN1MP121","cs_wg_rev_conf_v3_pilot1","3H0W84IWBK3UOJ86OU1BOXTPC57ERW","78","0","POTATO","9","CHICKEN","13","1","1223",,,,,"0","2018-10-18 20:46:25","286070"
"A2IW9L0OVI3D0I","cs_wg_rev_conf_v3_pilot1","3E13VNJ1NNWIBJBBMJCN3L9400L1IX","102","0","PELICAN","9","SAUCE","8","0","4994",,,,,"0","2018-10-18 20:46:27","286071"
"A3DCGKISDE1HWO","cs_wg_rev_conf_v3_pilot1","3LEIZ60CDJ0MVE3GQ0F2IMUDUPAZ90","94","0","PELICAN","7","GRENADE","5","0","2785",,,,,"0","2018-10-18 20:46:27","286072"
"A3LA5P3N3KI8U7","cs_wg_rev_conf_v3_pilot1","3TVSS0C0E111LY7PDJ0CAI177U9TW4","13","0","PELICAN","9","CANCER","15","1","1362",,,,,"0","2018-10-18 20:46:27","286073"
"A12R8A3ORFKMBV","cs_wg_rev_conf_v3_pilot1","3OE22WJIGIPB1EQS1FRGNP5N27ZQUO","1","0","CRICKET","13","PELICAN","7","0","51585",,,,,"1","2018-10-18 20:46:27","286074"
"A3NPYIGN1MP121","cs_wg_rev_conf_v3_pilot1","3H0W84IWBK3UOJ86OU1BOXTPC57ERW","79","0","POTATO","9","TOMATO","5","0","1518",,,,,"0","2018-10-18 20:46:28","286075"
"A2V3GBDTA9KEU0","cs_wg_rev_conf_v3_pilot1","3YT88D1N08Z5RHFE9QBI4U3EQONK3I","4","0","BASKET","3","POTATO","7","1","6736",,,,,"1","2018-10-18 20:46:29","286076"
"A3LA5P3N3KI8U7","cs_wg_rev_conf_v3_pilot1","3TVSS0C0E111LY7PDJ0CAI177U9TW4","14","0","POTATO","1","CANCER","15","1","663",,,,,"0","2018-10-18 20:46:30","286077"
"A2IW9L0OVI3D0I","cs_wg_rev_conf_v3_pilot1","3E13VNJ1NNWIBJBBMJCN3L9400L1IX","103","0","BANANA","15","CHICKEN","3","0","973",,,,,"0","2018-10-18 20:46:30","286078"
"A3NPYIGN1MP121","cs_wg_rev_conf_v3_pilot1","3H0W84IWBK3UOJ86OU1BOXTPC57ERW","80","0","AVOCADO","10","CHICKEN","13","1","1295",,,,,"0","2018-10-18 20:46:31","286079"
"A3LA5P3N3KI8U7","cs_wg_rev_conf_v3_pilot1","3TVSS0C0E111LY7PDJ0CAI177U9TW4","15","0","BAKER","13","PELICAN","9","0","1568",,,,,"0","2018-10-18 20:46:34","286080"
"A3NPYIGN1MP121","cs_wg_rev_conf_v3_pilot1","3H0W84IWBK3UOJ86OU1BOXTPC57ERW","81","0","AIRBAG","7","CANCER","11","1","1174",,,,,"0","2018-10-18 20:46:34","286081"
"A3DCGKISDE1HWO","cs_wg_rev_conf_v3_pilot1","3LEIZ60CDJ0MVE3GQ0F2IMUDUPAZ90","95","0","PENGUIN","8","MONKEY","13","1","5319",,,,,"0","2018-10-18 20:46:34","286082"
"A2IW9L0OVI3D0I","cs_wg_rev_conf_v3_pilot1","3E13VNJ1NNWIBJBBMJCN3L9400L1IX","104","0","SAUCE","8","VOLCANO","5","0","4921",,,,,"0","2018-10-18 20:46:36","286083"
"A3NPYIGN1MP121","cs_wg_rev_conf_v3_pilot1","3H0W84IWBK3UOJ86OU1BOXTPC57ERW","82","0","CANCER","11","TOMATO","5","0","886",,,,,"0","2018-10-18 20:46:36","286084"
"A2V3GBDTA9KEU0","cs_wg_rev_conf_v3_pilot1","3YT88D1N08Z5RHFE9QBI4U3EQONK3I","5","0","SEAGULL","8","BASKET","3","0","3868",,,,,"1","2018-10-18 20:46:36","286085"
"A3LA5P3N3KI8U7","cs_wg_rev_conf_v3_pilot1","3TVSS0C0E111LY7PDJ0CAI177U9TW4","16","0","GRENADE","11","LIZARD","6","0","693",,,,,"0","2018-10-18 20:46:36","286086"
"A3DCGKISDE1HWO","cs_wg_rev_conf_v3_pilot1","3LEIZ60CDJ0MVE3GQ0F2IMUDUPAZ90","96","0","BANANA","6","TOMATO","11","1","1271",,,,,"0","2018-10-18 20:46:37","286087"
"A2IW9L0OVI3D0I","cs_wg_rev_conf_v3_pilot1","3E13VNJ1NNWIBJBBMJCN3L9400L1IX","105","0","CRICKET","13","CHICKEN","3","0","1312",,,,,"0","2018-10-18 20:46:39","286088"
"A3LA5P3N3KI8U7","cs_wg_rev_conf_v3_pilot1","3TVSS0C0E111LY7PDJ0CAI177U9TW4","17","0","PELICAN","9","LIQUID","8","0","1975",,,,,"0","2018-10-18 20:46:41","286089"
"A2IW9L0OVI3D0I","cs_wg_rev_conf_v3_pilot1","3E13VNJ1NNWIBJBBMJCN3L9400L1IX","106","0","SAUCE","8","GRENADE","1","0","1224",,,,,"0","2018-10-18 20:46:41","286090"
"A12R8A3ORFKMBV","cs_wg_rev_conf_v3_pilot1","3OE22WJIGIPB1EQS1FRGNP5N27ZQUO","2","0","DONKEY","3","CRICKET","13","1","7748",,,,,"1","2018-10-18 20:46:42","286091"
"A3DCGKISDE1HWO","cs_wg_rev_conf_v3_pilot1","3LEIZ60CDJ0MVE3GQ0F2IMUDUPAZ90","97","0","COWBOY","9","PENGUIN","8","0","2576",,,,,"0","2018-10-18 20:46:42","286092"
"A3NPYIGN1MP121","cs_wg_rev_conf_v3_pilot1","3H0W84IWBK3UOJ86OU1BOXTPC57ERW","83","0","AVOCADO","10","CANCER","11","1","4039",,,,,"0","2018-10-18 20:46:42","286093"
"A2V3GBDTA9KEU0","cs_wg_rev_conf_v3_pilot1","3YT88D1N08Z5RHFE9QBI4U3EQONK3I","6","0","DONKEY","13","POTATO","7","0","5761",,,,,"1","2018-10-18 20:46:44","286094"
"A3DCGKISDE1HWO","cs_wg_rev_conf_v3_pilot1","3LEIZ60CDJ0MVE3GQ0F2IMUDUPAZ90","98","0","BANANA","6","GRENADE","5","0","999",,,,,"0","2018-10-18 20:46:44","286095"
"A3NPYIGN1MP121","cs_wg_rev_conf_v3_pilot1","3H0W84IWBK3UOJ86OU1BOXTPC57ERW","84","0","POTATO","9","VOLCANO","15","1","1078",,,,,"0","2018-10-18 20:46:45","286096"
"A2IW9L0OVI3D0I","cs_wg_rev_conf_v3_pilot1","3E13VNJ1NNWIBJBBMJCN3L9400L1IX","107","0","GRENADE","1","PELICAN","9","1","1725",,,,,"0","2018-10-18 20:46:45","286097"
"A3LA5P3N3KI8U7","cs_wg_rev_conf_v3_pilot1","3TVSS0C0E111LY7PDJ0CAI177U9TW4","18","0","POTATO","1","BUCKET","3","1","1647",,,,,"0","2018-10-18 20:46:45","286098"
"A3DCGKISDE1HWO","cs_wg_rev_conf_v3_pilot1","3LEIZ60CDJ0MVE3GQ0F2IMUDUPAZ90","99","0","COWBOY","9","CANCER","1","0","1242",,,,,"0","2018-10-18 20:46:47","286099"
"A3LA5P3N3KI8U7","cs_wg_rev_conf_v3_pilot1","3TVSS0C0E111LY7PDJ0CAI177U9TW4","19","0","LIQUID","8","PELICAN","9","1","929",,,,,"0","2018-10-18 20:46:48","286100"
"A2V3GBDTA9KEU0","cs_wg_rev_conf_v3_pilot1","3YT88D1N08Z5RHFE9QBI4U3EQONK3I","7","0","DONKEY","13","BASKET","3","0","2189",,,,,"1","2018-10-18 20:46:48","286101"
"A3NPYIGN1MP121","cs_wg_rev_conf_v3_pilot1","3H0W84IWBK3UOJ86OU1BOXTPC57ERW","85","0","AVOCADO","10","COWBOY","6","0","2391",,,,,"0","2018-10-18 20:46:49","286102"
"A3DCGKISDE1HWO","cs_wg_rev_conf_v3_pilot1","3LEIZ60CDJ0MVE3GQ0F2IMUDUPAZ90","100","0","COOKIE","3","LIZARD","10","1","2075",,,,,"0","2018-10-18 20:46:50","286103"
"A2IW9L0OVI3D0I","cs_wg_rev_conf_v3_pilot1","3E13VNJ1NNWIBJBBMJCN3L9400L1IX","108","0","SAUCE","8","AVOCADO","7","0","4533",,,,,"0","2018-10-18 20:46:51","286104"
"A3LA5P3N3KI8U7","cs_wg_rev_conf_v3_pilot1","3TVSS0C0E111LY7PDJ0CAI177U9TW4","20","0","LIQUID","8","TOMATO","10","1","1237",,,,,"0","2018-10-18 20:46:52","286105"
"A3DCGKISDE1HWO","cs_wg_rev_conf_v3_pilot1","3LEIZ60CDJ0MVE3GQ0F2IMUDUPAZ90","101","0","TOMATO","11","CANCER","1","0","1280",,,,,"0","2018-10-18 20:46:53","286106"
"A2V3GBDTA9KEU0","cs_wg_rev_conf_v3_pilot1","3YT88D1N08Z5RHFE9QBI4U3EQONK3I","8","0","POTATO","7","DONKEY","13","1","2628",,,,,"0","2018-10-18 20:46:54","286107"
"A3NPYIGN1MP121","cs_wg_rev_conf_v3_pilot1","3H0W84IWBK3UOJ86OU1BOXTPC57ERW","86","0","COWBOY","6","CANCER","11","1","5031",,,,,"0","2018-10-18 20:46:55","286108"
"A3LA5P3N3KI8U7","cs_wg_rev_conf_v3_pilot1","3TVSS0C0E111LY7PDJ0CAI177U9TW4","21","0","CANCER","15","LIQUID","8","1","774",,,,,"0","2018-10-18 20:46:55","286109"
"A3DCGKISDE1HWO","cs_wg_rev_conf_v3_pilot1","3LEIZ60CDJ0MVE3GQ0F2IMUDUPAZ90","102","0","MONKEY","13","GRENADE","5","0","1367",,,,,"0","2018-10-18 20:46:56","286110"
"A2IW9L0OVI3D0I","cs_wg_rev_conf_v3_pilot1","3E13VNJ1NNWIBJBBMJCN3L9400L1IX","109","0","AIRBAG","11","PALACE","10","0","4092",,,,,"0","2018-10-18 20:46:57","286111"
"A3LA5P3N3KI8U7","cs_wg_rev_conf_v3_pilot1","3TVSS0C0E111LY7PDJ0CAI177U9TW4","22","0","BICYCLE","5","LIZARD","6","0","1243",,,,,"0","2018-10-18 20:47:00","286112"
"A2V3GBDTA9KEU0","cs_wg_rev_conf_v3_pilot1","3YT88D1N08Z5RHFE9QBI4U3EQONK3I","9","0","BASKET","3","POTATO","7","1","4175",,,,,"0","2018-10-18 20:47:00","286113"
"A3DCGKISDE1HWO","cs_wg_rev_conf_v3_pilot1","3LEIZ60CDJ0MVE3GQ0F2IMUDUPAZ90","103","0","TOMATO","11","COOKIE","3","0","1596",,,,,"0","2018-10-18 20:47:00","286114"
"A3LA5P3N3KI8U7","cs_wg_rev_conf_v3_pilot1","3TVSS0C0E111LY7PDJ0CAI177U9TW4","23","0","CANCER","15","GRENADE","11","0","590",,,,,"0","2018-10-18 20:47:03","286115"
"A3DCGKISDE1HWO","cs_wg_rev_conf_v3_pilot1","3LEIZ60CDJ0MVE3GQ0F2IMUDUPAZ90","104","0","GRENADE","5","COWBOY","9","1","2436",,,,,"0","2018-10-18 20:47:04","286116"
"A3NPYIGN1MP121","cs_wg_rev_conf_v3_pilot1","3H0W84IWBK3UOJ86OU1BOXTPC57ERW","87","0","AVOCADO","10","TOMATO","5","0","7831",,,,,"0","2018-10-18 20:47:06","286117"
"A12R8A3ORFKMBV","cs_wg_rev_conf_v3_pilot1","3OE22WJIGIPB1EQS1FRGNP5N27ZQUO","3","0","CRICKET","13","LIZARD","10","0","4637",,,,,"0","2018-10-18 20:47:06","286118"
"A3LA5P3N3KI8U7","cs_wg_rev_conf_v3_pilot1","3TVSS0C0E111LY7PDJ0CAI177U9TW4","24","0","LIQUID","8","POTATO","1","1","1374",,,,,"0","2018-10-18 20:47:06","286119"
"A2V3GBDTA9KEU0","cs_wg_rev_conf_v3_pilot1","3YT88D1N08Z5RHFE9QBI4U3EQONK3I","10","0","DONKEY","13","BASKET","3","0","3768",,,,,"0","2018-10-18 20:47:07","286120"
"A3DCGKISDE1HWO","cs_wg_rev_conf_v3_pilot1","3LEIZ60CDJ0MVE3GQ0F2IMUDUPAZ90","105","0","CANCER","1","BANANA","6","1","1390",,,,,"0","2018-10-18 20:47:08","286121"
"A3LA5P3N3KI8U7","cs_wg_rev_conf_v3_pilot1","3TVSS0C0E111LY7PDJ0CAI177U9TW4","25","0","LIQUID","8","VOLCANO","7","1","838",,,,,"0","2018-10-18 20:47:09","286122"
"A3DCGKISDE1HWO","cs_wg_rev_conf_v3_pilot1","3LEIZ60CDJ0MVE3GQ0F2IMUDUPAZ90","106","0","BICYCLE","15","LIZARD","10","0","747",,,,,"0","2018-10-18 20:47:10","286123"
"A2V3GBDTA9KEU0","cs_wg_rev_conf_v3_pilot1","3YT88D1N08Z5RHFE9QBI4U3EQONK3I","11","0","SEAGULL","8","BASKET","3","0","2018",,,,,"0","2018-10-18 20:47:12","286124"
"A3LA5P3N3KI8U7","cs_wg_rev_conf_v3_pilot1","3TVSS0C0E111LY7PDJ0CAI177U9TW4","26","0","BAKER","13","VOLCANO","7","0","941",,,,,"0","2018-10-18 20:47:13","286125"
"A3DCGKISDE1HWO","cs_wg_rev_conf_v3_pilot1","3LEIZ60CDJ0MVE3GQ0F2IMUDUPAZ90","107","0","GRENADE","5","LIZARD","10","1","1740",,,,,"0","2018-10-18 20:47:13","286126"
"A3LA5P3N3KI8U7","cs_wg_rev_conf_v3_pilot1","3TVSS0C0E111LY7PDJ0CAI177U9TW4","27","0","CANCER","15","BAKER","13","0","450",,,,,"0","2018-10-18 20:47:15","286127"
"A3NPYIGN1MP121","cs_wg_rev_conf_v3_pilot1","3H0W84IWBK3UOJ86OU1BOXTPC57ERW","88","0","MOUSE","8","COWBOY","6","0","8069",,,,,"0","2018-10-18 20:47:16","286128"
"A3DCGKISDE1HWO","cs_wg_rev_conf_v3_pilot1","3LEIZ60CDJ0MVE3GQ0F2IMUDUPAZ90","108","0","COOKIE","3","MONKEY","13","1","1218",,,,,"0","2018-10-18 20:47:16","286129"
"A2V3GBDTA9KEU0","cs_wg_rev_conf_v3_pilot1","3YT88D1N08Z5RHFE9QBI4U3EQONK3I","12","0","SEAGULL","8","DONKEY","13","1","2164",,,,,"0","2018-10-18 20:47:16","286130"
"A3LA5P3N3KI8U7","cs_wg_rev_conf_v3_pilot1","3TVSS0C0E111LY7PDJ0CAI177U9TW4","28","0","BICYCLE","5","GRENADE","11","1","851",,,,,"0","2018-10-18 20:47:18","286131"
"A3DCGKISDE1HWO","cs_wg_rev_conf_v3_pilot1","3LEIZ60CDJ0MVE3GQ0F2IMUDUPAZ90","109","0","PELICAN","7","BICYCLE","15","1","783",,,,,"0","2018-10-18 20:47:18","286132"
"A3NPYIGN1MP121","cs_wg_rev_conf_v3_pilot1","3H0W84IWBK3UOJ86OU1BOXTPC57ERW","89","0","MOUSE","8","AIRBAG","7","0","1335",,,,,"0","2018-10-18 20:47:19","286133"
"A3NPYIGN1MP121","cs_wg_rev_conf_v3_pilot1","3H0W84IWBK3UOJ86OU1BOXTPC57ERW","90","0","POTATO","9","AVOCADO","10","1","1151",,,,,"0","2018-10-18 20:47:21","286134"
"A2V3GBDTA9KEU0","cs_wg_rev_conf_v3_pilot1","3YT88D1N08Z5RHFE9QBI4U3EQONK3I","13","0","POTATO","7","DONKEY","13","1","3740",,,,,"0","2018-10-18 20:47:22","286135"
"A3LA5P3N3KI8U7","cs_wg_rev_conf_v3_pilot1","3TVSS0C0E111LY7PDJ0CAI177U9TW4","29","0","LIQUID","8","LIZARD","6","0","2375",,,,,"0","2018-10-18 20:47:23","286136"
"A3NPYIGN1MP121","cs_wg_rev_conf_v3_pilot1","3H0W84IWBK3UOJ86OU1BOXTPC57ERW","91","0","AVOCADO","10","VOLCANO","15","1","967",,,,,"0","2018-10-18 20:47:24","286137"
"A3NPYIGN1MP121","cs_wg_rev_conf_v3_pilot1","3H0W84IWBK3UOJ86OU1BOXTPC57ERW","92","0","CANCER","11","MOUSE","8","0","936",,,,,"0","2018-10-18 20:47:26","286138"
"A3LA5P3N3KI8U7","cs_wg_rev_conf_v3_pilot1","3TVSS0C0E111LY7PDJ0CAI177U9TW4","30","0","LIZARD","6","LIQUID","8","1","1858",,,,,"0","2018-10-18 20:47:27","286139"
"A2V3GBDTA9KEU0","cs_wg_rev_conf_v3_pilot1","3YT88D1N08Z5RHFE9QBI4U3EQONK3I","14","0","SEAGULL","8","POTATO","7","0","3268",,,,,"0","2018-10-18 20:47:27","286140"
"A3NPYIGN1MP121","cs_wg_rev_conf_v3_pilot1","3H0W84IWBK3UOJ86OU1BOXTPC57ERW","93","0","PELICAN","1","AIRBAG","7","1","815",,,,,"0","2018-10-18 20:47:29","286141"
"A3LA5P3N3KI8U7","cs_wg_rev_conf_v3_pilot1","3TVSS0C0E111LY7PDJ0CAI177U9TW4","31","0","BUCKET","3","CANCER","15","1","706",,,,,"0","2018-10-18 20:47:30","286142"
"A3NPYIGN1MP121","cs_wg_rev_conf_v3_pilot1","3H0W84IWBK3UOJ86OU1BOXTPC57ERW","94","0","ROCKET","3","COWBOY","6","1","1206",,,,,"0","2018-10-18 20:47:31","286143"
"A2V3GBDTA9KEU0","cs_wg_rev_conf_v3_pilot1","3YT88D1N08Z5RHFE9QBI4U3EQONK3I","15","0","POTATO","7","BASKET","3","0","2537",,,,,"0","2018-10-18 20:47:32","286144"
"A3LA5P3N3KI8U7","cs_wg_rev_conf_v3_pilot1","3TVSS0C0E111LY7PDJ0CAI177U9TW4","32","0","POTATO","1","TOMATO","10","0","1266",,,,,"0","2018-10-18 20:47:33","286145"
"A3NPYIGN1MP121","cs_wg_rev_conf_v3_pilot1","3H0W84IWBK3UOJ86OU1BOXTPC57ERW","95","0","VOLCANO","15","COWBOY","6","0","774",,,,,"0","2018-10-18 20:47:34","286146"
"A3LA5P3N3KI8U7","cs_wg_rev_conf_v3_pilot1","3TVSS0C0E111LY7PDJ0CAI177U9TW4","33","0","BAKER","13","POTATO","1","0","1045",,,,,"0","2018-10-18 20:47:37","286147"
"A2V3GBDTA9KEU0","cs_wg_rev_conf_v3_pilot1","3YT88D1N08Z5RHFE9QBI4U3EQONK3I","16","0","BASKET","3","POTATO","7","1","3897",,,,,"0","2018-10-18 20:47:37","286148"
"A3NPYIGN1MP121","cs_wg_rev_conf_v3_pilot1","3H0W84IWBK3UOJ86OU1BOXTPC57ERW","96","0","AIRBAG","7","PELICAN","1","0","3606",,,,,"0","2018-10-18 20:47:39","286149"
"A3LA5P3N3KI8U7","cs_wg_rev_conf_v3_pilot1","3TVSS0C0E111LY7PDJ0CAI177U9TW4","34","0","GRENADE","11","CANCER","15","0","752",,,,,"0","2018-10-18 20:47:40","286150"
"A2V3GBDTA9KEU0","cs_wg_rev_conf_v3_pilot1","3YT88D1N08Z5RHFE9QBI4U3EQONK3I","17","0","SEAGULL","8","POTATO","7","0","1959",,,,,"0","2018-10-18 20:47:42","286151"
"A3LA5P3N3KI8U7","cs_wg_rev_conf_v3_pilot1","3TVSS0C0E111LY7PDJ0CAI177U9TW4","35","0","VOLCANO","7","PELICAN","9","0","1399",,,,,"0","2018-10-18 20:47:44","286152"
"A3NPYIGN1MP121","cs_wg_rev_conf_v3_pilot1","3H0W84IWBK3UOJ86OU1BOXTPC57ERW","97","0","TOMATO","5","MOUSE","8","1","4312",,,,,"0","2018-10-18 20:47:45","286153"
"A3NPYIGN1MP121","cs_wg_rev_conf_v3_pilot1","3H0W84IWBK3UOJ86OU1BOXTPC57ERW","98","0","POTATO","9","CANCER","11","1","869",,,,,"0","2018-10-18 20:47:47","286154"
"A2V3GBDTA9KEU0","cs_wg_rev_conf_v3_pilot1","3YT88D1N08Z5RHFE9QBI4U3EQONK3I","18","0","SEAGULL","8","DONKEY","13","1","3518",,,,,"0","2018-10-18 20:47:47","286155"
"A3LA5P3N3KI8U7","cs_wg_rev_conf_v3_pilot1","3TVSS0C0E111LY7PDJ0CAI177U9TW4","36","0","PELICAN","9","POTATO","1","0","1019",,,,,"0","2018-10-18 20:47:47","286156"
"A3NPYIGN1MP121","cs_wg_rev_conf_v3_pilot1","3H0W84IWBK3UOJ86OU1BOXTPC57ERW","99","0","CANCER","11","POTATO","9","0","887",,,,,"0","2018-10-18 20:47:49","286157"
"A2V3GBDTA9KEU0","cs_wg_rev_conf_v3_pilot1","3YT88D1N08Z5RHFE9QBI4U3EQONK3I","19","0","DONKEY","13","SEAGULL","8","0","2212",,,,,"0","2018-10-18 20:47:51","286158"
"A3NPYIGN1MP121","cs_wg_rev_conf_v3_pilot1","3H0W84IWBK3UOJ86OU1BOXTPC57ERW","100","0","PELICAN","1","CANCER","11","1","879",,,,,"0","2018-10-18 20:47:52","286159"
"A3LA5P3N3KI8U7","cs_wg_rev_conf_v3_pilot1","3TVSS0C0E111LY7PDJ0CAI177U9TW4","37","0","GRENADE","11","BICYCLE","5","0","1168",,,,,"0","2018-10-18 20:47:52","286160"
"A3NPYIGN1MP121","cs_wg_rev_conf_v3_pilot1","3H0W84IWBK3UOJ86OU1BOXTPC57ERW","101","0","CHICKEN","13","MOUSE","8","0","799",,,,,"0","2018-10-18 20:47:54","286161"
"A2V3GBDTA9KEU0","cs_wg_rev_conf_v3_pilot1","3YT88D1N08Z5RHFE9QBI4U3EQONK3I","20","0","POTATO","7","BASKET","3","0","2535",,,,,"0","2018-10-18 20:47:56","286162"
"A12R8A3ORFKMBV","cs_wg_rev_conf_v3_pilot1","3OE22WJIGIPB1EQS1FRGNP5N27ZQUO","4","0","JAGUAR","8","GRENADE","9","1","46928",,,,,"1","2018-10-18 20:47:56","286163"
"A3LA5P3N3KI8U7","cs_wg_rev_conf_v3_pilot1","3TVSS0C0E111LY7PDJ0CAI177U9TW4","38","0","BUCKET","3","POTATO","1","0","3135",,,,,"0","2018-10-18 20:47:57","286164"
"A3NPYIGN1MP121","cs_wg_rev_conf_v3_pilot1","3H0W84IWBK3UOJ86OU1BOXTPC57ERW","102","0","ROCKET","3","POTATO","9","1","1983",,,,,"0","2018-10-18 20:47:57","286165"
"A2V3GBDTA9KEU0","cs_wg_rev_conf_v3_pilot1","3YT88D1N08Z5RHFE9QBI4U3EQONK3I","21","0","BASKET","3","DONKEY","13","1","2021",,,,,"0","2018-10-18 20:47:59","286166"
"A3LA5P3N3KI8U7","cs_wg_rev_conf_v3_pilot1","3TVSS0C0E111LY7PDJ0CAI177U9TW4","39","0","BAKER","13","TOMATO","10","0","763",,,,,"0","2018-10-18 20:48:00","286167"
"A3NPYIGN1MP121","cs_wg_rev_conf_v3_pilot1","3H0W84IWBK3UOJ86OU1BOXTPC57ERW","103","0","COWBOY","6","ROCKET","3","0","1847",,,,,"0","2018-10-18 20:48:01","286168"
"A2V3GBDTA9KEU0","cs_wg_rev_conf_v3_pilot1","3YT88D1N08Z5RHFE9QBI4U3EQONK3I","22","0","DONKEY","13","SEAGULL","8","0","1315",,,,,"0","2018-10-18 20:48:02","286169"
"A3NPYIGN1MP121","cs_wg_rev_conf_v3_pilot1","3H0W84IWBK3UOJ86OU1BOXTPC57ERW","104","0","ROCKET","3","VOLCANO","15","1","661",,,,,"0","2018-10-18 20:48:03","286170"
"A3LA5P3N3KI8U7","cs_wg_rev_conf_v3_pilot1","3TVSS0C0E111LY7PDJ0CAI177U9TW4","40","0","BUCKET","3","PELICAN","9","1","1042",,,,,"0","2018-10-18 20:48:03","286171"
"A3NPYIGN1MP121","cs_wg_rev_conf_v3_pilot1","3H0W84IWBK3UOJ86OU1BOXTPC57ERW","105","0","PELICAN","1","ROCKET","3","1","1159",,,,,"0","2018-10-18 20:48:05","286172"
"A3LA5P3N3KI8U7","cs_wg_rev_conf_v3_pilot1","3TVSS0C0E111LY7PDJ0CAI177U9TW4","41","0","LIZARD","6","TOMATO","10","1","914",,,,,"0","2018-10-18 20:48:06","286173"
"A2V3GBDTA9KEU0","cs_wg_rev_conf_v3_pilot1","3YT88D1N08Z5RHFE9QBI4U3EQONK3I","23","0","DONKEY","13","POTATO","7","0","1301",,,,,"0","2018-10-18 20:48:06","286174"
"A3NPYIGN1MP121","cs_wg_rev_conf_v3_pilot1","3H0W84IWBK3UOJ86OU1BOXTPC57ERW","106","0","AIRBAG","7","VOLCANO","15","1","854",,,,,"0","2018-10-18 20:48:08","286175"
"A3LA5P3N3KI8U7","cs_wg_rev_conf_v3_pilot1","3TVSS0C0E111LY7PDJ0CAI177U9TW4","42","0","BUCKET","3","BAKER","13","1","1042",,,,,"0","2018-10-18 20:48:09","286176"
"A2V3GBDTA9KEU0","cs_wg_rev_conf_v3_pilot1","3YT88D1N08Z5RHFE9QBI4U3EQONK3I","24","0","SEAGULL","8","POTATO","7","0","1373",,,,,"0","2018-10-18 20:48:09","286177"
"A3NPYIGN1MP121","cs_wg_rev_conf_v3_pilot1","3H0W84IWBK3UOJ86OU1BOXTPC57ERW","107","0","AVOCADO","10","POTATO","9","0","1095",,,,,"0","2018-10-18 20:48:10","286178"
"A3LA5P3N3KI8U7","cs_wg_rev_conf_v3_pilot1","3TVSS0C0E111LY7PDJ0CAI177U9TW4","43","0","BUCKET","3","BICYCLE","5","0","1192",,,,,"0","2018-10-18 20:48:12","286179"
"A2V3GBDTA9KEU0","cs_wg_rev_conf_v3_pilot1","3YT88D1N08Z5RHFE9QBI4U3EQONK3I","25","0","BASKET","3","SEAGULL","8","1","1749",,,,,"0","2018-10-18 20:48:12","286180"
"A3NPYIGN1MP121","cs_wg_rev_conf_v3_pilot1","3H0W84IWBK3UOJ86OU1BOXTPC57ERW","108","0","CHICKEN","13","TOMATO","5","0","887",,,,,"0","2018-10-18 20:48:13","286181"
"A3LA5P3N3KI8U7","cs_wg_rev_conf_v3_pilot1","3TVSS0C0E111LY7PDJ0CAI177U9TW4","44","0","BUCKET","3","LIQUID","8","0","818",,,,,"0","2018-10-18 20:48:15","286182"
"A2V3GBDTA9KEU0","cs_wg_rev_conf_v3_pilot1","3YT88D1N08Z5RHFE9QBI4U3EQONK3I","26","0","DONKEY","13","SEAGULL","8","0","1434",,,,,"0","2018-10-18 20:48:15","286183"
"A3NPYIGN1MP121","cs_wg_rev_conf_v3_pilot1","3H0W84IWBK3UOJ86OU1BOXTPC57ERW","109","0","CHICKEN","13","CANCER","11","0","1806",,,,,"0","2018-10-18 20:48:17","286184"
"A3LA5P3N3KI8U7","cs_wg_rev_conf_v3_pilot1","3TVSS0C0E111LY7PDJ0CAI177U9TW4","45","0","BUCKET","3","TOMATO","10","1","724",,,,,"0","2018-10-18 20:48:18","286185"
"A2V3GBDTA9KEU0","cs_wg_rev_conf_v3_pilot1","3YT88D1N08Z5RHFE9QBI4U3EQONK3I","27","0","POTATO","7","SEAGULL","8","1","1026",,,,,"0","2018-10-18 20:48:18","286186"
"A3LA5P3N3KI8U7","cs_wg_rev_conf_v3_pilot1","3TVSS0C0E111LY7PDJ0CAI177U9TW4","46","0","VOLCANO","7","POTATO","1","0","750",,,,,"0","2018-10-18 20:48:21","286187"
"A2V3GBDTA9KEU0","cs_wg_rev_conf_v3_pilot1","3YT88D1N08Z5RHFE9QBI4U3EQONK3I","28","0","POTATO","7","SEAGULL","8","1","1131",,,,,"0","2018-10-18 20:48:21","286188"
"A3LA5P3N3KI8U7","cs_wg_rev_conf_v3_pilot1","3TVSS0C0E111LY7PDJ0CAI177U9TW4","47","0","CANCER","15","LIZARD","6","0","536",,,,,"0","2018-10-18 20:48:24","286189"
"A2V3GBDTA9KEU0","cs_wg_rev_conf_v3_pilot1","3YT88D1N08Z5RHFE9QBI4U3EQONK3I","29","0","POTATO","7","DONKEY","13","1","2133",,,,,"0","2018-10-18 20:48:25","286190"
"A12R8A3ORFKMBV","cs_wg_rev_conf_v3_pilot1","3OE22WJIGIPB1EQS1FRGNP5N27ZQUO","5","0","JAGUAR","8","PALACE","5","0","29298",,,,,"1","2018-10-18 20:48:28","286191"
"A3LA5P3N3KI8U7","cs_wg_rev_conf_v3_pilot1","3TVSS0C0E111LY7PDJ0CAI177U9TW4","48","0","BICYCLE","5","PELICAN","9","1","1482",,,,,"0","2018-10-18 20:48:28","286192"
"A2V3GBDTA9KEU0","cs_wg_rev_conf_v3_pilot1","3YT88D1N08Z5RHFE9QBI4U3EQONK3I","30","0","BASKET","3","DONKEY","13","1","3306",,,,,"0","2018-10-18 20:48:30","286193"
"A2V3GBDTA9KEU0","cs_wg_rev_conf_v3_pilot1","3YT88D1N08Z5RHFE9QBI4U3EQONK3I","31","0","BASKET","3","SEAGULL","8","1","1399",,,,,"0","2018-10-18 20:48:33","286194"
"A2V3GBDTA9KEU0","cs_wg_rev_conf_v3_pilot1","3YT88D1N08Z5RHFE9QBI4U3EQONK3I","32","0","BASKET","3","DONKEY","13","1","1963",,,,,"0","2018-10-18 20:48:37","286195"
"A2V3GBDTA9KEU0","cs_wg_rev_conf_v3_pilot1","3YT88D1N08Z5RHFE9QBI4U3EQONK3I","33","0","POTATO","7","BASKET","3","0","3621",,,,,"0","2018-10-18 20:48:42","286196"
"A12R8A3ORFKMBV","cs_wg_rev_conf_v3_pilot1","3OE22WJIGIPB1EQS1FRGNP5N27ZQUO","6","0","GRENADE","9","JAGUAR","8","0","11384",,,,,"0","2018-10-18 20:48:43","286197"
"A2V3GBDTA9KEU0","cs_wg_rev_conf_v3_pilot1","3YT88D1N08Z5RHFE9QBI4U3EQONK3I","34","0","DONKEY","13","BASKET","3","0","1181",,,,,"0","2018-10-18 20:48:45","286198"
"A2V3GBDTA9KEU0","cs_wg_rev_conf_v3_pilot1","3YT88D1N08Z5RHFE9QBI4U3EQONK3I","35","0","DONKEY","13","POTATO","7","0","916",,,,,"0","2018-10-18 20:48:48","286199"
"A3LA5P3N3KI8U7","cs_wg_rev_conf_v3_pilot1","3TVSS0C0E111LY7PDJ0CAI177U9TW4","49","0","LIQUID","8","BICYCLE","5","0","23239",,,,,"0","2018-10-18 20:48:55","286200"
"A3LA5P3N3KI8U7","cs_wg_rev_conf_v3_pilot1","3TVSS0C0E111LY7PDJ0CAI177U9TW4","50","0","VOLCANO","7","BAKER","13","1","2614",,,,,"0","2018-10-18 20:49:01","286201"
"A3LA5P3N3KI8U7","cs_wg_rev_conf_v3_pilot1","3TVSS0C0E111LY7PDJ0CAI177U9TW4","51","0","LIQUID","8","BUCKET","3","0","1035",,,,,"0","2018-10-18 20:49:04","286202"
"A3LA5P3N3KI8U7","cs_wg_rev_conf_v3_pilot1","3TVSS0C0E111LY7PDJ0CAI177U9TW4","52","0","LIZARD","6","VOLCANO","7","1","564",,,,,"0","2018-10-18 20:49:06","286203"
"A3LA5P3N3KI8U7","cs_wg_rev_conf_v3_pilot1","3TVSS0C0E111LY7PDJ0CAI177U9TW4","53","0","PELICAN","9","BICYCLE","5","0","893",,,,,"0","2018-10-18 20:49:09","286204"
"A3LA5P3N3KI8U7","cs_wg_rev_conf_v3_pilot1","3TVSS0C0E111LY7PDJ0CAI177U9TW4","54","0","PELICAN","9","LIZARD","6","0","749",,,,,"0","2018-10-18 20:49:12","286205"
"A3LA5P3N3KI8U7","cs_wg_rev_conf_v3_pilot1","3TVSS0C0E111LY7PDJ0CAI177U9TW4","55","0","CANCER","15","TOMATO","10","1","537",,,,,"0","2018-10-18 20:49:16","286206"
"A3LA5P3N3KI8U7","cs_wg_rev_conf_v3_pilot1","3TVSS0C0E111LY7PDJ0CAI177U9TW4","56","0","BICYCLE","5","VOLCANO","7","1","1629",,,,,"0","2018-10-18 20:49:19","286207"
"A3LA5P3N3KI8U7","cs_wg_rev_conf_v3_pilot1","3TVSS0C0E111LY7PDJ0CAI177U9TW4","57","0","LIZARD","6","GRENADE","11","1","567",,,,,"0","2018-10-18 20:49:22","286208"
"A3LA5P3N3KI8U7","cs_wg_rev_conf_v3_pilot1","3TVSS0C0E111LY7PDJ0CAI177U9TW4","58","0","POTATO","1","LIQUID","8","1","867",,,,,"0","2018-10-18 20:49:25","286209"
"A3LA5P3N3KI8U7","cs_wg_rev_conf_v3_pilot1","3TVSS0C0E111LY7PDJ0CAI177U9TW4","59","0","BAKER","13","GRENADE","11","1","612",,,,,"0","2018-10-18 20:49:28","286210"
"A12R8A3ORFKMBV","cs_wg_rev_conf_v3_pilot1","3OE22WJIGIPB1EQS1FRGNP5N27ZQUO","7","0","DONKEY","3","VOLCANO","15","0","39418",,,,,"1","2018-10-18 20:49:29","286211"
"A3LA5P3N3KI8U7","cs_wg_rev_conf_v3_pilot1","3TVSS0C0E111LY7PDJ0CAI177U9TW4","60","0","BICYCLE","5","TOMATO","10","1","907",,,,,"0","2018-10-18 20:49:31","286212"
"A3LA5P3N3KI8U7","cs_wg_rev_conf_v3_pilot1","3TVSS0C0E111LY7PDJ0CAI177U9TW4","61","0","LIZARD","6","POTATO","1","1","468",,,,,"0","2018-10-18 20:49:33","286213"
"A3LA5P3N3KI8U7","cs_wg_rev_conf_v3_pilot1","3TVSS0C0E111LY7PDJ0CAI177U9TW4","62","0","BICYCLE","5","BAKER","13","1","1586",,,,,"0","2018-10-18 20:49:37","286214"
"A3LA5P3N3KI8U7","cs_wg_rev_conf_v3_pilot1","3TVSS0C0E111LY7PDJ0CAI177U9TW4","63","0","CANCER","15","BICYCLE","5","0","643",,,,,"0","2018-10-18 20:49:40","286215"
"A12R8A3ORFKMBV","cs_wg_rev_conf_v3_pilot1","3OE22WJIGIPB1EQS1FRGNP5N27ZQUO","8","0","CRICKET","13","JAGUAR","8","0","9955",,,,,"0","2018-10-18 20:49:41","286216"
"A3LA5P3N3KI8U7","cs_wg_rev_conf_v3_pilot1","3TVSS0C0E111LY7PDJ0CAI177U9TW4","64","0","TOMATO","10","PELICAN","9","0","938",,,,,"0","2018-10-18 20:49:43","286217"
"A3LA5P3N3KI8U7","cs_wg_rev_conf_v3_pilot1","3TVSS0C0E111LY7PDJ0CAI177U9TW4","65","0","CANCER","15","VOLCANO","7","0","576",,,,,"0","2018-10-18 20:49:45","286218"
"A3LA5P3N3KI8U7","cs_wg_rev_conf_v3_pilot1","3TVSS0C0E111LY7PDJ0CAI177U9TW4","66","0","BAKER","13","LIZARD","6","0","679",,,,,"0","2018-10-18 20:49:48","286219"
"A3LA5P3N3KI8U7","cs_wg_rev_conf_v3_pilot1","3TVSS0C0E111LY7PDJ0CAI177U9TW4","67","0","CANCER","15","POTATO","1","0","573",,,,,"0","2018-10-18 20:49:52","286220"
"A12R8A3ORFKMBV","cs_wg_rev_conf_v3_pilot1","3OE22WJIGIPB1EQS1FRGNP5N27ZQUO","9","0","LIZARD","10","GRENADE","9","0","11272",,,,,"0","2018-10-18 20:49:55","286221"
"A3LA5P3N3KI8U7","cs_wg_rev_conf_v3_pilot1","3TVSS0C0E111LY7PDJ0CAI177U9TW4","68","0","POTATO","1","LIZARD","6","1","2355",,,,,"0","2018-10-18 20:49:56","286222"
"A3LA5P3N3KI8U7","cs_wg_rev_conf_v3_pilot1","3TVSS0C0E111LY7PDJ0CAI177U9TW4","69","0","VOLCANO","7","CANCER","15","1","830",,,,,"0","2018-10-18 20:49:59","286223"
"A3LA5P3N3KI8U7","cs_wg_rev_conf_v3_pilot1","3TVSS0C0E111LY7PDJ0CAI177U9TW4","70","0","PELICAN","9","TOMATO","10","1","1017",,,,,"0","2018-10-18 20:50:03","286224"
"A3LA5P3N3KI8U7","cs_wg_rev_conf_v3_pilot1","3TVSS0C0E111LY7PDJ0CAI177U9TW4","71","0","GRENADE","11","POTATO","1","0","598",,,,,"0","2018-10-18 20:50:06","286225"
"A3LA5P3N3KI8U7","cs_wg_rev_conf_v3_pilot1","3TVSS0C0E111LY7PDJ0CAI177U9TW4","72","0","VOLCANO","7","BUCKET","3","0","551",,,,,"0","2018-10-18 20:50:09","286226"
"A3LA5P3N3KI8U7","cs_wg_rev_conf_v3_pilot1","3TVSS0C0E111LY7PDJ0CAI177U9TW4","73","0","BUCKET","3","GRENADE","11","1","714",,,,,"0","2018-10-18 20:50:11","286227"
"A3LA5P3N3KI8U7","cs_wg_rev_conf_v3_pilot1","3TVSS0C0E111LY7PDJ0CAI177U9TW4","74","0","GRENADE","11","TOMATO","10","0","526",,,,,"0","2018-10-18 20:50:14","286228"
"A3LA5P3N3KI8U7","cs_wg_rev_conf_v3_pilot1","3TVSS0C0E111LY7PDJ0CAI177U9TW4","75","0","TOMATO","10","POTATO","1","0","790",,,,,"0","2018-10-18 20:50:17","286229"
"A12R8A3ORFKMBV","cs_wg_rev_conf_v3_pilot1","3OE22WJIGIPB1EQS1FRGNP5N27ZQUO","10","0","COWBOY","6","LIZARD","10","1","20887",,,,,"1","2018-10-18 20:50:18","286230"
"A3LA5P3N3KI8U7","cs_wg_rev_conf_v3_pilot1","3TVSS0C0E111LY7PDJ0CAI177U9TW4","76","0","BICYCLE","5","LIQUID","8","1","1127",,,,,"0","2018-10-18 20:50:20","286231"
"A3LA5P3N3KI8U7","cs_wg_rev_conf_v3_pilot1","3TVSS0C0E111LY7PDJ0CAI177U9TW4","77","0","LIZARD","6","BUCKET","3","0","1188",,,,,"0","2018-10-18 20:50:24","286232"
"A3LA5P3N3KI8U7","cs_wg_rev_conf_v3_pilot1","3TVSS0C0E111LY7PDJ0CAI177U9TW4","78","0","LIZARD","6","BAKER","13","0","542",,,,,"0","2018-10-18 20:50:26","286233"
"A12R8A3ORFKMBV","cs_wg_rev_conf_v3_pilot1","3OE22WJIGIPB1EQS1FRGNP5N27ZQUO","11","0","GRENADE","9","CRICKET","13","1","7990",,,,,"0","2018-10-18 20:50:28","286234"
"A3LA5P3N3KI8U7","cs_wg_rev_conf_v3_pilot1","3TVSS0C0E111LY7PDJ0CAI177U9TW4","79","0","BICYCLE","5","BUCKET","3","1","2002",,,,,"0","2018-10-18 20:50:31","286235"
"A3LA5P3N3KI8U7","cs_wg_rev_conf_v3_pilot1","3TVSS0C0E111LY7PDJ0CAI177U9TW4","80","0","BUCKET","3","LIZARD","6","0","1220",,,,,"0","2018-10-18 20:50:34","286236"
"A3LA5P3N3KI8U7","cs_wg_rev_conf_v3_pilot1","3TVSS0C0E111LY7PDJ0CAI177U9TW4","81","0","POTATO","1","VOLCANO","7","1","1107",,,,,"0","2018-10-18 20:50:37","286237"
"A3LA5P3N3KI8U7","cs_wg_rev_conf_v3_pilot1","3TVSS0C0E111LY7PDJ0CAI177U9TW4","82","0","GRENADE","11","LIQUID","8","0","559",,,,,"0","2018-10-18 20:50:40","286238"
"A12R8A3ORFKMBV","cs_wg_rev_conf_v3_pilot1","3OE22WJIGIPB1EQS1FRGNP5N27ZQUO","12","0","JAGUAR","8","PELICAN","7","0","12942",,,,,"0","2018-10-18 20:50:43","286239"
"A3LA5P3N3KI8U7","cs_wg_rev_conf_v3_pilot1","3TVSS0C0E111LY7PDJ0CAI177U9TW4","83","0","PELICAN","9","VOLCANO","7","1","1751",,,,,"0","2018-10-18 20:50:44","286240"
"A3LA5P3N3KI8U7","cs_wg_rev_conf_v3_pilot1","3TVSS0C0E111LY7PDJ0CAI177U9TW4","84","0","VOLCANO","7","GRENADE","11","1","1061",,,,,"0","2018-10-18 20:50:47","286241"
"A3LA5P3N3KI8U7","cs_wg_rev_conf_v3_pilot1","3TVSS0C0E111LY7PDJ0CAI177U9TW4","85","0","BAKER","13","LIQUID","8","0","3440",,,,,"0","2018-10-18 20:50:52","286242"
"A3LA5P3N3KI8U7","cs_wg_rev_conf_v3_pilot1","3TVSS0C0E111LY7PDJ0CAI177U9TW4","86","0","TOMATO","10","BAKER","13","0","768",,,,,"0","2018-10-18 20:50:55","286243"
"A3LA5P3N3KI8U7","cs_wg_rev_conf_v3_pilot1","3TVSS0C0E111LY7PDJ0CAI177U9TW4","87","0","VOLCANO","7","BICYCLE","5","0","1022",,,,,"0","2018-10-18 20:50:58","286244"
"A12R8A3ORFKMBV","cs_wg_rev_conf_v3_pilot1","3OE22WJIGIPB1EQS1FRGNP5N27ZQUO","13","0","POTATO","11","LIZARD","10","0","15130",,,,,"0","2018-10-18 20:51:01","286245"
"A3LA5P3N3KI8U7","cs_wg_rev_conf_v3_pilot1","3TVSS0C0E111LY7PDJ0CAI177U9TW4","88","0","POTATO","1","BICYCLE","5","1","981",,,,,"0","2018-10-18 20:51:01","286246"
"A3LA5P3N3KI8U7","cs_wg_rev_conf_v3_pilot1","3TVSS0C0E111LY7PDJ0CAI177U9TW4","89","0","LIZARD","6","CANCER","15","1","600",,,,,"0","2018-10-18 20:51:04","286247"
"A3LA5P3N3KI8U7","cs_wg_rev_conf_v3_pilot1","3TVSS0C0E111LY7PDJ0CAI177U9TW4","90","0","POTATO","1","BAKER","13","1","845",,,,,"0","2018-10-18 20:51:07","286248"
"A3LA5P3N3KI8U7","cs_wg_rev_conf_v3_pilot1","3TVSS0C0E111LY7PDJ0CAI177U9TW4","91","0","TOMATO","10","GRENADE","11","1","602",,,,,"0","2018-10-18 20:51:10","286249"
"A3LA5P3N3KI8U7","cs_wg_rev_conf_v3_pilot1","3TVSS0C0E111LY7PDJ0CAI177U9TW4","92","0","LIQUID","8","GRENADE","11","1","448",,,,,"0","2018-10-18 20:51:12","286250"
"A3LA5P3N3KI8U7","cs_wg_rev_conf_v3_pilot1","3TVSS0C0E111LY7PDJ0CAI177U9TW4","93","0","LIQUID","8","CANCER","15","1","515",,,,,"0","2018-10-18 20:51:15","286251"
"A3LA5P3N3KI8U7","cs_wg_rev_conf_v3_pilot1","3TVSS0C0E111LY7PDJ0CAI177U9TW4","94","0","GRENADE","11","VOLCANO","7","0","1277",,,,,"0","2018-10-18 20:51:18","286252"
"A3LA5P3N3KI8U7","cs_wg_rev_conf_v3_pilot1","3TVSS0C0E111LY7PDJ0CAI177U9TW4","95","0","GRENADE","11","PELICAN","9","0","870",,,,,"0","2018-10-18 20:51:21","286253"
"A12R8A3ORFKMBV","cs_wg_rev_conf_v3_pilot1","3OE22WJIGIPB1EQS1FRGNP5N27ZQUO","14","0","PELICAN","7","AIRBAG","1","0","22862",,,,,"1","2018-10-18 20:51:26","286254"
"A3LA5P3N3KI8U7","cs_wg_rev_conf_v3_pilot1","3TVSS0C0E111LY7PDJ0CAI177U9TW4","96","0","VOLCANO","7","TOMATO","10","0","2514",,,,,"0","2018-10-18 20:51:26","286255"
"A3LA5P3N3KI8U7","cs_wg_rev_conf_v3_pilot1","3TVSS0C0E111LY7PDJ0CAI177U9TW4","97","0","LIZARD","6","BICYCLE","5","1","1219",,,,,"0","2018-10-18 20:51:30","286256"
"A3LA5P3N3KI8U7","cs_wg_rev_conf_v3_pilot1","3TVSS0C0E111LY7PDJ0CAI177U9TW4","98","0","TOMATO","10","BICYCLE","5","0","722",,,,,"0","2018-10-18 20:51:34","286257"
"A3LA5P3N3KI8U7","cs_wg_rev_conf_v3_pilot1","3TVSS0C0E111LY7PDJ0CAI177U9TW4","99","0","CANCER","15","PELICAN","9","0","470",,,,,"0","2018-10-18 20:51:36","286258"
"A3LA5P3N3KI8U7","cs_wg_rev_conf_v3_pilot1","3TVSS0C0E111LY7PDJ0CAI177U9TW4","100","0","TOMATO","10","LIZARD","6","0","1188",,,,,"0","2018-10-18 20:51:40","286259"
"A3LA5P3N3KI8U7","cs_wg_rev_conf_v3_pilot1","3TVSS0C0E111LY7PDJ0CAI177U9TW4","101","0","GRENADE","11","BUCKET","3","0","622",,,,,"0","2018-10-18 20:51:42","286260"
"A12R8A3ORFKMBV","cs_wg_rev_conf_v3_pilot1","3OE22WJIGIPB1EQS1FRGNP5N27ZQUO","15","0","COWBOY","6","DONKEY","3","0","17275",,,,,"0","2018-10-18 20:51:47","286261"
"A3LA5P3N3KI8U7","cs_wg_rev_conf_v3_pilot1","3TVSS0C0E111LY7PDJ0CAI177U9TW4","102","0","BAKER","13","BICYCLE","5","0","1686",,,,,"0","2018-10-18 20:51:47","286262"
"A3LA5P3N3KI8U7","cs_wg_rev_conf_v3_pilot1","3TVSS0C0E111LY7PDJ0CAI177U9TW4","103","0","BAKER","13","BUCKET","3","0","960",,,,,"0","2018-10-18 20:51:50","286263"
"A3LA5P3N3KI8U7","cs_wg_rev_conf_v3_pilot1","3TVSS0C0E111LY7PDJ0CAI177U9TW4","104","0","TOMATO","10","CANCER","15","1","756",,,,,"0","2018-10-18 20:51:53","286264"
"A12R8A3ORFKMBV","cs_wg_rev_conf_v3_pilot1","3OE22WJIGIPB1EQS1FRGNP5N27ZQUO","16","0","AIRBAG","1","DONKEY","3","1","3995",,,,,"0","2018-10-18 20:51:53","286265"
"A3LA5P3N3KI8U7","cs_wg_rev_conf_v3_pilot1","3TVSS0C0E111LY7PDJ0CAI177U9TW4","105","0","TOMATO","10","BUCKET","3","0","1122",,,,,"0","2018-10-18 20:51:56","286266"
"A3LA5P3N3KI8U7","cs_wg_rev_conf_v3_pilot1","3TVSS0C0E111LY7PDJ0CAI177U9TW4","106","0","TOMATO","10","LIQUID","8","0","452",,,,,"0","2018-10-18 20:51:59","286267"
"A3LA5P3N3KI8U7","cs_wg_rev_conf_v3_pilot1","3TVSS0C0E111LY7PDJ0CAI177U9TW4","107","0","LIQUID","8","BAKER","13","1","1541",,,,,"0","2018-10-18 20:52:03","286268"
"A3LA5P3N3KI8U7","cs_wg_rev_conf_v3_pilot1","3TVSS0C0E111LY7PDJ0CAI177U9TW4","108","0","BICYCLE","5","POTATO","1","0","1057",,,,,"0","2018-10-18 20:52:06","286269"
"A3LA5P3N3KI8U7","cs_wg_rev_conf_v3_pilot1","3TVSS0C0E111LY7PDJ0CAI177U9TW4","109","0","POTATO","1","PELICAN","9","1","1203",,,,,"0","2018-10-18 20:52:09","286270"
"A12R8A3ORFKMBV","cs_wg_rev_conf_v3_pilot1","3OE22WJIGIPB1EQS1FRGNP5N27ZQUO","17","0","CRICKET","13","POTATO","11","0","41456",,,,,"0","2018-10-18 20:52:37","286271"
"A12R8A3ORFKMBV","cs_wg_rev_conf_v3_pilot1","3OE22WJIGIPB1EQS1FRGNP5N27ZQUO","18","0","CRICKET","13","AIRBAG","1","0","3380",,,,,"0","2018-10-18 20:52:42","286272"
"A11Q8U6QTT8KGF","cs_wg_rev_conf_v3_pilot1","3IQ1VMJRYTLLU6V8E8Z31T34L45A9C","0","0","AIRBAG","6","TOMATO","5","0","7290",,,,,"1","2018-10-18 20:52:45","286273"
"A12R8A3ORFKMBV","cs_wg_rev_conf_v3_pilot1","3OE22WJIGIPB1EQS1FRGNP5N27ZQUO","19","0","PELICAN","7","DONKEY","3","0","5195",,,,,"0","2018-10-18 20:52:49","286274"
"A11Q8U6QTT8KGF","cs_wg_rev_conf_v3_pilot1","3IQ1VMJRYTLLU6V8E8Z31T34L45A9C","1","0","DONKEY","13","VOLCANO","1","0","4113",,,,,"1","2018-10-18 20:52:52","286275"
"A12R8A3ORFKMBV","cs_wg_rev_conf_v3_pilot1","3OE22WJIGIPB1EQS1FRGNP5N27ZQUO","20","0","JAGUAR","8","DONKEY","3","0","4837",,,,,"0","2018-10-18 20:52:56","286276"
"A11Q8U6QTT8KGF","cs_wg_rev_conf_v3_pilot1","3IQ1VMJRYTLLU6V8E8Z31T34L45A9C","2","0","AVOCADO","9","BANANA","10","0","5392",,,,,"1","2018-10-18 20:53:01","286277"
"A12R8A3ORFKMBV","cs_wg_rev_conf_v3_pilot1","3OE22WJIGIPB1EQS1FRGNP5N27ZQUO","21","0","PELICAN","7","VOLCANO","15","1","6666",,,,,"0","2018-10-18 20:53:04","286278"
"A11Q8U6QTT8KGF","cs_wg_rev_conf_v3_pilot1","3IQ1VMJRYTLLU6V8E8Z31T34L45A9C","3","0","AIRBAG","6","BANANA","10","1","5063",,,,,"0","2018-10-18 20:53:09","286279"
"A12R8A3ORFKMBV","cs_wg_rev_conf_v3_pilot1","3OE22WJIGIPB1EQS1FRGNP5N27ZQUO","22","0","VOLCANO","15","CRICKET","13","0","3543",,,,,"0","2018-10-18 20:53:10","286280"
"A11Q8U6QTT8KGF","cs_wg_rev_conf_v3_pilot1","3IQ1VMJRYTLLU6V8E8Z31T34L45A9C","4","0","AVOCADO","9","LIZARD","7","0","3426",,,,,"1","2018-10-18 20:53:16","286281"
"A11Q8U6QTT8KGF","cs_wg_rev_conf_v3_pilot1","3IQ1VMJRYTLLU6V8E8Z31T34L45A9C","5","0","VOLCANO","1","COWBOY","15","1","4703",,,,,"1","2018-10-18 20:53:23","286282"
"A12R8A3ORFKMBV","cs_wg_rev_conf_v3_pilot1","3OE22WJIGIPB1EQS1FRGNP5N27ZQUO","23","0","CRICKET","13","PALACE","5","0","11902",,,,,"0","2018-10-18 20:53:24","286283"
"A11Q8U6QTT8KGF","cs_wg_rev_conf_v3_pilot1","3IQ1VMJRYTLLU6V8E8Z31T34L45A9C","6","0","HOUSE","8","WIZARD","11","1","3874",,,,,"1","2018-10-18 20:53:29","286284"
"A12R8A3ORFKMBV","cs_wg_rev_conf_v3_pilot1","3OE22WJIGIPB1EQS1FRGNP5N27ZQUO","24","0","COWBOY","6","AIRBAG","1","0","5596",,,,,"0","2018-10-18 20:53:31","286285"
"A11Q8U6QTT8KGF","cs_wg_rev_conf_v3_pilot1","3IQ1VMJRYTLLU6V8E8Z31T34L45A9C","7","0","AVOCADO","9","DONKEY","13","1","3976",,,,,"1","2018-10-18 20:53:36","286286"
"A11Q8U6QTT8KGF","cs_wg_rev_conf_v3_pilot1","3IQ1VMJRYTLLU6V8E8Z31T34L45A9C","8","0","HOUSE","8","DONKEY","13","1","4565",,,,,"1","2018-10-18 20:53:43","286287"
"A11Q8U6QTT8KGF","cs_wg_rev_conf_v3_pilot1","3IQ1VMJRYTLLU6V8E8Z31T34L45A9C","9","0","LIZARD","7","COWBOY","15","1","3952",,,,,"1","2018-10-18 20:53:50","286288"
"A12R8A3ORFKMBV","cs_wg_rev_conf_v3_pilot1","3OE22WJIGIPB1EQS1FRGNP5N27ZQUO","25","0","PELICAN","7","PALACE","5","0","17055",,,,,"0","2018-10-18 20:53:50","286289"
"A11Q8U6QTT8KGF","cs_wg_rev_conf_v3_pilot1","3IQ1VMJRYTLLU6V8E8Z31T34L45A9C","10","0","TOMATO","5","LIZARD","7","1","4224",,,,,"1","2018-10-18 20:53:57","286290"
"A12R8A3ORFKMBV","cs_wg_rev_conf_v3_pilot1","3OE22WJIGIPB1EQS1FRGNP5N27ZQUO","26","0","DONKEY","3","GRENADE","9","1","5334",,,,,"0","2018-10-18 20:53:58","286291"
"A11Q8U6QTT8KGF","cs_wg_rev_conf_v3_pilot1","3IQ1VMJRYTLLU6V8E8Z31T34L45A9C","11","0","WIZARD","11","TOMATO","5","0","3063",,,,,"1","2018-10-18 20:54:02","286292"
"A11Q8U6QTT8KGF","cs_wg_rev_conf_v3_pilot1","3IQ1VMJRYTLLU6V8E8Z31T34L45A9C","12","0","AIRBAG","6","DONKEY","13","1","3648",,,,,"1","2018-10-18 20:54:08","286293"
"A12R8A3ORFKMBV","cs_wg_rev_conf_v3_pilot1","3OE22WJIGIPB1EQS1FRGNP5N27ZQUO","27","0","DONKEY","3","PALACE","5","1","9955",,,,,"0","2018-10-18 20:54:10","286294"
"A11Q8U6QTT8KGF","cs_wg_rev_conf_v3_pilot1","3IQ1VMJRYTLLU6V8E8Z31T34L45A9C","13","0","TOMATO","5","DONKEY","13","1","2363",,,,,"0","2018-10-18 20:54:14","286295"
"A11Q8U6QTT8KGF","cs_wg_rev_conf_v3_pilot1","3IQ1VMJRYTLLU6V8E8Z31T34L45A9C","14","0","TOMATO","5","BANANA","10","1","3344",,,,,"1","2018-10-18 20:54:20","286296"
"A12R8A3ORFKMBV","cs_wg_rev_conf_v3_pilot1","3OE22WJIGIPB1EQS1FRGNP5N27ZQUO","28","0","DONKEY","3","COWBOY","6","1","9504",,,,,"0","2018-10-18 20:54:21","286297"
"A11Q8U6QTT8KGF","cs_wg_rev_conf_v3_pilot1","3IQ1VMJRYTLLU6V8E8Z31T34L45A9C","15","0","DONKEY","13","WIZARD","11","0","3341",,,,,"1","2018-10-18 20:54:26","286298"
"A12R8A3ORFKMBV","cs_wg_rev_conf_v3_pilot1","3OE22WJIGIPB1EQS1FRGNP5N27ZQUO","29","0","PELICAN","7","JAGUAR","8","1","6112",,,,,"0","2018-10-18 20:54:29","286299"
"A11Q8U6QTT8KGF","cs_wg_rev_conf_v3_pilot1","3IQ1VMJRYTLLU6V8E8Z31T34L45A9C","16","0","PUMPKIN","3","HOUSE","8","1","4734",,,,,"1","2018-10-18 20:54:33","286300"
"A12R8A3ORFKMBV","cs_wg_rev_conf_v3_pilot1","3OE22WJIGIPB1EQS1FRGNP5N27ZQUO","30","0","LIZARD","10","PALACE","5","0","7296",,,,,"0","2018-10-18 20:54:38","286301"
"A11Q8U6QTT8KGF","cs_wg_rev_conf_v3_pilot1","3IQ1VMJRYTLLU6V8E8Z31T34L45A9C","17","0","BANANA","10","AVOCADO","9","0","3381",,,,,"1","2018-10-18 20:54:39","286302"
"A12R8A3ORFKMBV","cs_wg_rev_conf_v3_pilot1","3OE22WJIGIPB1EQS1FRGNP5N27ZQUO","31","0","JAGUAR","8","VOLCANO","15","1","2298",,,,,"0","2018-10-18 20:54:42","286303"
"A11Q8U6QTT8KGF","cs_wg_rev_conf_v3_pilot1","3IQ1VMJRYTLLU6V8E8Z31T34L45A9C","18","0","AIRBAG","6","PUMPKIN","3","0","3209",,,,,"1","2018-10-18 20:54:44","286304"
"A11Q8U6QTT8KGF","cs_wg_rev_conf_v3_pilot1","3IQ1VMJRYTLLU6V8E8Z31T34L45A9C","19","0","WIZARD","11","BANANA","10","0","3434",,,,,"1","2018-10-18 20:54:50","286305"
"A12R8A3ORFKMBV","cs_wg_rev_conf_v3_pilot1","3OE22WJIGIPB1EQS1FRGNP5N27ZQUO","32","0","GRENADE","9","VOLCANO","15","1","4401",,,,,"0","2018-10-18 20:54:50","286306"
"A12R8A3ORFKMBV","cs_wg_rev_conf_v3_pilot1","3OE22WJIGIPB1EQS1FRGNP5N27ZQUO","33","0","POTATO","11","AIRBAG","1","0","1988",,,,,"0","2018-10-18 20:54:54","286307"
"A11Q8U6QTT8KGF","cs_wg_rev_conf_v3_pilot1","3IQ1VMJRYTLLU6V8E8Z31T34L45A9C","20","0","DONKEY","13","HOUSE","8","0","2724",,,,,"1","2018-10-18 20:54:56","286308"
"A12R8A3ORFKMBV","cs_wg_rev_conf_v3_pilot1","3OE22WJIGIPB1EQS1FRGNP5N27ZQUO","34","0","LIZARD","10","AIRBAG","1","0","1596",,,,,"0","2018-10-18 20:54:58","286309"
"A12R8A3ORFKMBV","cs_wg_rev_conf_v3_pilot1","3OE22WJIGIPB1EQS1FRGNP5N27ZQUO","35","0","PALACE","5","AIRBAG","1","0","1182",,,,,"0","2018-10-18 20:55:01","286310"
"A11Q8U6QTT8KGF","cs_wg_rev_conf_v3_pilot1","3IQ1VMJRYTLLU6V8E8Z31T34L45A9C","21","0","AVOCADO","9","PUMPKIN","3","0","2831",,,,,"1","2018-10-18 20:55:01","286311"
"A12R8A3ORFKMBV","cs_wg_rev_conf_v3_pilot1","3OE22WJIGIPB1EQS1FRGNP5N27ZQUO","36","0","VOLCANO","15","AIRBAG","1","0","3333",,,,,"0","2018-10-18 20:55:06","286312"
"A11Q8U6QTT8KGF","cs_wg_rev_conf_v3_pilot1","3IQ1VMJRYTLLU6V8E8Z31T34L45A9C","22","0","VOLCANO","1","WIZARD","11","1","4512",,,,,"1","2018-10-18 20:55:08","286313"
"A11Q8U6QTT8KGF","cs_wg_rev_conf_v3_pilot1","3IQ1VMJRYTLLU6V8E8Z31T34L45A9C","23","0","HOUSE","8","TOMATO","5","0","2335",,,,,"1","2018-10-18 20:55:13","286314"
"A12R8A3ORFKMBV","cs_wg_rev_conf_v3_pilot1","3OE22WJIGIPB1EQS1FRGNP5N27ZQUO","37","0","COWBOY","6","JAGUAR","8","1","8860",,,,,"0","2018-10-18 20:55:17","286315"
"A11Q8U6QTT8KGF","cs_wg_rev_conf_v3_pilot1","3IQ1VMJRYTLLU6V8E8Z31T34L45A9C","24","0","BANANA","10","PUMPKIN","3","0","2750",,,,,"1","2018-10-18 20:55:18","286316"
"A12R8A3ORFKMBV","cs_wg_rev_conf_v3_pilot1","3OE22WJIGIPB1EQS1FRGNP5N27ZQUO","38","0","PALACE","5","VOLCANO","15","1","3946",,,,,"0","2018-10-18 20:55:24","286317"
"A11Q8U6QTT8KGF","cs_wg_rev_conf_v3_pilot1","3IQ1VMJRYTLLU6V8E8Z31T34L45A9C","25","0","LIZARD","7","VOLCANO","1","0","3145",,,,,"1","2018-10-18 20:55:24","286318"
"A11Q8U6QTT8KGF","cs_wg_rev_conf_v3_pilot1","3IQ1VMJRYTLLU6V8E8Z31T34L45A9C","26","0","WIZARD","11","DONKEY","13","1","3798",,,,,"1","2018-10-18 20:55:30","286319"
"A11Q8U6QTT8KGF","cs_wg_rev_conf_v3_pilot1","3IQ1VMJRYTLLU6V8E8Z31T34L45A9C","27","0","LIZARD","7","TOMATO","5","0","2731",,,,,"1","2018-10-18 20:55:35","286320"
"A12R8A3ORFKMBV","cs_wg_rev_conf_v3_pilot1","3OE22WJIGIPB1EQS1FRGNP5N27ZQUO","39","0","POTATO","11","CRICKET","13","1","10423",,,,,"0","2018-10-18 20:55:36","286321"
"A11Q8U6QTT8KGF","cs_wg_rev_conf_v3_pilot1","3IQ1VMJRYTLLU6V8E8Z31T34L45A9C","28","0","TOMATO","5","VOLCANO","1","0","1892",,,,,"0","2018-10-18 20:55:40","286322"
"A11Q8U6QTT8KGF","cs_wg_rev_conf_v3_pilot1","3IQ1VMJRYTLLU6V8E8Z31T34L45A9C","29","0","COWBOY","15","TOMATO","5","0","2376",,,,,"1","2018-10-18 20:55:45","286323"
"A12R8A3ORFKMBV","cs_wg_rev_conf_v3_pilot1","3OE22WJIGIPB1EQS1FRGNP5N27ZQUO","40","0","PALACE","5","LIZARD","10","1","9128",,,,,"0","2018-10-18 20:55:48","286324"
"A11Q8U6QTT8KGF","cs_wg_rev_conf_v3_pilot1","3IQ1VMJRYTLLU6V8E8Z31T34L45A9C","30","0","VOLCANO","1","BANANA","10","1","3101",,,,,"1","2018-10-18 20:55:50","286325"
"A12R8A3ORFKMBV","cs_wg_rev_conf_v3_pilot1","3OE22WJIGIPB1EQS1FRGNP5N27ZQUO","41","0","POTATO","11","GRENADE","9","0","3964",,,,,"0","2018-10-18 20:55:53","286326"
"A11Q8U6QTT8KGF","cs_wg_rev_conf_v3_pilot1","3IQ1VMJRYTLLU6V8E8Z31T34L45A9C","31","0","AVOCADO","9","VOLCANO","1","0","2277",,,,,"1","2018-10-18 20:55:55","286327"
"A12R8A3ORFKMBV","cs_wg_rev_conf_v3_pilot1","3OE22WJIGIPB1EQS1FRGNP5N27ZQUO","42","0","VOLCANO","15","PELICAN","7","0","5222",,,,,"0","2018-10-18 20:56:01","286328"
"A11Q8U6QTT8KGF","cs_wg_rev_conf_v3_pilot1","3IQ1VMJRYTLLU6V8E8Z31T34L45A9C","32","0","BANANA","10","DONKEY","13","1","3097",,,,,"1","2018-10-18 20:56:01","286329"
"A11Q8U6QTT8KGF","cs_wg_rev_conf_v3_pilot1","3IQ1VMJRYTLLU6V8E8Z31T34L45A9C","33","0","TOMATO","5","WIZARD","11","1","2631",,,,,"1","2018-10-18 20:56:06","286330"
"A12R8A3ORFKMBV","cs_wg_rev_conf_v3_pilot1","3OE22WJIGIPB1EQS1FRGNP5N27ZQUO","43","0","COWBOY","6","PALACE","5","0","7969",,,,,"0","2018-10-18 20:56:11","286331"
"A11Q8U6QTT8KGF","cs_wg_rev_conf_v3_pilot1","3IQ1VMJRYTLLU6V8E8Z31T34L45A9C","34","0","BANANA","10","COWBOY","15","1","3315",,,,,"1","2018-10-18 20:56:12","286332"
"A11Q8U6QTT8KGF","cs_wg_rev_conf_v3_pilot1","3IQ1VMJRYTLLU6V8E8Z31T34L45A9C","35","0","TOMATO","5","HOUSE","8","1","2892",,,,,"1","2018-10-18 20:56:17","286333"
"A12R8A3ORFKMBV","cs_wg_rev_conf_v3_pilot1","3OE22WJIGIPB1EQS1FRGNP5N27ZQUO","44","0","PALACE","5","POTATO","11","1","5314",,,,,"0","2018-10-18 20:56:18","286334"
"A12R8A3ORFKMBV","cs_wg_rev_conf_v3_pilot1","3OE22WJIGIPB1EQS1FRGNP5N27ZQUO","45","0","VOLCANO","15","POTATO","11","0","1866",,,,,"0","2018-10-18 20:56:22","286335"
"A11Q8U6QTT8KGF","cs_wg_rev_conf_v3_pilot1","3IQ1VMJRYTLLU6V8E8Z31T34L45A9C","36","0","COWBOY","15","HOUSE","8","0","3931",,,,,"1","2018-10-18 20:56:23","286336"
"A11Q8U6QTT8KGF","cs_wg_rev_conf_v3_pilot1","3IQ1VMJRYTLLU6V8E8Z31T34L45A9C","37","0","AIRBAG","6","LIZARD","7","1","3309",,,,,"0","2018-10-18 20:56:30","286337"
"A12R8A3ORFKMBV","cs_wg_rev_conf_v3_pilot1","3OE22WJIGIPB1EQS1FRGNP5N27ZQUO","46","0","PALACE","5","GRENADE","9","1","5904",,,,,"0","2018-10-18 20:56:30","286338"
"A11Q8U6QTT8KGF","cs_wg_rev_conf_v3_pilot1","3IQ1VMJRYTLLU6V8E8Z31T34L45A9C","38","0","DONKEY","13","AVOCADO","9","0","5752",,,,,"0","2018-10-18 20:56:38","286339"
"A12R8A3ORFKMBV","cs_wg_rev_conf_v3_pilot1","3OE22WJIGIPB1EQS1FRGNP5N27ZQUO","47","0","DONKEY","3","JAGUAR","8","1","6788",,,,,"0","2018-10-18 20:56:39","286340"
"A11Q8U6QTT8KGF","cs_wg_rev_conf_v3_pilot1","3IQ1VMJRYTLLU6V8E8Z31T34L45A9C","39","0","PUMPKIN","3","COWBOY","15","1","1402",,,,,"0","2018-10-18 20:56:42","286341"
"A11Q8U6QTT8KGF","cs_wg_rev_conf_v3_pilot1","3IQ1VMJRYTLLU6V8E8Z31T34L45A9C","40","0","AIRBAG","6","WIZARD","11","1","1428",,,,,"0","2018-10-18 20:56:45","286342"
"A12R8A3ORFKMBV","cs_wg_rev_conf_v3_pilot1","3OE22WJIGIPB1EQS1FRGNP5N27ZQUO","48","0","GRENADE","9","POTATO","11","1","4400",,,,,"0","2018-10-18 20:56:45","286343"
"A11Q8U6QTT8KGF","cs_wg_rev_conf_v3_pilot1","3IQ1VMJRYTLLU6V8E8Z31T34L45A9C","41","0","LIZARD","7","PUMPKIN","3","0","1448",,,,,"0","2018-10-18 20:56:49","286344"
"A12R8A3ORFKMBV","cs_wg_rev_conf_v3_pilot1","3OE22WJIGIPB1EQS1FRGNP5N27ZQUO","49","0","DONKEY","3","POTATO","11","1","4708",,,,,"0","2018-10-18 20:56:52","286345"
"A11Q8U6QTT8KGF","cs_wg_rev_conf_v3_pilot1","3IQ1VMJRYTLLU6V8E8Z31T34L45A9C","42","0","PUMPKIN","3","LIZARD","7","1","1440",,,,,"0","2018-10-18 20:56:53","286346"
"A11Q8U6QTT8KGF","cs_wg_rev_conf_v3_pilot1","3IQ1VMJRYTLLU6V8E8Z31T34L45A9C","43","0","BANANA","10","VOLCANO","1","0","1196",,,,,"0","2018-10-18 20:56:57","286347"
"A12R8A3ORFKMBV","cs_wg_rev_conf_v3_pilot1","3OE22WJIGIPB1EQS1FRGNP5N27ZQUO","50","0","PELICAN","7","COWBOY","6","0","7194",,,,,"0","2018-10-18 20:57:01","286348"
"A11Q8U6QTT8KGF","cs_wg_rev_conf_v3_pilot1","3IQ1VMJRYTLLU6V8E8Z31T34L45A9C","44","0","COWBOY","15","DONKEY","13","0","2813",,,,,"0","2018-10-18 20:57:02","286349"
"A11Q8U6QTT8KGF","cs_wg_rev_conf_v3_pilot1","3IQ1VMJRYTLLU6V8E8Z31T34L45A9C","45","0","HOUSE","8","COWBOY","15","1","1788",,,,,"0","2018-10-18 20:57:06","286350"
"A12R8A3ORFKMBV","cs_wg_rev_conf_v3_pilot1","3OE22WJIGIPB1EQS1FRGNP5N27ZQUO","51","0","VOLCANO","15","PALACE","5","0","2608",,,,,"0","2018-10-18 20:57:06","286351"
"A12R8A3ORFKMBV","cs_wg_rev_conf_v3_pilot1","3OE22WJIGIPB1EQS1FRGNP5N27ZQUO","52","0","AIRBAG","1","GRENADE","9","1","1962",,,,,"0","2018-10-18 20:57:10","286352"
"A11Q8U6QTT8KGF","cs_wg_rev_conf_v3_pilot1","3IQ1VMJRYTLLU6V8E8Z31T34L45A9C","46","0","VOLCANO","1","PUMPKIN","3","1","4318",,,,,"0","2018-10-18 20:57:12","286353"
