"subject","version","assignmentId","trial","trial_type","word","value","alt","value2","choice","rt","resp","resp2","resp3","resp4","used_hint","stamp","id"
"A1WP31SA23FB8R","cs_wg_mon_freq_v1_pilot1","3Z4XG4ZF48SXCEKRKQL3L5JSCZNX8D","0","0","FEBRUARY","2","JANUARY","8","0","15931",,,,,"1","2018-12-04 18:07:09","515612"
"A1WP31SA23FB8R","cs_wg_mon_freq_v1_pilot1","3Z4XG4ZF48SXCEKRKQL3L5JSCZNX8D","1","0","APRIL","8","AUGUST","14","0","7286",,,,,"0","2018-12-04 18:07:22","515613"
"A1WP31SA23FB8R","cs_wg_mon_freq_v1_pilot1","3Z4XG4ZF48SXCEKRKQL3L5JSCZNX8D","2","0","JUNE","8","MARCH","6","0","5172",,,,,"0","2018-12-04 18:07:33","515614"
"A1WP31SA23FB8R","cs_wg_mon_freq_v1_pilot1","3Z4XG4ZF48SXCEKRKQL3L5JSCZNX8D","3","0","JUNE","8","MARCH","6","1","3126",,,,,"0","2018-12-04 18:07:39","515615"
"A1WP31SA23FB8R","cs_wg_mon_freq_v1_pilot1","3Z4XG4ZF48SXCEKRKQL3L5JSCZNX8D","4","0","DECEMBER","12","OCTOBER","8","0","2052",,,,,"0","2018-12-04 18:07:44","515616"
"A1WP31SA23FB8R","cs_wg_mon_freq_v1_pilot1","3Z4XG4ZF48SXCEKRKQL3L5JSCZNX8D","5","0","OCTOBER","8","AUGUST","14","1","3628",,,,,"0","2018-12-04 18:07:50","515617"
"A1WP31SA23FB8R","cs_wg_mon_freq_v1_pilot1","3Z4XG4ZF48SXCEKRKQL3L5JSCZNX8D","6","0","FEBRUARY","2","MAY","8","1","4220",,,,,"0","2018-12-04 18:07:57","515618"
"A1WP31SA23FB8R","cs_wg_mon_freq_v1_pilot1","3Z4XG4ZF48SXCEKRKQL3L5JSCZNX8D","7","0","SEPTEMBER","8","FEBRUARY","2","0","1895",,,,,"0","2018-12-04 18:08:01","515619"
"A1WP31SA23FB8R","cs_wg_mon_freq_v1_pilot1","3Z4XG4ZF48SXCEKRKQL3L5JSCZNX8D","8","0","OCTOBER","8","DECEMBER","12","1","3735",,,,,"0","2018-12-04 18:08:07","515620"
"A1WP31SA23FB8R","cs_wg_mon_freq_v1_pilot1","3Z4XG4ZF48SXCEKRKQL3L5JSCZNX8D","9","0","APRIL","8","AUGUST","14","1","3124",,,,,"0","2018-12-04 18:08:13","515621"
"A1WP31SA23FB8R","cs_wg_mon_freq_v1_pilot1","3Z4XG4ZF48SXCEKRKQL3L5JSCZNX8D","10","0","FEBRUARY","2","APRIL","8","1","3637",,,,,"0","2018-12-04 18:08:19","515622"
"A1WP31SA23FB8R","cs_wg_mon_freq_v1_pilot1","3Z4XG4ZF48SXCEKRKQL3L5JSCZNX8D","11","0","NOVEMBER","10","MAY","8","0","3022",,,,,"0","2018-12-04 18:08:24","515623"
"A1WP31SA23FB8R","cs_wg_mon_freq_v1_pilot1","3Z4XG4ZF48SXCEKRKQL3L5JSCZNX8D","12","0","MARCH","6","JANUARY","8","0","3614",,,,,"0","2018-12-04 18:08:30","515624"
"A1WP31SA23FB8R","cs_wg_mon_freq_v1_pilot1","3Z4XG4ZF48SXCEKRKQL3L5JSCZNX8D","13","0","OCTOBER","8","DECEMBER","12","0","1865",,,,,"0","2018-12-04 18:08:35","515625"
"A1WP31SA23FB8R","cs_wg_mon_freq_v1_pilot1","3Z4XG4ZF48SXCEKRKQL3L5JSCZNX8D","14","0","SEPTEMBER","8","MARCH","6","0","1285",,,,,"0","2018-12-04 18:08:38","515626"
"A1WP31SA23FB8R","cs_wg_mon_freq_v1_pilot1","3Z4XG4ZF48SXCEKRKQL3L5JSCZNX8D","15","0","SEPTEMBER","8","NOVEMBER","10","0","2980",,,,,"0","2018-12-04 18:08:49","515627"
"A1WP31SA23FB8R","cs_wg_mon_freq_v1_pilot1","3Z4XG4ZF48SXCEKRKQL3L5JSCZNX8D","16","0","DECEMBER","12","SEPTEMBER","8","0","2111",,,,,"0","2018-12-04 18:08:53","515628"
"A1WP31SA23FB8R","cs_wg_mon_freq_v1_pilot1","3Z4XG4ZF48SXCEKRKQL3L5JSCZNX8D","17","0","DECEMBER","12","JUNE","8","0","3914",,,,,"0","2018-12-04 18:08:59","515629"
"A1WP31SA23FB8R","cs_wg_mon_freq_v1_pilot1","3Z4XG4ZF48SXCEKRKQL3L5JSCZNX8D","18","0","FEBRUARY","2","JANUARY","8","0","7651",,,,,"0","2018-12-04 18:09:10","515630"
"A1WP31SA23FB8R","cs_wg_mon_freq_v1_pilot1","3Z4XG4ZF48SXCEKRKQL3L5JSCZNX8D","19","0","AUGUST","14","OCTOBER","8","1","3915",,,,,"0","2018-12-04 18:09:16","515631"
"A1WP31SA23FB8R","cs_wg_mon_freq_v1_pilot1","3Z4XG4ZF48SXCEKRKQL3L5JSCZNX8D","20","0","MAY","8","JULY","4","1","5250",,,,,"0","2018-12-04 18:09:24","515632"
"A1WP31SA23FB8R","cs_wg_mon_freq_v1_pilot1","3Z4XG4ZF48SXCEKRKQL3L5JSCZNX8D","21","0","SEPTEMBER","8","JULY","4","0","999",,,,,"0","2018-12-04 18:09:27","515633"
"A1WP31SA23FB8R","cs_wg_mon_freq_v1_pilot1","3Z4XG4ZF48SXCEKRKQL3L5JSCZNX8D","22","0","OCTOBER","8","MARCH","6","0","2389",,,,,"0","2018-12-04 18:09:33","515634"
"A1WP31SA23FB8R","cs_wg_mon_freq_v1_pilot1","3Z4XG4ZF48SXCEKRKQL3L5JSCZNX8D","23","0","FEBRUARY","2","JANUARY","8","0","1269",,,,,"0","2018-12-04 18:09:35","515635"
"A1WP31SA23FB8R","cs_wg_mon_freq_v1_pilot1","3Z4XG4ZF48SXCEKRKQL3L5JSCZNX8D","24","0","AUGUST","14","JANUARY","8","0","717",,,,,"0","2018-12-04 18:09:38","515636"
"A1ZI37LKKJ7UKE","cs_wg_mon_freq_v1_pilot1","3OLQQLKKNSQDQVPTGPS2M67ZC47JEB","0","0","DECEMBER","8","APRIL","10","1","6050",,,,,"1","2018-12-04 18:09:41","515637"
"A1WP31SA23FB8R","cs_wg_mon_freq_v1_pilot1","3Z4XG4ZF48SXCEKRKQL3L5JSCZNX8D","25","0","NOVEMBER","10","SEPTEMBER","8","1","2148",,,,,"0","2018-12-04 18:09:43","515638"
"A1WP31SA23FB8R","cs_wg_mon_freq_v1_pilot1","3Z4XG4ZF48SXCEKRKQL3L5JSCZNX8D","26","0","JULY","4","MAY","8","0","1101",,,,,"0","2018-12-04 18:09:46","515639"
"A1ZI37LKKJ7UKE","cs_wg_mon_freq_v1_pilot1","3OLQQLKKNSQDQVPTGPS2M67ZC47JEB","1","0","AUGUST","8","MAY","4","0","5032",,,,,"1","2018-12-04 18:09:48","515640"
"A1WP31SA23FB8R","cs_wg_mon_freq_v1_pilot1","3Z4XG4ZF48SXCEKRKQL3L5JSCZNX8D","27","0","OCTOBER","8","DECEMBER","12","1","2309",,,,,"0","2018-12-04 18:09:51","515641"
"A1WP31SA23FB8R","cs_wg_mon_freq_v1_pilot1","3Z4XG4ZF48SXCEKRKQL3L5JSCZNX8D","28","0","JANUARY","8","FEBRUARY","2","1","1603",,,,,"0","2018-12-04 18:09:55","515642"
"A1ZI37LKKJ7UKE","cs_wg_mon_freq_v1_pilot1","3OLQQLKKNSQDQVPTGPS2M67ZC47JEB","2","0","JANUARY","8","FEBRUARY","14","1","5170",,,,,"1","2018-12-04 18:09:56","515643"
"A1WP31SA23FB8R","cs_wg_mon_freq_v1_pilot1","3Z4XG4ZF48SXCEKRKQL3L5JSCZNX8D","29","0","APRIL","8","AUGUST","14","1","1464",,,,,"0","2018-12-04 18:09:58","515644"
"A1WP31SA23FB8R","cs_wg_mon_freq_v1_pilot1","3Z4XG4ZF48SXCEKRKQL3L5JSCZNX8D","30","0","APRIL","8","FEBRUARY","2","0","2043",,,,,"0","2018-12-04 18:10:03","515645"
"A1ZI37LKKJ7UKE","cs_wg_mon_freq_v1_pilot1","3OLQQLKKNSQDQVPTGPS2M67ZC47JEB","3","0","AUGUST","8","JUNE","12","1","5755",,,,,"1","2018-12-04 18:10:05","515646"
"A1WP31SA23FB8R","cs_wg_mon_freq_v1_pilot1","3Z4XG4ZF48SXCEKRKQL3L5JSCZNX8D","31","0","NOVEMBER","10","SEPTEMBER","8","1","1588",,,,,"0","2018-12-04 18:10:07","515647"
"A1WP31SA23FB8R","cs_wg_mon_freq_v1_pilot1","3Z4XG4ZF48SXCEKRKQL3L5JSCZNX8D","32","0","DECEMBER","12","APRIL","8","0","1002",,,,,"0","2018-12-04 18:10:09","515648"
"A1ZI37LKKJ7UKE","cs_wg_mon_freq_v1_pilot1","3OLQQLKKNSQDQVPTGPS2M67ZC47JEB","4","0","APRIL","10","SEPTEMBER","8","0","5671",,,,,"1","2018-12-04 18:10:13","515649"
"A1WP31SA23FB8R","cs_wg_mon_freq_v1_pilot1","3Z4XG4ZF48SXCEKRKQL3L5JSCZNX8D","33","0","JANUARY","8","AUGUST","14","1","1533",,,,,"0","2018-12-04 18:10:13","515650"
"A1WP31SA23FB8R","cs_wg_mon_freq_v1_pilot1","3Z4XG4ZF48SXCEKRKQL3L5JSCZNX8D","34","0","SEPTEMBER","8","AUGUST","14","0","838",,,,,"0","2018-12-04 18:10:17","515651"
"A1WP31SA23FB8R","cs_wg_mon_freq_v1_pilot1","3Z4XG4ZF48SXCEKRKQL3L5JSCZNX8D","35","0","MARCH","6","JUNE","8","0","985",,,,,"0","2018-12-04 18:10:19","515652"
"A1ZI37LKKJ7UKE","cs_wg_mon_freq_v1_pilot1","3OLQQLKKNSQDQVPTGPS2M67ZC47JEB","5","0","AUGUST","8","MAY","4","0","3326",,,,,"1","2018-12-04 18:10:21","515653"
"A1WP31SA23FB8R","cs_wg_mon_freq_v1_pilot1","3Z4XG4ZF48SXCEKRKQL3L5JSCZNX8D","36","0","NOVEMBER","10","APRIL","8","0","1091",,,,,"0","2018-12-04 18:10:21","515654"
"A1WP31SA23FB8R","cs_wg_mon_freq_v1_pilot1","3Z4XG4ZF48SXCEKRKQL3L5JSCZNX8D","37","0","APRIL","8","AUGUST","14","1","1460",,,,,"0","2018-12-04 18:10:25","515655"
"A1ZI37LKKJ7UKE","cs_wg_mon_freq_v1_pilot1","3OLQQLKKNSQDQVPTGPS2M67ZC47JEB","6","0","JANUARY","8","APRIL","10","1","5321",,,,,"1","2018-12-04 18:10:29","515656"
"A1WP31SA23FB8R","cs_wg_mon_freq_v1_pilot1","3Z4XG4ZF48SXCEKRKQL3L5JSCZNX8D","38","0","APRIL","8","JULY","4","1","2079",,,,,"0","2018-12-04 18:10:30","515657"
"A1WP31SA23FB8R","cs_wg_mon_freq_v1_pilot1","3Z4XG4ZF48SXCEKRKQL3L5JSCZNX8D","39","0","JULY","4","SEPTEMBER","8","1","1357",,,,,"0","2018-12-04 18:10:33","515658"
"A1WP31SA23FB8R","cs_wg_mon_freq_v1_pilot1","3Z4XG4ZF48SXCEKRKQL3L5JSCZNX8D","40","0","OCTOBER","8","FEBRUARY","2","0","1238",,,,,"0","2018-12-04 18:10:36","515659"
"A1ZI37LKKJ7UKE","cs_wg_mon_freq_v1_pilot1","3OLQQLKKNSQDQVPTGPS2M67ZC47JEB","7","0","SEPTEMBER","8","MARCH","6","0","4726",,,,,"1","2018-12-04 18:10:36","515660"
"A1WP31SA23FB8R","cs_wg_mon_freq_v1_pilot1","3Z4XG4ZF48SXCEKRKQL3L5JSCZNX8D","41","0","JULY","4","MAY","8","1","1879",,,,,"0","2018-12-04 18:10:40","515661"
"A1ZI37LKKJ7UKE","cs_wg_mon_freq_v1_pilot1","3OLQQLKKNSQDQVPTGPS2M67ZC47JEB","8","0","DECEMBER","8","APRIL","10","1","4567",,,,,"1","2018-12-04 18:10:43","515662"
"A1WP31SA23FB8R","cs_wg_mon_freq_v1_pilot1","3Z4XG4ZF48SXCEKRKQL3L5JSCZNX8D","42","0","JANUARY","8","FEBRUARY","2","1","2316",,,,,"0","2018-12-04 18:10:45","515663"
"A1ZI37LKKJ7UKE","cs_wg_mon_freq_v1_pilot1","3OLQQLKKNSQDQVPTGPS2M67ZC47JEB","9","0","APRIL","10","AUGUST","8","0","2032",,,,,"1","2018-12-04 18:10:50","515664"
"A1WP31SA23FB8R","cs_wg_mon_freq_v1_pilot1","3Z4XG4ZF48SXCEKRKQL3L5JSCZNX8D","43","0","MAY","8","JULY","4","0","1950",,,,,"0","2018-12-04 18:10:50","515665"
"A1WP31SA23FB8R","cs_wg_mon_freq_v1_pilot1","3Z4XG4ZF48SXCEKRKQL3L5JSCZNX8D","44","0","DECEMBER","12","OCTOBER","8","0","861",,,,,"0","2018-12-04 18:10:53","515666"
"A1WP31SA23FB8R","cs_wg_mon_freq_v1_pilot1","3Z4XG4ZF48SXCEKRKQL3L5JSCZNX8D","45","0","AUGUST","14","APRIL","8","0","958",,,,,"0","2018-12-04 18:10:58","515667"
"A1ZI37LKKJ7UKE","cs_wg_mon_freq_v1_pilot1","3OLQQLKKNSQDQVPTGPS2M67ZC47JEB","10","0","OCTOBER","8","MAY","4","0","3158",,,,,"1","2018-12-04 18:10:58","515668"
"A1WP31SA23FB8R","cs_wg_mon_freq_v1_pilot1","3Z4XG4ZF48SXCEKRKQL3L5JSCZNX8D","46","0","SEPTEMBER","8","NOVEMBER","10","1","2135",,,,,"0","2018-12-04 18:10:59","515669"
"A1ZI37LKKJ7UKE","cs_wg_mon_freq_v1_pilot1","3OLQQLKKNSQDQVPTGPS2M67ZC47JEB","11","0","JUNE","12","DECEMBER","8","0","2272",,,,,"1","2018-12-04 18:11:00","515670"
"A1WP31SA23FB8R","cs_wg_mon_freq_v1_pilot1","3Z4XG4ZF48SXCEKRKQL3L5JSCZNX8D","47","0","JUNE","8","MARCH","6","1","1910",,,,,"0","2018-12-04 18:11:03","515671"
"A1ZI37LKKJ7UKE","cs_wg_mon_freq_v1_pilot1","3OLQQLKKNSQDQVPTGPS2M67ZC47JEB","12","0","SEPTEMBER","8","MARCH","6","0","2562",,,,,"1","2018-12-04 18:11:05","515672"
"A1WP31SA23FB8R","cs_wg_mon_freq_v1_pilot1","3Z4XG4ZF48SXCEKRKQL3L5JSCZNX8D","48","0","FEBRUARY","2","JANUARY","8","0","1149",,,,,"0","2018-12-04 18:11:06","515673"
"A1WP31SA23FB8R","cs_wg_mon_freq_v1_pilot1","3Z4XG4ZF48SXCEKRKQL3L5JSCZNX8D","49","0","MARCH","6","JUNE","8","0","814",,,,,"0","2018-12-04 18:11:09","515674"
"A1ZI37LKKJ7UKE","cs_wg_mon_freq_v1_pilot1","3OLQQLKKNSQDQVPTGPS2M67ZC47JEB","13","0","AUGUST","8","MARCH","6","0","2500",,,,,"1","2018-12-04 18:11:10","515675"
"A1WP31SA23FB8R","cs_wg_mon_freq_v1_pilot1","3Z4XG4ZF48SXCEKRKQL3L5JSCZNX8D","50","0","MAY","8","FEBRUARY","2","0","1181",,,,,"0","2018-12-04 18:11:11","515676"
"A1WP31SA23FB8R","cs_wg_mon_freq_v1_pilot1","3Z4XG4ZF48SXCEKRKQL3L5JSCZNX8D","51","0","APRIL","8","DECEMBER","12","1","1383",,,,,"0","2018-12-04 18:11:15","515677"
"A1ZI37LKKJ7UKE","cs_wg_mon_freq_v1_pilot1","3OLQQLKKNSQDQVPTGPS2M67ZC47JEB","14","0","JULY","2","OCTOBER","8","1","4418",,,,,"1","2018-12-04 18:11:18","515678"
"A1WP31SA23FB8R","cs_wg_mon_freq_v1_pilot1","3Z4XG4ZF48SXCEKRKQL3L5JSCZNX8D","52","0","NOVEMBER","10","SEPTEMBER","8","0","3535",,,,,"0","2018-12-04 18:11:20","515679"
"A1WP31SA23FB8R","cs_wg_mon_freq_v1_pilot1","3Z4XG4ZF48SXCEKRKQL3L5JSCZNX8D","53","0","AUGUST","14","SEPTEMBER","8","1","1637",,,,,"0","2018-12-04 18:11:23","515680"
"A1WP31SA23FB8R","cs_wg_mon_freq_v1_pilot1","3Z4XG4ZF48SXCEKRKQL3L5JSCZNX8D","54","0","DECEMBER","12","OCTOBER","8","0","1044",,,,,"0","2018-12-04 18:11:25","515681"
"A1ZI37LKKJ7UKE","cs_wg_mon_freq_v1_pilot1","3OLQQLKKNSQDQVPTGPS2M67ZC47JEB","15","0","APRIL","10","OCTOBER","8","0","6345",,,,,"1","2018-12-04 18:11:26","515682"
"A1WP31SA23FB8R","cs_wg_mon_freq_v1_pilot1","3Z4XG4ZF48SXCEKRKQL3L5JSCZNX8D","55","0","SEPTEMBER","8","NOVEMBER","10","0","803",,,,,"0","2018-12-04 18:11:28","515683"
"A1ZI37LKKJ7UKE","cs_wg_mon_freq_v1_pilot1","3OLQQLKKNSQDQVPTGPS2M67ZC47JEB","16","0","APRIL","10","DECEMBER","8","0","1412",,,,,"1","2018-12-04 18:11:30","515684"
"A1WP31SA23FB8R","cs_wg_mon_freq_v1_pilot1","3Z4XG4ZF48SXCEKRKQL3L5JSCZNX8D","56","0","JULY","4","JUNE","8","0","704",,,,,"0","2018-12-04 18:11:30","515685"
"A1ZI37LKKJ7UKE","cs_wg_mon_freq_v1_pilot1","3OLQQLKKNSQDQVPTGPS2M67ZC47JEB","17","0","DECEMBER","8","MARCH","6","0","2252",,,,,"1","2018-12-04 18:11:34","515686"
"A1WP31SA23FB8R","cs_wg_mon_freq_v1_pilot1","3Z4XG4ZF48SXCEKRKQL3L5JSCZNX8D","57","0","AUGUST","14","APRIL","8","0","1773",,,,,"0","2018-12-04 18:11:34","515687"
"A1WP31SA23FB8R","cs_wg_mon_freq_v1_pilot1","3Z4XG4ZF48SXCEKRKQL3L5JSCZNX8D","58","0","JANUARY","8","FEBRUARY","2","1","1382",,,,,"0","2018-12-04 18:11:37","515688"
"A1ZI37LKKJ7UKE","cs_wg_mon_freq_v1_pilot1","3OLQQLKKNSQDQVPTGPS2M67ZC47JEB","18","0","JUNE","12","NOVEMBER","8","0","1596",,,,,"1","2018-12-04 18:11:38","515689"
"A2AZYU1CT24O0K","cs_wg_mon_freq_v1_pilot1","3R3YRB5GRF4JEYJBCJUUXPQJ856UAM","0","0","OCTOBER","2","AUGUST","8","1","9186",,,,,"1","2018-12-04 18:11:38","515690"
"A1WP31SA23FB8R","cs_wg_mon_freq_v1_pilot1","3Z4XG4ZF48SXCEKRKQL3L5JSCZNX8D","59","0","NOVEMBER","10","JANUARY","8","0","508",,,,,"0","2018-12-04 18:11:39","515691"
"A1WP31SA23FB8R","cs_wg_mon_freq_v1_pilot1","3Z4XG4ZF48SXCEKRKQL3L5JSCZNX8D","60","0","DECEMBER","12","OCTOBER","8","0","676",,,,,"0","2018-12-04 18:11:42","515692"
"A1WP31SA23FB8R","cs_wg_mon_freq_v1_pilot1","3Z4XG4ZF48SXCEKRKQL3L5JSCZNX8D","61","0","OCTOBER","8","DECEMBER","12","1","1358",,,,,"0","2018-12-04 18:11:45","515693"
"A1ZI37LKKJ7UKE","cs_wg_mon_freq_v1_pilot1","3OLQQLKKNSQDQVPTGPS2M67ZC47JEB","19","0","APRIL","10","DECEMBER","8","0","5144",,,,,"1","2018-12-04 18:11:46","515694"
"A2AZYU1CT24O0K","cs_wg_mon_freq_v1_pilot1","3R3YRB5GRF4JEYJBCJUUXPQJ856UAM","1","0","AUGUST","8","JANUARY","12","1","5239",,,,,"1","2018-12-04 18:11:48","515695"
"A1WP31SA23FB8R","cs_wg_mon_freq_v1_pilot1","3Z4XG4ZF48SXCEKRKQL3L5JSCZNX8D","62","0","MARCH","6","JUNE","8","1","1757",,,,,"0","2018-12-04 18:11:49","515696"
"A1ZI37LKKJ7UKE","cs_wg_mon_freq_v1_pilot1","3OLQQLKKNSQDQVPTGPS2M67ZC47JEB","20","0","JANUARY","8","MAY","4","0","2014",,,,,"1","2018-12-04 18:11:50","515697"
"A1WP31SA23FB8R","cs_wg_mon_freq_v1_pilot1","3Z4XG4ZF48SXCEKRKQL3L5JSCZNX8D","63","0","JULY","4","OCTOBER","8","1","1606",,,,,"0","2018-12-04 18:11:53","515698"
"A1ZI37LKKJ7UKE","cs_wg_mon_freq_v1_pilot1","3OLQQLKKNSQDQVPTGPS2M67ZC47JEB","21","0","SEPTEMBER","8","MARCH","6","0","1576",,,,,"1","2018-12-04 18:11:53","515699"
"A2AZYU1CT24O0K","cs_wg_mon_freq_v1_pilot1","3R3YRB5GRF4JEYJBCJUUXPQJ856UAM","2","0","FEBRUARY","8","APRIL","10","1","5402",,,,,"1","2018-12-04 18:11:58","515700"
"A1WP31SA23FB8R","cs_wg_mon_freq_v1_pilot1","3Z4XG4ZF48SXCEKRKQL3L5JSCZNX8D","64","0","MARCH","6","APRIL","8","0","718",,,,,"0","2018-12-04 18:11:58","515701"
"A1ZI37LKKJ7UKE","cs_wg_mon_freq_v1_pilot1","3OLQQLKKNSQDQVPTGPS2M67ZC47JEB","22","0","DECEMBER","8","APRIL","10","0","1539",,,,,"1","2018-12-04 18:11:59","515702"
"A1WP31SA23FB8R","cs_wg_mon_freq_v1_pilot1","3Z4XG4ZF48SXCEKRKQL3L5JSCZNX8D","65","0","JANUARY","8","DECEMBER","12","1","1149",,,,,"0","2018-12-04 18:12:00","515703"
"A2AZYU1CT24O0K","cs_wg_mon_freq_v1_pilot1","3R3YRB5GRF4JEYJBCJUUXPQJ856UAM","3","0","MAY","8","JANUARY","12","1","3850",,,,,"1","2018-12-04 18:12:01","515704"
"A1ZI37LKKJ7UKE","cs_wg_mon_freq_v1_pilot1","3OLQQLKKNSQDQVPTGPS2M67ZC47JEB","23","0","DECEMBER","8","FEBRUARY","14","1","2288",,,,,"1","2018-12-04 18:12:03","515705"
"A1WP31SA23FB8R","cs_wg_mon_freq_v1_pilot1","3Z4XG4ZF48SXCEKRKQL3L5JSCZNX8D","66","0","APRIL","8","AUGUST","14","1","1782",,,,,"0","2018-12-04 18:12:04","515706"
"A1WP31SA23FB8R","cs_wg_mon_freq_v1_pilot1","3Z4XG4ZF48SXCEKRKQL3L5JSCZNX8D","67","0","JUNE","8","AUGUST","14","1","1364",,,,,"0","2018-12-04 18:12:07","515707"
"A2AZYU1CT24O0K","cs_wg_mon_freq_v1_pilot1","3R3YRB5GRF4JEYJBCJUUXPQJ856UAM","4","0","JUNE","6","MARCH","8","1","4836",,,,,"1","2018-12-04 18:12:09","515708"
"A1ZI37LKKJ7UKE","cs_wg_mon_freq_v1_pilot1","3OLQQLKKNSQDQVPTGPS2M67ZC47JEB","24","0","NOVEMBER","8","JUNE","12","1","3062",,,,,"1","2018-12-04 18:12:09","515709"
"A1WP31SA23FB8R","cs_wg_mon_freq_v1_pilot1","3Z4XG4ZF48SXCEKRKQL3L5JSCZNX8D","68","0","JANUARY","8","NOVEMBER","10","0","1324",,,,,"0","2018-12-04 18:12:10","515710"
"A1WP31SA23FB8R","cs_wg_mon_freq_v1_pilot1","3Z4XG4ZF48SXCEKRKQL3L5JSCZNX8D","69","0","MARCH","6","OCTOBER","8","1","1133",,,,,"0","2018-12-04 18:12:13","515711"
"A1WP31SA23FB8R","cs_wg_mon_freq_v1_pilot1","3Z4XG4ZF48SXCEKRKQL3L5JSCZNX8D","70","0","JUNE","8","JULY","4","1","1295",,,,,"0","2018-12-04 18:12:16","515712"
"A2AZYU1CT24O0K","cs_wg_mon_freq_v1_pilot1","3R3YRB5GRF4JEYJBCJUUXPQJ856UAM","5","0","FEBRUARY","8","APRIL","10","1","4873",,,,,"1","2018-12-04 18:12:16","515713"
"A1ZI37LKKJ7UKE","cs_wg_mon_freq_v1_pilot1","3OLQQLKKNSQDQVPTGPS2M67ZC47JEB","25","0","OCTOBER","8","JUNE","12","1","5787",,,,,"1","2018-12-04 18:12:17","515714"
"A1WP31SA23FB8R","cs_wg_mon_freq_v1_pilot1","3Z4XG4ZF48SXCEKRKQL3L5JSCZNX8D","71","0","NOVEMBER","10","SEPTEMBER","8","1","1629",,,,,"0","2018-12-04 18:12:20","515715"
"A2AZYU1CT24O0K","cs_wg_mon_freq_v1_pilot1","3R3YRB5GRF4JEYJBCJUUXPQJ856UAM","6","0","JULY","4","DECEMBER","8","1","3726",,,,,"1","2018-12-04 18:12:22","515716"
"A1ZI37LKKJ7UKE","cs_wg_mon_freq_v1_pilot1","3OLQQLKKNSQDQVPTGPS2M67ZC47JEB","26","0","OCTOBER","8","JULY","2","0","2868",,,,,"1","2018-12-04 18:12:22","515717"
"A1WP31SA23FB8R","cs_wg_mon_freq_v1_pilot1","3Z4XG4ZF48SXCEKRKQL3L5JSCZNX8D","72","0","OCTOBER","8","DECEMBER","12","1","1846",,,,,"0","2018-12-04 18:12:23","515718"
"A1WP31SA23FB8R","cs_wg_mon_freq_v1_pilot1","3Z4XG4ZF48SXCEKRKQL3L5JSCZNX8D","73","0","MAY","8","AUGUST","14","1","1662",,,,,"0","2018-12-04 18:12:26","515719"
"A1ZI37LKKJ7UKE","cs_wg_mon_freq_v1_pilot1","3OLQQLKKNSQDQVPTGPS2M67ZC47JEB","27","0","MAY","4","NOVEMBER","8","1","2287",,,,,"1","2018-12-04 18:12:27","515720"
"A2AZYU1CT24O0K","cs_wg_mon_freq_v1_pilot1","3R3YRB5GRF4JEYJBCJUUXPQJ856UAM","7","0","NOVEMBER","8","JANUARY","12","1","4683",,,,,"1","2018-12-04 18:12:28","515721"
"A1WP31SA23FB8R","cs_wg_mon_freq_v1_pilot1","3Z4XG4ZF48SXCEKRKQL3L5JSCZNX8D","74","0","MAY","8","JULY","4","0","1782",,,,,"0","2018-12-04 18:12:30","515722"
"A1ZI37LKKJ7UKE","cs_wg_mon_freq_v1_pilot1","3OLQQLKKNSQDQVPTGPS2M67ZC47JEB","28","0","JULY","2","NOVEMBER","8","1","2648",,,,,"1","2018-12-04 18:12:32","515723"
"A1WP31SA23FB8R","cs_wg_mon_freq_v1_pilot1","3Z4XG4ZF48SXCEKRKQL3L5JSCZNX8D","75","0","DECEMBER","12","JANUARY","8","0","1367",,,,,"0","2018-12-04 18:12:33","515724"
"A2AZYU1CT24O0K","cs_wg_mon_freq_v1_pilot1","3R3YRB5GRF4JEYJBCJUUXPQJ856UAM","8","0","NOVEMBER","8","APRIL","10","1","5650",,,,,"1","2018-12-04 18:12:36","515725"
"A1WP31SA23FB8R","cs_wg_mon_freq_v1_pilot1","3Z4XG4ZF48SXCEKRKQL3L5JSCZNX8D","76","0","APRIL","8","MARCH","6","1","1445",,,,,"0","2018-12-04 18:12:36","515726"
"A1ZI37LKKJ7UKE","cs_wg_mon_freq_v1_pilot1","3OLQQLKKNSQDQVPTGPS2M67ZC47JEB","29","0","NOVEMBER","8","JULY","2","0","3252",,,,,"1","2018-12-04 18:12:37","515727"
"A1WP31SA23FB8R","cs_wg_mon_freq_v1_pilot1","3Z4XG4ZF48SXCEKRKQL3L5JSCZNX8D","77","0","MAY","8","NOVEMBER","10","1","1262",,,,,"0","2018-12-04 18:12:40","515728"
"A2AZYU1CT24O0K","cs_wg_mon_freq_v1_pilot1","3R3YRB5GRF4JEYJBCJUUXPQJ856UAM","9","0","MARCH","8","SEPTEMBER","14","1","3487",,,,,"1","2018-12-04 18:12:42","515729"
"A1ZI37LKKJ7UKE","cs_wg_mon_freq_v1_pilot1","3OLQQLKKNSQDQVPTGPS2M67ZC47JEB","30","0","JULY","2","OCTOBER","8","1","2069",,,,,"1","2018-12-04 18:12:42","515730"
"A1WP31SA23FB8R","cs_wg_mon_freq_v1_pilot1","3Z4XG4ZF48SXCEKRKQL3L5JSCZNX8D","78","0","MAY","8","JULY","4","1","1751",,,,,"0","2018-12-04 18:12:43","515731"
"A1WP31SA23FB8R","cs_wg_mon_freq_v1_pilot1","3Z4XG4ZF48SXCEKRKQL3L5JSCZNX8D","79","0","JUNE","8","FEBRUARY","2","0","1415",,,,,"0","2018-12-04 18:12:46","515732"
"A1ZI37LKKJ7UKE","cs_wg_mon_freq_v1_pilot1","3OLQQLKKNSQDQVPTGPS2M67ZC47JEB","31","0","MAY","4","OCTOBER","8","1","4212",,,,,"1","2018-12-04 18:12:48","515733"
"A2AZYU1CT24O0K","cs_wg_mon_freq_v1_pilot1","3R3YRB5GRF4JEYJBCJUUXPQJ856UAM","10","0","JANUARY","12","NOVEMBER","8","0","4764",,,,,"1","2018-12-04 18:12:49","515734"
"A1WP31SA23FB8R","cs_wg_mon_freq_v1_pilot1","3Z4XG4ZF48SXCEKRKQL3L5JSCZNX8D","80","0","JULY","4","JANUARY","8","1","2000",,,,,"0","2018-12-04 18:12:51","515735"
"A1ZI37LKKJ7UKE","cs_wg_mon_freq_v1_pilot1","3OLQQLKKNSQDQVPTGPS2M67ZC47JEB","32","0","FEBRUARY","14","NOVEMBER","8","0","2541",,,,,"1","2018-12-04 18:12:53","515736"
"A1WP31SA23FB8R","cs_wg_mon_freq_v1_pilot1","3Z4XG4ZF48SXCEKRKQL3L5JSCZNX8D","81","0","FEBRUARY","2","JUNE","8","1","1708",,,,,"0","2018-12-04 18:12:54","515737"
"A2AZYU1CT24O0K","cs_wg_mon_freq_v1_pilot1","3R3YRB5GRF4JEYJBCJUUXPQJ856UAM","11","0","JUNE","6","MAY","8","1","3887",,,,,"1","2018-12-04 18:12:55","515738"
"A1WP31SA23FB8R","cs_wg_mon_freq_v1_pilot1","3Z4XG4ZF48SXCEKRKQL3L5JSCZNX8D","82","0","MAY","8","DECEMBER","12","1","1446",,,,,"0","2018-12-04 18:12:57","515739"
"A1ZI37LKKJ7UKE","cs_wg_mon_freq_v1_pilot1","3OLQQLKKNSQDQVPTGPS2M67ZC47JEB","33","0","JULY","2","OCTOBER","8","1","2315",,,,,"1","2018-12-04 18:12:58","515740"
"A1WP31SA23FB8R","cs_wg_mon_freq_v1_pilot1","3Z4XG4ZF48SXCEKRKQL3L5JSCZNX8D","83","0","MARCH","6","MAY","8","0","805",,,,,"0","2018-12-04 18:12:59","515741"
"A2AZYU1CT24O0K","cs_wg_mon_freq_v1_pilot1","3R3YRB5GRF4JEYJBCJUUXPQJ856UAM","12","0","NOVEMBER","8","JANUARY","12","1","3409",,,,,"1","2018-12-04 18:13:00","515742"
"A1WP31SA23FB8R","cs_wg_mon_freq_v1_pilot1","3Z4XG4ZF48SXCEKRKQL3L5JSCZNX8D","84","0","JUNE","8","MARCH","6","1","1143",,,,,"0","2018-12-04 18:13:03","515743"
"A1ZI37LKKJ7UKE","cs_wg_mon_freq_v1_pilot1","3OLQQLKKNSQDQVPTGPS2M67ZC47JEB","34","0","OCTOBER","8","JULY","2","0","2318",,,,,"0","2018-12-04 18:13:03","515744"
"A1WP31SA23FB8R","cs_wg_mon_freq_v1_pilot1","3Z4XG4ZF48SXCEKRKQL3L5JSCZNX8D","85","0","MARCH","6","JUNE","8","0","695",,,,,"0","2018-12-04 18:13:05","515745"
"A2AZYU1CT24O0K","cs_wg_mon_freq_v1_pilot1","3R3YRB5GRF4JEYJBCJUUXPQJ856UAM","13","0","JANUARY","12","MAY","8","0","4107",,,,,"1","2018-12-04 18:13:06","515746"
"A1ZI37LKKJ7UKE","cs_wg_mon_freq_v1_pilot1","3OLQQLKKNSQDQVPTGPS2M67ZC47JEB","35","0","MAY","4","AUGUST","8","1","868",,,,,"0","2018-12-04 18:13:06","515747"
"A1WP31SA23FB8R","cs_wg_mon_freq_v1_pilot1","3Z4XG4ZF48SXCEKRKQL3L5JSCZNX8D","86","0","OCTOBER","8","NOVEMBER","10","1","1837",,,,,"0","2018-12-04 18:13:09","515748"
"A1ZI37LKKJ7UKE","cs_wg_mon_freq_v1_pilot1","3OLQQLKKNSQDQVPTGPS2M67ZC47JEB","36","0","JUNE","12","NOVEMBER","8","1","1043",,,,,"0","2018-12-04 18:13:10","515749"
"A2AZYU1CT24O0K","cs_wg_mon_freq_v1_pilot1","3R3YRB5GRF4JEYJBCJUUXPQJ856UAM","14","0","JANUARY","12","NOVEMBER","8","0","2769",,,,,"1","2018-12-04 18:13:11","515750"
"A1WP31SA23FB8R","cs_wg_mon_freq_v1_pilot1","3Z4XG4ZF48SXCEKRKQL3L5JSCZNX8D","87","0","JUNE","8","NOVEMBER","10","1","1182",,,,,"0","2018-12-04 18:13:11","515751"
"A1ZI37LKKJ7UKE","cs_wg_mon_freq_v1_pilot1","3OLQQLKKNSQDQVPTGPS2M67ZC47JEB","37","0","OCTOBER","8","JULY","2","0","944",,,,,"0","2018-12-04 18:13:13","515752"
"A1WP31SA23FB8R","cs_wg_mon_freq_v1_pilot1","3Z4XG4ZF48SXCEKRKQL3L5JSCZNX8D","88","0","MARCH","6","SEPTEMBER","8","1","1293",,,,,"0","2018-12-04 18:13:14","515753"
"A2AZYU1CT24O0K","cs_wg_mon_freq_v1_pilot1","3R3YRB5GRF4JEYJBCJUUXPQJ856UAM","15","0","DECEMBER","8","JULY","4","0","3258",,,,,"1","2018-12-04 18:13:16","515754"
"A1ZI37LKKJ7UKE","cs_wg_mon_freq_v1_pilot1","3OLQQLKKNSQDQVPTGPS2M67ZC47JEB","38","0","JUNE","12","NOVEMBER","8","0","594",,,,,"0","2018-12-04 18:13:16","515755"
"A1WP31SA23FB8R","cs_wg_mon_freq_v1_pilot1","3Z4XG4ZF48SXCEKRKQL3L5JSCZNX8D","89","0","JANUARY","8","MARCH","6","1","1549",,,,,"0","2018-12-04 18:13:18","515756"
"A1WP31SA23FB8R","cs_wg_mon_freq_v1_pilot1","3Z4XG4ZF48SXCEKRKQL3L5JSCZNX8D","90","0","JANUARY","8","FEBRUARY","2","0","655",,,,,"0","2018-12-04 18:13:20","515757"
"A1ZI37LKKJ7UKE","cs_wg_mon_freq_v1_pilot1","3OLQQLKKNSQDQVPTGPS2M67ZC47JEB","39","0","JANUARY","8","JULY","2","0","1792",,,,,"0","2018-12-04 18:13:20","515758"
"A2AZYU1CT24O0K","cs_wg_mon_freq_v1_pilot1","3R3YRB5GRF4JEYJBCJUUXPQJ856UAM","16","0","APRIL","10","FEBRUARY","8","0","2789",,,,,"1","2018-12-04 18:13:21","515759"
"A1WP31SA23FB8R","cs_wg_mon_freq_v1_pilot1","3Z4XG4ZF48SXCEKRKQL3L5JSCZNX8D","91","0","JULY","4","MAY","8","1","1323",,,,,"0","2018-12-04 18:13:23","515760"
"A1ZI37LKKJ7UKE","cs_wg_mon_freq_v1_pilot1","3OLQQLKKNSQDQVPTGPS2M67ZC47JEB","40","0","OCTOBER","8","FEBRUARY","14","1","1288",,,,,"0","2018-12-04 18:13:24","515761"
"A1WP31SA23FB8R","cs_wg_mon_freq_v1_pilot1","3Z4XG4ZF48SXCEKRKQL3L5JSCZNX8D","92","0","AUGUST","14","APRIL","8","0","1134",,,,,"0","2018-12-04 18:13:26","515762"
"A2AZYU1CT24O0K","cs_wg_mon_freq_v1_pilot1","3R3YRB5GRF4JEYJBCJUUXPQJ856UAM","17","0","MAY","8","APRIL","10","1","2860",,,,,"1","2018-12-04 18:13:26","515763"
"A1ZI37LKKJ7UKE","cs_wg_mon_freq_v1_pilot1","3OLQQLKKNSQDQVPTGPS2M67ZC47JEB","41","0","APRIL","10","NOVEMBER","8","0","683",,,,,"0","2018-12-04 18:13:27","515764"
"A1WP31SA23FB8R","cs_wg_mon_freq_v1_pilot1","3Z4XG4ZF48SXCEKRKQL3L5JSCZNX8D","93","0","APRIL","8","NOVEMBER","10","1","1573",,,,,"0","2018-12-04 18:13:29","515765"
"A2AZYU1CT24O0K","cs_wg_mon_freq_v1_pilot1","3R3YRB5GRF4JEYJBCJUUXPQJ856UAM","18","0","APRIL","10","FEBRUARY","8","0","4069",,,,,"1","2018-12-04 18:13:32","515766"
"A1WP31SA23FB8R","cs_wg_mon_freq_v1_pilot1","3Z4XG4ZF48SXCEKRKQL3L5JSCZNX8D","94","0","JULY","4","MAY","8","1","1881",,,,,"0","2018-12-04 18:13:33","515767"
"A1ZI37LKKJ7UKE","cs_wg_mon_freq_v1_pilot1","3OLQQLKKNSQDQVPTGPS2M67ZC47JEB","42","0","AUGUST","8","FEBRUARY","14","1","3121",,,,,"0","2018-12-04 18:13:33","515768"
"A1WP31SA23FB8R","cs_wg_mon_freq_v1_pilot1","3Z4XG4ZF48SXCEKRKQL3L5JSCZNX8D","95","0","FEBRUARY","2","OCTOBER","8","1","1582",,,,,"0","2018-12-04 18:13:36","515769"
"A1ZI37LKKJ7UKE","cs_wg_mon_freq_v1_pilot1","3OLQQLKKNSQDQVPTGPS2M67ZC47JEB","43","0","MARCH","6","SEPTEMBER","8","0","1532",,,,,"0","2018-12-04 18:13:37","515770"
"A2AZYU1CT24O0K","cs_wg_mon_freq_v1_pilot1","3R3YRB5GRF4JEYJBCJUUXPQJ856UAM","19","0","AUGUST","8","SEPTEMBER","14","1","3450",,,,,"1","2018-12-04 18:13:37","515771"
"A1WP31SA23FB8R","cs_wg_mon_freq_v1_pilot1","3Z4XG4ZF48SXCEKRKQL3L5JSCZNX8D","96","0","NOVEMBER","10","SEPTEMBER","8","1","1216",,,,,"0","2018-12-04 18:13:39","515772"
"A1ZI37LKKJ7UKE","cs_wg_mon_freq_v1_pilot1","3OLQQLKKNSQDQVPTGPS2M67ZC47JEB","44","0","OCTOBER","8","JULY","2","0","1631",,,,,"0","2018-12-04 18:13:42","515773"
"A2AZYU1CT24O0K","cs_wg_mon_freq_v1_pilot1","3R3YRB5GRF4JEYJBCJUUXPQJ856UAM","20","0","APRIL","10","DECEMBER","8","0","2515",,,,,"1","2018-12-04 18:13:42","515774"
"A1WP31SA23FB8R","cs_wg_mon_freq_v1_pilot1","3Z4XG4ZF48SXCEKRKQL3L5JSCZNX8D","97","0","AUGUST","14","MAY","8","0","1166",,,,,"0","2018-12-04 18:13:42","515775"
"A1WP31SA23FB8R","cs_wg_mon_freq_v1_pilot1","3Z4XG4ZF48SXCEKRKQL3L5JSCZNX8D","98","0","JANUARY","8","JULY","4","1","1684",,,,,"0","2018-12-04 18:13:46","515776"
"A2AZYU1CT24O0K","cs_wg_mon_freq_v1_pilot1","3R3YRB5GRF4JEYJBCJUUXPQJ856UAM","21","0","NOVEMBER","8","JUNE","6","0","2619",,,,,"1","2018-12-04 18:13:46","515777"
"A1ZI37LKKJ7UKE","cs_wg_mon_freq_v1_pilot1","3OLQQLKKNSQDQVPTGPS2M67ZC47JEB","45","0","JANUARY","8","JUNE","12","0","3335",,,,,"0","2018-12-04 18:13:47","515778"
"A1WP31SA23FB8R","cs_wg_mon_freq_v1_pilot1","3Z4XG4ZF48SXCEKRKQL3L5JSCZNX8D","99","0","JULY","4","MAY","8","0","682",,,,,"0","2018-12-04 18:13:48","515779"
"A1WP31SA23FB8R","cs_wg_mon_freq_v1_pilot1","3Z4XG4ZF48SXCEKRKQL3L5JSCZNX8D","100","0","MAY","8","JULY","4","1","1126",,,,,"0","2018-12-04 18:13:51","515780"
"A2AZYU1CT24O0K","cs_wg_mon_freq_v1_pilot1","3R3YRB5GRF4JEYJBCJUUXPQJ856UAM","22","0","DECEMBER","8","JULY","4","0","2728",,,,,"1","2018-12-04 18:13:51","515781"
"A1ZI37LKKJ7UKE","cs_wg_mon_freq_v1_pilot1","3OLQQLKKNSQDQVPTGPS2M67ZC47JEB","46","0","OCTOBER","8","MARCH","6","1","1990",,,,,"0","2018-12-04 18:13:52","515782"
"A1WP31SA23FB8R","cs_wg_mon_freq_v1_pilot1","3Z4XG4ZF48SXCEKRKQL3L5JSCZNX8D","101","0","AUGUST","14","APRIL","8","0","962",,,,,"0","2018-12-04 18:13:54","515783"
"A1ZI37LKKJ7UKE","cs_wg_mon_freq_v1_pilot1","3OLQQLKKNSQDQVPTGPS2M67ZC47JEB","47","0","JUNE","12","AUGUST","8","0","1456",,,,,"0","2018-12-04 18:13:55","515784"
"A2AZYU1CT24O0K","cs_wg_mon_freq_v1_pilot1","3R3YRB5GRF4JEYJBCJUUXPQJ856UAM","23","0","JULY","4","MARCH","8","1","2893",,,,,"1","2018-12-04 18:13:56","515785"
"A1WP31SA23FB8R","cs_wg_mon_freq_v1_pilot1","3Z4XG4ZF48SXCEKRKQL3L5JSCZNX8D","102","0","JUNE","8","MARCH","6","1","1895",,,,,"0","2018-12-04 18:13:58","515786"
"A1ZI37LKKJ7UKE","cs_wg_mon_freq_v1_pilot1","3OLQQLKKNSQDQVPTGPS2M67ZC47JEB","48","0","FEBRUARY","14","AUGUST","8","0","1134",,,,,"0","2018-12-04 18:13:59","515787"
"A2AZYU1CT24O0K","cs_wg_mon_freq_v1_pilot1","3R3YRB5GRF4JEYJBCJUUXPQJ856UAM","24","0","JULY","4","DECEMBER","8","1","2743",,,,,"1","2018-12-04 18:14:00","515788"
"A1WP31SA23FB8R","cs_wg_mon_freq_v1_pilot1","3Z4XG4ZF48SXCEKRKQL3L5JSCZNX8D","103","0","AUGUST","14","JUNE","8","0","1197",,,,,"0","2018-12-04 18:14:00","515789"
"A1ZI37LKKJ7UKE","cs_wg_mon_freq_v1_pilot1","3OLQQLKKNSQDQVPTGPS2M67ZC47JEB","49","0","DECEMBER","8","APRIL","10","1","1494",,,,,"0","2018-12-04 18:14:03","515790"
"A1WP31SA23FB8R","cs_wg_mon_freq_v1_pilot1","3Z4XG4ZF48SXCEKRKQL3L5JSCZNX8D","104","0","OCTOBER","8","JULY","4","0","693",,,,,"0","2018-12-04 18:14:03","515791"
"A2AZYU1CT24O0K","cs_wg_mon_freq_v1_pilot1","3R3YRB5GRF4JEYJBCJUUXPQJ856UAM","25","0","APRIL","10","FEBRUARY","8","0","2784",,,,,"1","2018-12-04 18:14:05","515792"
"A1WP31SA23FB8R","cs_wg_mon_freq_v1_pilot1","3Z4XG4ZF48SXCEKRKQL3L5JSCZNX8D","105","0","SEPTEMBER","8","DECEMBER","12","1","1382",,,,,"0","2018-12-04 18:14:06","515793"
"A1ZI37LKKJ7UKE","cs_wg_mon_freq_v1_pilot1","3OLQQLKKNSQDQVPTGPS2M67ZC47JEB","50","0","JUNE","12","NOVEMBER","8","0","1840",,,,,"0","2018-12-04 18:14:06","515794"
"A1WP31SA23FB8R","cs_wg_mon_freq_v1_pilot1","3Z4XG4ZF48SXCEKRKQL3L5JSCZNX8D","106","0","MARCH","6","JUNE","8","0","741",,,,,"0","2018-12-04 18:14:08","515795"
"A2AZYU1CT24O0K","cs_wg_mon_freq_v1_pilot1","3R3YRB5GRF4JEYJBCJUUXPQJ856UAM","26","0","OCTOBER","2","DECEMBER","8","1","2652",,,,,"1","2018-12-04 18:14:09","515796"
"A1ZI37LKKJ7UKE","cs_wg_mon_freq_v1_pilot1","3OLQQLKKNSQDQVPTGPS2M67ZC47JEB","51","0","FEBRUARY","14","OCTOBER","8","0","1386",,,,,"0","2018-12-04 18:14:10","515797"
"A1WP31SA23FB8R","cs_wg_mon_freq_v1_pilot1","3Z4XG4ZF48SXCEKRKQL3L5JSCZNX8D","107","0","MAY","8","MARCH","6","1","1084",,,,,"0","2018-12-04 18:14:11","515798"
"A1ZI37LKKJ7UKE","cs_wg_mon_freq_v1_pilot1","3OLQQLKKNSQDQVPTGPS2M67ZC47JEB","52","0","FEBRUARY","14","JANUARY","8","0","675",,,,,"0","2018-12-04 18:14:13","515799"
"A1WP31SA23FB8R","cs_wg_mon_freq_v1_pilot1","3Z4XG4ZF48SXCEKRKQL3L5JSCZNX8D","108","0","DECEMBER","12","OCTOBER","8","0","1020",,,,,"0","2018-12-04 18:14:14","515800"
"A2AZYU1CT24O0K","cs_wg_mon_freq_v1_pilot1","3R3YRB5GRF4JEYJBCJUUXPQJ856UAM","27","0","FEBRUARY","8","SEPTEMBER","14","1","3178",,,,,"1","2018-12-04 18:14:15","515801"
"A1ZI37LKKJ7UKE","cs_wg_mon_freq_v1_pilot1","3OLQQLKKNSQDQVPTGPS2M67ZC47JEB","53","0","MAY","4","SEPTEMBER","8","1","2149",,,,,"0","2018-12-04 18:14:17","515802"
"A1WP31SA23FB8R","cs_wg_mon_freq_v1_pilot1","3Z4XG4ZF48SXCEKRKQL3L5JSCZNX8D","109","0","JULY","4","APRIL","8","1","2466",,,,,"0","2018-12-04 18:14:18","515803"
"A2AZYU1CT24O0K","cs_wg_mon_freq_v1_pilot1","3R3YRB5GRF4JEYJBCJUUXPQJ856UAM","28","0","OCTOBER","2","MAY","8","1","2331",,,,,"1","2018-12-04 18:14:19","515804"
"A1ZI37LKKJ7UKE","cs_wg_mon_freq_v1_pilot1","3OLQQLKKNSQDQVPTGPS2M67ZC47JEB","54","0","OCTOBER","8","APRIL","10","0","993",,,,,"0","2018-12-04 18:14:21","515805"
"A1WP31SA23FB8R","cs_wg_mon_freq_v1_pilot1","3Z4XG4ZF48SXCEKRKQL3L5JSCZNX8D","110","0","NOVEMBER","10","JUNE","8","0","1145",,,,,"0","2018-12-04 18:14:24","515806"
"A1ZI37LKKJ7UKE","cs_wg_mon_freq_v1_pilot1","3OLQQLKKNSQDQVPTGPS2M67ZC47JEB","55","0","DECEMBER","8","MAY","4","1","1281",,,,,"0","2018-12-04 18:14:24","515807"
"A2AZYU1CT24O0K","cs_wg_mon_freq_v1_pilot1","3R3YRB5GRF4JEYJBCJUUXPQJ856UAM","29","0","FEBRUARY","8","JULY","4","0","5090",,,,,"1","2018-12-04 18:14:26","515808"
"A1ZI37LKKJ7UKE","cs_wg_mon_freq_v1_pilot1","3OLQQLKKNSQDQVPTGPS2M67ZC47JEB","56","0","NOVEMBER","8","JUNE","12","1","1877",,,,,"0","2018-12-04 18:14:29","515809"
"A1WP31SA23FB8R","cs_wg_mon_freq_v1_pilot1","3Z4XG4ZF48SXCEKRKQL3L5JSCZNX8D","111","0","FEBRUARY","2","JANUARY","8","1","2803",,,,,"0","2018-12-04 18:14:29","515810"
"A2AZYU1CT24O0K","cs_wg_mon_freq_v1_pilot1","3R3YRB5GRF4JEYJBCJUUXPQJ856UAM","30","0","MARCH","8","APRIL","10","1","2797",,,,,"1","2018-12-04 18:14:30","515811"
"A1ZI37LKKJ7UKE","cs_wg_mon_freq_v1_pilot1","3OLQQLKKNSQDQVPTGPS2M67ZC47JEB","57","0","MARCH","6","OCTOBER","8","0","1305",,,,,"0","2018-12-04 18:14:32","515812"
"A1WP31SA23FB8R","cs_wg_mon_freq_v1_pilot1","3Z4XG4ZF48SXCEKRKQL3L5JSCZNX8D","112","0","NOVEMBER","10","OCTOBER","8","0","2030",,,,,"0","2018-12-04 18:14:32","515813"
"A2AZYU1CT24O0K","cs_wg_mon_freq_v1_pilot1","3R3YRB5GRF4JEYJBCJUUXPQJ856UAM","31","0","APRIL","10","NOVEMBER","8","0","2661",,,,,"1","2018-12-04 18:14:35","515814"
"A1WP31SA23FB8R","cs_wg_mon_freq_v1_pilot1","3Z4XG4ZF48SXCEKRKQL3L5JSCZNX8D","113","0","DECEMBER","12","MAY","8","0","1332",,,,,"0","2018-12-04 18:14:36","515815"
"A1ZI37LKKJ7UKE","cs_wg_mon_freq_v1_pilot1","3OLQQLKKNSQDQVPTGPS2M67ZC47JEB","58","0","DECEMBER","8","APRIL","10","1","1230",,,,,"0","2018-12-04 18:14:37","515816"
"A2AZYU1CT24O0K","cs_wg_mon_freq_v1_pilot1","3R3YRB5GRF4JEYJBCJUUXPQJ856UAM","32","0","JULY","4","AUGUST","8","1","2371",,,,,"1","2018-12-04 18:14:39","515817"
"A1WP31SA23FB8R","cs_wg_mon_freq_v1_pilot1","3Z4XG4ZF48SXCEKRKQL3L5JSCZNX8D","114","0","JUNE","8","DECEMBER","12","1","1717",,,,,"0","2018-12-04 18:14:40","515818"
"A1ZI37LKKJ7UKE","cs_wg_mon_freq_v1_pilot1","3OLQQLKKNSQDQVPTGPS2M67ZC47JEB","59","0","AUGUST","8","MAY","4","0","1605",,,,,"0","2018-12-04 18:14:41","515819"
"A1ZI37LKKJ7UKE","cs_wg_mon_freq_v1_pilot1","3OLQQLKKNSQDQVPTGPS2M67ZC47JEB","60","0","APRIL","10","JANUARY","8","0","1179",,,,,"0","2018-12-04 18:14:45","515820"
"A2AZYU1CT24O0K","cs_wg_mon_freq_v1_pilot1","3R3YRB5GRF4JEYJBCJUUXPQJ856UAM","33","0","OCTOBER","2","NOVEMBER","8","1","3085",,,,,"1","2018-12-04 18:14:45","515821"
"A1WP31SA23FB8R","cs_wg_mon_freq_v1_pilot1","3Z4XG4ZF48SXCEKRKQL3L5JSCZNX8D","115","0","SEPTEMBER","8","NOVEMBER","10","1","3259",,,,,"0","2018-12-04 18:14:45","515822"
"A1ZI37LKKJ7UKE","cs_wg_mon_freq_v1_pilot1","3OLQQLKKNSQDQVPTGPS2M67ZC47JEB","61","0","NOVEMBER","8","JUNE","12","1","1412",,,,,"0","2018-12-04 18:14:49","515823"
"A2AZYU1CT24O0K","cs_wg_mon_freq_v1_pilot1","3R3YRB5GRF4JEYJBCJUUXPQJ856UAM","34","0","FEBRUARY","8","JUNE","6","0","2726",,,,,"1","2018-12-04 18:14:49","515824"
"A1WP31SA23FB8R","cs_wg_mon_freq_v1_pilot1","3Z4XG4ZF48SXCEKRKQL3L5JSCZNX8D","116","0","FEBRUARY","2","SEPTEMBER","8","1","2068",,,,,"0","2018-12-04 18:14:49","515825"
"A1ZI37LKKJ7UKE","cs_wg_mon_freq_v1_pilot1","3OLQQLKKNSQDQVPTGPS2M67ZC47JEB","62","0","FEBRUARY","14","JANUARY","8","0","815",,,,,"0","2018-12-04 18:14:52","515826"
"A1WP31SA23FB8R","cs_wg_mon_freq_v1_pilot1","3Z4XG4ZF48SXCEKRKQL3L5JSCZNX8D","117","0","AUGUST","14","APRIL","8","0","1060",,,,,"0","2018-12-04 18:14:52","515827"
"A2AZYU1CT24O0K","cs_wg_mon_freq_v1_pilot1","3R3YRB5GRF4JEYJBCJUUXPQJ856UAM","35","0","MAY","8","JUNE","6","0","2422",,,,,"1","2018-12-04 18:14:53","515828"
"A1WP31SA23FB8R","cs_wg_mon_freq_v1_pilot1","3Z4XG4ZF48SXCEKRKQL3L5JSCZNX8D","118","0","JANUARY","8","FEBRUARY","2","0","1417",,,,,"0","2018-12-04 18:14:56","515829"
"A1ZI37LKKJ7UKE","cs_wg_mon_freq_v1_pilot1","3OLQQLKKNSQDQVPTGPS2M67ZC47JEB","63","0","JULY","2","OCTOBER","8","1","1603",,,,,"0","2018-12-04 18:14:56","515830"
"A1WP31SA23FB8R","cs_wg_mon_freq_v1_pilot1","3Z4XG4ZF48SXCEKRKQL3L5JSCZNX8D","119","0","SEPTEMBER","8","NOVEMBER","10","1","1932",,,,,"0","2018-12-04 18:15:00","515831"
"A1ZI37LKKJ7UKE","cs_wg_mon_freq_v1_pilot1","3OLQQLKKNSQDQVPTGPS2M67ZC47JEB","64","0","DECEMBER","8","JULY","2","0","1536",,,,,"0","2018-12-04 18:15:00","515832"
"A2AZYU1CT24O0K","cs_wg_mon_freq_v1_pilot1","3R3YRB5GRF4JEYJBCJUUXPQJ856UAM","36","0","DECEMBER","8","SEPTEMBER","14","1","5622",,,,,"1","2018-12-04 18:15:02","515833"
"A1ZI37LKKJ7UKE","cs_wg_mon_freq_v1_pilot1","3OLQQLKKNSQDQVPTGPS2M67ZC47JEB","65","0","JULY","2","OCTOBER","8","1","1315",,,,,"0","2018-12-04 18:15:04","515834"
"A1ZI37LKKJ7UKE","cs_wg_mon_freq_v1_pilot1","3OLQQLKKNSQDQVPTGPS2M67ZC47JEB","66","0","FEBRUARY","14","DECEMBER","8","0","633",,,,,"0","2018-12-04 18:15:07","515835"
"A1ZI37LKKJ7UKE","cs_wg_mon_freq_v1_pilot1","3OLQQLKKNSQDQVPTGPS2M67ZC47JEB","67","0","FEBRUARY","14","SEPTEMBER","8","0","663",,,,,"0","2018-12-04 18:15:10","515836"
"A2AZYU1CT24O0K","cs_wg_mon_freq_v1_pilot1","3R3YRB5GRF4JEYJBCJUUXPQJ856UAM","37","0","OCTOBER","2","MARCH","8","1","5540",,,,,"1","2018-12-04 18:15:10","515837"
"A1ZI37LKKJ7UKE","cs_wg_mon_freq_v1_pilot1","3OLQQLKKNSQDQVPTGPS2M67ZC47JEB","68","0","MAY","4","AUGUST","8","0","1171",,,,,"0","2018-12-04 18:15:13","515838"
"A2AZYU1CT24O0K","cs_wg_mon_freq_v1_pilot1","3R3YRB5GRF4JEYJBCJUUXPQJ856UAM","38","0","SEPTEMBER","14","AUGUST","8","0","3694",,,,,"1","2018-12-04 18:15:16","515839"
"A1ZI37LKKJ7UKE","cs_wg_mon_freq_v1_pilot1","3OLQQLKKNSQDQVPTGPS2M67ZC47JEB","69","0","AUGUST","8","APRIL","10","1","1078",,,,,"0","2018-12-04 18:15:17","515840"
"A1ZI37LKKJ7UKE","cs_wg_mon_freq_v1_pilot1","3OLQQLKKNSQDQVPTGPS2M67ZC47JEB","70","0","DECEMBER","8","JUNE","12","1","1258",,,,,"0","2018-12-04 18:15:20","515841"
"A2AZYU1CT24O0K","cs_wg_mon_freq_v1_pilot1","3R3YRB5GRF4JEYJBCJUUXPQJ856UAM","39","0","JUNE","6","MAY","8","1","2891",,,,,"1","2018-12-04 18:15:20","515842"
"A1ZI37LKKJ7UKE","cs_wg_mon_freq_v1_pilot1","3OLQQLKKNSQDQVPTGPS2M67ZC47JEB","71","0","SEPTEMBER","8","MARCH","6","1","1547",,,,,"0","2018-12-04 18:15:24","515843"
"A1ZI37LKKJ7UKE","cs_wg_mon_freq_v1_pilot1","3OLQQLKKNSQDQVPTGPS2M67ZC47JEB","72","0","FEBRUARY","14","JANUARY","8","0","887",,,,,"0","2018-12-04 18:15:27","515844"
"A2AZYU1CT24O0K","cs_wg_mon_freq_v1_pilot1","3R3YRB5GRF4JEYJBCJUUXPQJ856UAM","40","0","DECEMBER","8","APRIL","10","0","5767",,,,,"0","2018-12-04 18:15:29","515845"
"A1ZI37LKKJ7UKE","cs_wg_mon_freq_v1_pilot1","3OLQQLKKNSQDQVPTGPS2M67ZC47JEB","73","0","NOVEMBER","8","FEBRUARY","14","1","1362",,,,,"0","2018-12-04 18:15:31","515846"
"A2AZYU1CT24O0K","cs_wg_mon_freq_v1_pilot1","3R3YRB5GRF4JEYJBCJUUXPQJ856UAM","41","0","OCTOBER","2","MARCH","8","0","2521",,,,,"0","2018-12-04 18:15:34","515847"
"A1ZI37LKKJ7UKE","cs_wg_mon_freq_v1_pilot1","3OLQQLKKNSQDQVPTGPS2M67ZC47JEB","74","0","AUGUST","8","MAY","4","0","2901",,,,,"0","2018-12-04 18:15:36","515848"
"A2AZYU1CT24O0K","cs_wg_mon_freq_v1_pilot1","3R3YRB5GRF4JEYJBCJUUXPQJ856UAM","42","0","JUNE","6","MAY","8","1","2963",,,,,"0","2018-12-04 18:15:38","515849"
"A1ZI37LKKJ7UKE","cs_wg_mon_freq_v1_pilot1","3OLQQLKKNSQDQVPTGPS2M67ZC47JEB","75","0","MARCH","6","AUGUST","8","0","1138",,,,,"0","2018-12-04 18:15:39","515850"
"A1ZI37LKKJ7UKE","cs_wg_mon_freq_v1_pilot1","3OLQQLKKNSQDQVPTGPS2M67ZC47JEB","76","0","FEBRUARY","14","JANUARY","8","0","652",,,,,"0","2018-12-04 18:15:42","515851"
"A2AZYU1CT24O0K","cs_wg_mon_freq_v1_pilot1","3R3YRB5GRF4JEYJBCJUUXPQJ856UAM","43","0","MARCH","8","OCTOBER","2","1","2344",,,,,"0","2018-12-04 18:15:43","515852"
"A1ZI37LKKJ7UKE","cs_wg_mon_freq_v1_pilot1","3OLQQLKKNSQDQVPTGPS2M67ZC47JEB","77","0","JUNE","12","NOVEMBER","8","0","1708",,,,,"0","2018-12-04 18:15:46","515853"
"A2AZYU1CT24O0K","cs_wg_mon_freq_v1_pilot1","3R3YRB5GRF4JEYJBCJUUXPQJ856UAM","44","0","SEPTEMBER","14","AUGUST","8","0","3327",,,,,"0","2018-12-04 18:15:48","515854"
"A1ZI37LKKJ7UKE","cs_wg_mon_freq_v1_pilot1","3OLQQLKKNSQDQVPTGPS2M67ZC47JEB","78","0","NOVEMBER","8","APRIL","10","1","1776",,,,,"0","2018-12-04 18:15:50","515855"
"A1ZI37LKKJ7UKE","cs_wg_mon_freq_v1_pilot1","3OLQQLKKNSQDQVPTGPS2M67ZC47JEB","79","0","JANUARY","8","FEBRUARY","14","1","1368",,,,,"0","2018-12-04 18:15:54","515856"
"A2AZYU1CT24O0K","cs_wg_mon_freq_v1_pilot1","3R3YRB5GRF4JEYJBCJUUXPQJ856UAM","45","0","JUNE","6","MAY","8","1","3430",,,,,"0","2018-12-04 18:15:54","515857"
"A1ZI37LKKJ7UKE","cs_wg_mon_freq_v1_pilot1","3OLQQLKKNSQDQVPTGPS2M67ZC47JEB","80","0","MARCH","6","DECEMBER","8","0","988",,,,,"0","2018-12-04 18:15:57","515858"
"A2AZYU1CT24O0K","cs_wg_mon_freq_v1_pilot1","3R3YRB5GRF4JEYJBCJUUXPQJ856UAM","46","0","JULY","4","NOVEMBER","8","1","2214",,,,,"0","2018-12-04 18:15:58","515859"
"A1ZI37LKKJ7UKE","cs_wg_mon_freq_v1_pilot1","3OLQQLKKNSQDQVPTGPS2M67ZC47JEB","81","0","MAY","4","AUGUST","8","0","1233",,,,,"0","2018-12-04 18:16:00","515860"
"A1ZI37LKKJ7UKE","cs_wg_mon_freq_v1_pilot1","3OLQQLKKNSQDQVPTGPS2M67ZC47JEB","82","0","MARCH","6","JANUARY","8","1","1045",,,,,"0","2018-12-04 18:16:03","515861"
"A2AZYU1CT24O0K","cs_wg_mon_freq_v1_pilot1","3R3YRB5GRF4JEYJBCJUUXPQJ856UAM","47","0","SEPTEMBER","14","DECEMBER","8","1","3547",,,,,"0","2018-12-04 18:16:03","515862"
"A1ZI37LKKJ7UKE","cs_wg_mon_freq_v1_pilot1","3OLQQLKKNSQDQVPTGPS2M67ZC47JEB","83","0","MARCH","6","SEPTEMBER","8","1","2523",,,,,"0","2018-12-04 18:16:08","515863"
"A2AZYU1CT24O0K","cs_wg_mon_freq_v1_pilot1","3R3YRB5GRF4JEYJBCJUUXPQJ856UAM","48","0","NOVEMBER","8","JANUARY","12","1","3233",,,,,"0","2018-12-04 18:16:09","515864"
"A1ZI37LKKJ7UKE","cs_wg_mon_freq_v1_pilot1","3OLQQLKKNSQDQVPTGPS2M67ZC47JEB","84","0","NOVEMBER","8","MAY","4","0","943",,,,,"0","2018-12-04 18:16:11","515865"
"A2AZYU1CT24O0K","cs_wg_mon_freq_v1_pilot1","3R3YRB5GRF4JEYJBCJUUXPQJ856UAM","49","0","OCTOBER","2","MARCH","8","1","3334",,,,,"0","2018-12-04 18:16:14","515866"
"A1ZI37LKKJ7UKE","cs_wg_mon_freq_v1_pilot1","3OLQQLKKNSQDQVPTGPS2M67ZC47JEB","85","0","AUGUST","8","MAY","4","0","1179",,,,,"0","2018-12-04 18:16:15","515867"
"A1ZI37LKKJ7UKE","cs_wg_mon_freq_v1_pilot1","3OLQQLKKNSQDQVPTGPS2M67ZC47JEB","86","0","SEPTEMBER","8","FEBRUARY","14","1","1010",,,,,"0","2018-12-04 18:16:18","515868"
"A2AZYU1CT24O0K","cs_wg_mon_freq_v1_pilot1","3R3YRB5GRF4JEYJBCJUUXPQJ856UAM","50","0","SEPTEMBER","14","AUGUST","8","0","3524",,,,,"0","2018-12-04 18:16:19","515869"
"A1ZI37LKKJ7UKE","cs_wg_mon_freq_v1_pilot1","3OLQQLKKNSQDQVPTGPS2M67ZC47JEB","87","0","JANUARY","8","FEBRUARY","14","1","1204",,,,,"0","2018-12-04 18:16:21","515870"
"A2AZYU1CT24O0K","cs_wg_mon_freq_v1_pilot1","3R3YRB5GRF4JEYJBCJUUXPQJ856UAM","51","0","SEPTEMBER","14","AUGUST","8","0","1714",,,,,"0","2018-12-04 18:16:23","515871"
"A1ZI37LKKJ7UKE","cs_wg_mon_freq_v1_pilot1","3OLQQLKKNSQDQVPTGPS2M67ZC47JEB","88","0","NOVEMBER","8","JUNE","12","0","891",,,,,"0","2018-12-04 18:16:24","515872"
"A2AZYU1CT24O0K","cs_wg_mon_freq_v1_pilot1","3R3YRB5GRF4JEYJBCJUUXPQJ856UAM","52","0","MAY","8","JUNE","6","0","2280",,,,,"0","2018-12-04 18:16:27","515873"
"A1ZI37LKKJ7UKE","cs_wg_mon_freq_v1_pilot1","3OLQQLKKNSQDQVPTGPS2M67ZC47JEB","89","0","SEPTEMBER","8","JUNE","12","1","972",,,,,"0","2018-12-04 18:16:27","515874"
"A1ZI37LKKJ7UKE","cs_wg_mon_freq_v1_pilot1","3OLQQLKKNSQDQVPTGPS2M67ZC47JEB","90","0","SEPTEMBER","8","MAY","4","0","1159",,,,,"0","2018-12-04 18:16:31","515875"
"A2AZYU1CT24O0K","cs_wg_mon_freq_v1_pilot1","3R3YRB5GRF4JEYJBCJUUXPQJ856UAM","53","0","MARCH","8","OCTOBER","2","1","3485",,,,,"0","2018-12-04 18:16:33","515876"
"A1ZI37LKKJ7UKE","cs_wg_mon_freq_v1_pilot1","3OLQQLKKNSQDQVPTGPS2M67ZC47JEB","91","0","JULY","2","JANUARY","8","1","1115",,,,,"0","2018-12-04 18:16:34","515877"
"A2AZYU1CT24O0K","cs_wg_mon_freq_v1_pilot1","3R3YRB5GRF4JEYJBCJUUXPQJ856UAM","54","0","APRIL","10","MAY","8","0","1730",,,,,"0","2018-12-04 18:16:37","515878"
"A1ZI37LKKJ7UKE","cs_wg_mon_freq_v1_pilot1","3OLQQLKKNSQDQVPTGPS2M67ZC47JEB","92","0","FEBRUARY","14","JANUARY","8","0","682",,,,,"0","2018-12-04 18:16:37","515879"
"A2AZYU1CT24O0K","cs_wg_mon_freq_v1_pilot1","3R3YRB5GRF4JEYJBCJUUXPQJ856UAM","55","0","SEPTEMBER","14","AUGUST","8","0","2021",,,,,"0","2018-12-04 18:16:41","515880"
"A1ZI37LKKJ7UKE","cs_wg_mon_freq_v1_pilot1","3OLQQLKKNSQDQVPTGPS2M67ZC47JEB","93","0","NOVEMBER","8","JUNE","12","1","3195",,,,,"0","2018-12-04 18:16:43","515881"
"A1ZI37LKKJ7UKE","cs_wg_mon_freq_v1_pilot1","3OLQQLKKNSQDQVPTGPS2M67ZC47JEB","94","0","MAY","4","AUGUST","8","0","1018",,,,,"0","2018-12-04 18:16:45","515882"
"A2AZYU1CT24O0K","cs_wg_mon_freq_v1_pilot1","3R3YRB5GRF4JEYJBCJUUXPQJ856UAM","56","0","JULY","4","DECEMBER","8","0","3037",,,,,"0","2018-12-04 18:16:46","515883"
"A2AZYU1CT24O0K","cs_wg_mon_freq_v1_pilot1","3R3YRB5GRF4JEYJBCJUUXPQJ856UAM","57","0","NOVEMBER","8","JULY","4","0","1275",,,,,"0","2018-12-04 18:16:49","515884"
"A1ZI37LKKJ7UKE","cs_wg_mon_freq_v1_pilot1","3OLQQLKKNSQDQVPTGPS2M67ZC47JEB","95","0","OCTOBER","8","JULY","2","0","1492",,,,,"0","2018-12-04 18:16:49","515885"
"A2AZYU1CT24O0K","cs_wg_mon_freq_v1_pilot1","3R3YRB5GRF4JEYJBCJUUXPQJ856UAM","58","0","FEBRUARY","8","OCTOBER","2","0","2002",,,,,"0","2018-12-04 18:16:53","515886"
"A1ZI37LKKJ7UKE","cs_wg_mon_freq_v1_pilot1","3OLQQLKKNSQDQVPTGPS2M67ZC47JEB","96","0","NOVEMBER","8","MARCH","6","1","2278",,,,,"0","2018-12-04 18:16:54","515887"
"A1ZI37LKKJ7UKE","cs_wg_mon_freq_v1_pilot1","3OLQQLKKNSQDQVPTGPS2M67ZC47JEB","97","0","MAY","4","JANUARY","8","1","952",,,,,"0","2018-12-04 18:16:57","515888"
"A2AZYU1CT24O0K","cs_wg_mon_freq_v1_pilot1","3R3YRB5GRF4JEYJBCJUUXPQJ856UAM","59","0","MARCH","8","JULY","4","0","3499",,,,,"0","2018-12-04 18:16:58","515889"
"A1ZI37LKKJ7UKE","cs_wg_mon_freq_v1_pilot1","3OLQQLKKNSQDQVPTGPS2M67ZC47JEB","98","0","MARCH","6","SEPTEMBER","8","1","1798",,,,,"0","2018-12-04 18:17:01","515890"
"A2AZYU1CT24O0K","cs_wg_mon_freq_v1_pilot1","3R3YRB5GRF4JEYJBCJUUXPQJ856UAM","60","0","AUGUST","8","SEPTEMBER","14","1","2524",,,,,"0","2018-12-04 18:17:03","515891"
"A1ZI37LKKJ7UKE","cs_wg_mon_freq_v1_pilot1","3OLQQLKKNSQDQVPTGPS2M67ZC47JEB","99","0","JULY","2","DECEMBER","8","1","1751",,,,,"0","2018-12-04 18:17:05","515892"
"A1ZI37LKKJ7UKE","cs_wg_mon_freq_v1_pilot1","3OLQQLKKNSQDQVPTGPS2M67ZC47JEB","100","0","MARCH","6","NOVEMBER","8","0","814",,,,,"0","2018-12-04 18:17:08","515893"
"A2AZYU1CT24O0K","cs_wg_mon_freq_v1_pilot1","3R3YRB5GRF4JEYJBCJUUXPQJ856UAM","61","0","JANUARY","12","MARCH","8","1","3247",,,,,"0","2018-12-04 18:17:08","515894"
"A1ZI37LKKJ7UKE","cs_wg_mon_freq_v1_pilot1","3OLQQLKKNSQDQVPTGPS2M67ZC47JEB","101","0","JUNE","12","OCTOBER","8","1","830",,,,,"0","2018-12-04 18:17:11","515895"
"A2AZYU1CT24O0K","cs_wg_mon_freq_v1_pilot1","3R3YRB5GRF4JEYJBCJUUXPQJ856UAM","62","0","MARCH","8","JANUARY","12","0","3898",,,,,"0","2018-12-04 18:17:14","515896"
"A1ZI37LKKJ7UKE","cs_wg_mon_freq_v1_pilot1","3OLQQLKKNSQDQVPTGPS2M67ZC47JEB","102","0","AUGUST","8","JULY","2","0","2353",,,,,"0","2018-12-04 18:17:16","515897"
"A1ZI37LKKJ7UKE","cs_wg_mon_freq_v1_pilot1","3OLQQLKKNSQDQVPTGPS2M67ZC47JEB","103","0","APRIL","10","DECEMBER","8","0","1499",,,,,"0","2018-12-04 18:17:20","515898"
"A2AZYU1CT24O0K","cs_wg_mon_freq_v1_pilot1","3R3YRB5GRF4JEYJBCJUUXPQJ856UAM","63","0","NOVEMBER","8","JANUARY","12","1","6702",,,,,"0","2018-12-04 18:17:23","515899"
"A1ZI37LKKJ7UKE","cs_wg_mon_freq_v1_pilot1","3OLQQLKKNSQDQVPTGPS2M67ZC47JEB","104","0","JANUARY","8","MARCH","6","0","908",,,,,"0","2018-12-04 18:17:23","515900"
"A2AZYU1CT24O0K","cs_wg_mon_freq_v1_pilot1","3R3YRB5GRF4JEYJBCJUUXPQJ856UAM","64","0","DECEMBER","8","JANUARY","12","1","2499",,,,,"0","2018-12-04 18:17:27","515901"
"A1ZI37LKKJ7UKE","cs_wg_mon_freq_v1_pilot1","3OLQQLKKNSQDQVPTGPS2M67ZC47JEB","105","0","MAY","4","AUGUST","8","1","3099",,,,,"0","2018-12-04 18:17:28","515902"
"A1ZI37LKKJ7UKE","cs_wg_mon_freq_v1_pilot1","3OLQQLKKNSQDQVPTGPS2M67ZC47JEB","106","0","JUNE","12","JANUARY","8","1","811",,,,,"0","2018-12-04 18:17:31","515903"
"A2AZYU1CT24O0K","cs_wg_mon_freq_v1_pilot1","3R3YRB5GRF4JEYJBCJUUXPQJ856UAM","65","0","JULY","4","MAY","8","1","2137",,,,,"0","2018-12-04 18:17:31","515904"
"A1ZI37LKKJ7UKE","cs_wg_mon_freq_v1_pilot1","3OLQQLKKNSQDQVPTGPS2M67ZC47JEB","107","0","MARCH","6","SEPTEMBER","8","1","1416",,,,,"0","2018-12-04 18:17:35","515905"
"A2AZYU1CT24O0K","cs_wg_mon_freq_v1_pilot1","3R3YRB5GRF4JEYJBCJUUXPQJ856UAM","66","0","OCTOBER","2","MARCH","8","1","2035",,,,,"0","2018-12-04 18:17:35","515906"
"A1ZI37LKKJ7UKE","cs_wg_mon_freq_v1_pilot1","3OLQQLKKNSQDQVPTGPS2M67ZC47JEB","108","0","JULY","2","AUGUST","8","1","1436",,,,,"0","2018-12-04 18:17:38","515907"
"A2AZYU1CT24O0K","cs_wg_mon_freq_v1_pilot1","3R3YRB5GRF4JEYJBCJUUXPQJ856UAM","67","0","AUGUST","8","SEPTEMBER","14","1","2249",,,,,"0","2018-12-04 18:17:40","515908"
"A1ZI37LKKJ7UKE","cs_wg_mon_freq_v1_pilot1","3OLQQLKKNSQDQVPTGPS2M67ZC47JEB","109","0","SEPTEMBER","8","APRIL","10","0","624",,,,,"0","2018-12-04 18:17:41","515909"
"A2AZYU1CT24O0K","cs_wg_mon_freq_v1_pilot1","3R3YRB5GRF4JEYJBCJUUXPQJ856UAM","68","0","JULY","4","DECEMBER","8","1","1830",,,,,"0","2018-12-04 18:17:43","515910"
"A1ZI37LKKJ7UKE","cs_wg_mon_freq_v1_pilot1","3OLQQLKKNSQDQVPTGPS2M67ZC47JEB","110","0","JULY","2","SEPTEMBER","8","1","1252",,,,,"0","2018-12-04 18:17:44","515911"
"A2AZYU1CT24O0K","cs_wg_mon_freq_v1_pilot1","3R3YRB5GRF4JEYJBCJUUXPQJ856UAM","69","0","DECEMBER","8","JULY","4","0","1944",,,,,"0","2018-12-04 18:17:47","515912"
"A1ZI37LKKJ7UKE","cs_wg_mon_freq_v1_pilot1","3OLQQLKKNSQDQVPTGPS2M67ZC47JEB","111","0","SEPTEMBER","8","JULY","2","0","2161",,,,,"0","2018-12-04 18:17:49","515913"
"A1ZI37LKKJ7UKE","cs_wg_mon_freq_v1_pilot1","3OLQQLKKNSQDQVPTGPS2M67ZC47JEB","112","0","MARCH","6","SEPTEMBER","8","0","1114",,,,,"0","2018-12-04 18:17:52","515914"
"A2AZYU1CT24O0K","cs_wg_mon_freq_v1_pilot1","3R3YRB5GRF4JEYJBCJUUXPQJ856UAM","70","0","NOVEMBER","8","SEPTEMBER","14","1","4979",,,,,"0","2018-12-04 18:17:54","515915"
"A1ZI37LKKJ7UKE","cs_wg_mon_freq_v1_pilot1","3OLQQLKKNSQDQVPTGPS2M67ZC47JEB","113","0","MAY","4","DECEMBER","8","1","1785",,,,,"0","2018-12-04 18:17:56","515916"
"A1ZI37LKKJ7UKE","cs_wg_mon_freq_v1_pilot1","3OLQQLKKNSQDQVPTGPS2M67ZC47JEB","114","0","JANUARY","8","FEBRUARY","14","1","1070",,,,,"0","2018-12-04 18:17:59","515917"
"A2AZYU1CT24O0K","cs_wg_mon_freq_v1_pilot1","3R3YRB5GRF4JEYJBCJUUXPQJ856UAM","71","0","APRIL","10","MARCH","8","0","4697",,,,,"0","2018-12-04 18:18:01","515918"
"A1ZI37LKKJ7UKE","cs_wg_mon_freq_v1_pilot1","3OLQQLKKNSQDQVPTGPS2M67ZC47JEB","115","0","APRIL","10","DECEMBER","8","0","1058",,,,,"0","2018-12-04 18:18:02","515919"
"A2AZYU1CT24O0K","cs_wg_mon_freq_v1_pilot1","3R3YRB5GRF4JEYJBCJUUXPQJ856UAM","72","0","NOVEMBER","8","JANUARY","12","1","1848",,,,,"0","2018-12-04 18:18:04","515920"
"A1ZI37LKKJ7UKE","cs_wg_mon_freq_v1_pilot1","3OLQQLKKNSQDQVPTGPS2M67ZC47JEB","116","0","JUNE","12","SEPTEMBER","8","0","1977",,,,,"0","2018-12-04 18:18:07","515921"
"A2AZYU1CT24O0K","cs_wg_mon_freq_v1_pilot1","3R3YRB5GRF4JEYJBCJUUXPQJ856UAM","73","0","JANUARY","12","FEBRUARY","8","1","3913",,,,,"0","2018-12-04 18:18:10","515922"
"A1ZI37LKKJ7UKE","cs_wg_mon_freq_v1_pilot1","3OLQQLKKNSQDQVPTGPS2M67ZC47JEB","117","0","JANUARY","8","FEBRUARY","14","1","1073",,,,,"0","2018-12-04 18:18:10","515923"
"A1ZI37LKKJ7UKE","cs_wg_mon_freq_v1_pilot1","3OLQQLKKNSQDQVPTGPS2M67ZC47JEB","118","0","APRIL","10","DECEMBER","8","0","875",,,,,"0","2018-12-04 18:18:13","515924"
"A2AZYU1CT24O0K","cs_wg_mon_freq_v1_pilot1","3R3YRB5GRF4JEYJBCJUUXPQJ856UAM","74","0","JANUARY","12","NOVEMBER","8","0","3351",,,,,"0","2018-12-04 18:18:15","515925"
"A1ZI37LKKJ7UKE","cs_wg_mon_freq_v1_pilot1","3OLQQLKKNSQDQVPTGPS2M67ZC47JEB","119","0","SEPTEMBER","8","MARCH","6","0","2444",,,,,"0","2018-12-04 18:18:18","515926"
"A2AZYU1CT24O0K","cs_wg_mon_freq_v1_pilot1","3R3YRB5GRF4JEYJBCJUUXPQJ856UAM","75","0","DECEMBER","8","OCTOBER","2","0","4488",,,,,"0","2018-12-04 18:18:22","515927"
"A2AZYU1CT24O0K","cs_wg_mon_freq_v1_pilot1","3R3YRB5GRF4JEYJBCJUUXPQJ856UAM","76","0","OCTOBER","2","FEBRUARY","8","1","2595",,,,,"0","2018-12-04 18:18:26","515928"
"A2AZYU1CT24O0K","cs_wg_mon_freq_v1_pilot1","3R3YRB5GRF4JEYJBCJUUXPQJ856UAM","77","0","SEPTEMBER","14","NOVEMBER","8","0","2449",,,,,"0","2018-12-04 18:18:31","515929"
"A2AZYU1CT24O0K","cs_wg_mon_freq_v1_pilot1","3R3YRB5GRF4JEYJBCJUUXPQJ856UAM","78","0","DECEMBER","8","JUNE","6","0","1964",,,,,"0","2018-12-04 18:18:34","515930"
"A2AZYU1CT24O0K","cs_wg_mon_freq_v1_pilot1","3R3YRB5GRF4JEYJBCJUUXPQJ856UAM","79","0","MAY","8","OCTOBER","2","1","4311",,,,,"0","2018-12-04 18:18:41","515931"
"A2AZYU1CT24O0K","cs_wg_mon_freq_v1_pilot1","3R3YRB5GRF4JEYJBCJUUXPQJ856UAM","80","0","JANUARY","12","NOVEMBER","8","0","2654",,,,,"0","2018-12-04 18:18:45","515932"
"A2AZYU1CT24O0K","cs_wg_mon_freq_v1_pilot1","3R3YRB5GRF4JEYJBCJUUXPQJ856UAM","81","0","APRIL","10","FEBRUARY","8","1","3427",,,,,"0","2018-12-04 18:18:50","515933"
"A2AZYU1CT24O0K","cs_wg_mon_freq_v1_pilot1","3R3YRB5GRF4JEYJBCJUUXPQJ856UAM","82","0","APRIL","10","FEBRUARY","8","0","1340",,,,,"0","2018-12-04 18:18:53","515934"
"A2AZYU1CT24O0K","cs_wg_mon_freq_v1_pilot1","3R3YRB5GRF4JEYJBCJUUXPQJ856UAM","83","0","OCTOBER","2","MARCH","8","0","2295",,,,,"0","2018-12-04 18:18:57","515935"
"A2AZYU1CT24O0K","cs_wg_mon_freq_v1_pilot1","3R3YRB5GRF4JEYJBCJUUXPQJ856UAM","84","0","MAY","8","JUNE","6","0","2043",,,,,"0","2018-12-04 18:19:01","515936"
"A2AZYU1CT24O0K","cs_wg_mon_freq_v1_pilot1","3R3YRB5GRF4JEYJBCJUUXPQJ856UAM","85","0","APRIL","10","AUGUST","8","0","1706",,,,,"0","2018-12-04 18:19:04","515937"
"A2AZYU1CT24O0K","cs_wg_mon_freq_v1_pilot1","3R3YRB5GRF4JEYJBCJUUXPQJ856UAM","86","0","MAY","8","SEPTEMBER","14","1","1836",,,,,"0","2018-12-04 18:19:08","515938"
"A1KRTG6IWJ2JVC","cs_wg_mon_freq_v1_pilot1","3HYA4D452RK5QDRH4F6G576IMU02FP","0","0","MARCH","12","OCTOBER","8","0","6608",,,,,"0","2018-12-04 18:19:10","515939"
"A2AZYU1CT24O0K","cs_wg_mon_freq_v1_pilot1","3R3YRB5GRF4JEYJBCJUUXPQJ856UAM","87","0","JUNE","6","DECEMBER","8","1","2565",,,,,"0","2018-12-04 18:19:12","515940"
"A2AZYU1CT24O0K","cs_wg_mon_freq_v1_pilot1","3R3YRB5GRF4JEYJBCJUUXPQJ856UAM","88","0","MAY","8","JUNE","6","0","2323",,,,,"0","2018-12-04 18:19:16","515941"
"A1KRTG6IWJ2JVC","cs_wg_mon_freq_v1_pilot1","3HYA4D452RK5QDRH4F6G576IMU02FP","1","0","AUGUST","2","DECEMBER","8","1","2902",,,,,"0","2018-12-04 18:19:17","515942"
"A2AZYU1CT24O0K","cs_wg_mon_freq_v1_pilot1","3R3YRB5GRF4JEYJBCJUUXPQJ856UAM","89","0","JUNE","6","FEBRUARY","8","1","1918",,,,,"0","2018-12-04 18:19:20","515943"
"A2AZYU1CT24O0K","cs_wg_mon_freq_v1_pilot1","3R3YRB5GRF4JEYJBCJUUXPQJ856UAM","90","0","MARCH","8","OCTOBER","2","0","1953",,,,,"0","2018-12-04 18:19:23","515944"
"A1KRTG6IWJ2JVC","cs_wg_mon_freq_v1_pilot1","3HYA4D452RK5QDRH4F6G576IMU02FP","2","0","NOVEMBER","8","MAY","10","0","2739",,,,,"0","2018-12-04 18:19:26","515945"
"A2AZYU1CT24O0K","cs_wg_mon_freq_v1_pilot1","3R3YRB5GRF4JEYJBCJUUXPQJ856UAM","91","0","JUNE","6","MAY","8","1","2591",,,,,"0","2018-12-04 18:19:28","515946"
"A1KRTG6IWJ2JVC","cs_wg_mon_freq_v1_pilot1","3HYA4D452RK5QDRH4F6G576IMU02FP","3","0","FEBRUARY","8","JANUARY","14","0","2650",,,,,"0","2018-12-04 18:19:31","515947"
"A2AZYU1CT24O0K","cs_wg_mon_freq_v1_pilot1","3R3YRB5GRF4JEYJBCJUUXPQJ856UAM","92","0","DECEMBER","8","JULY","4","0","1929",,,,,"0","2018-12-04 18:19:31","515948"
"A1KRTG6IWJ2JVC","cs_wg_mon_freq_v1_pilot1","3HYA4D452RK5QDRH4F6G576IMU02FP","4","0","JULY","8","JANUARY","14","0","2013",,,,,"0","2018-12-04 18:19:35","515949"
"A2AZYU1CT24O0K","cs_wg_mon_freq_v1_pilot1","3R3YRB5GRF4JEYJBCJUUXPQJ856UAM","93","0","SEPTEMBER","14","FEBRUARY","8","0","3254",,,,,"0","2018-12-04 18:19:36","515950"
"A1KRTG6IWJ2JVC","cs_wg_mon_freq_v1_pilot1","3HYA4D452RK5QDRH4F6G576IMU02FP","5","0","MARCH","12","OCTOBER","8","0","2659",,,,,"0","2018-12-04 18:19:40","515951"
"A2AZYU1CT24O0K","cs_wg_mon_freq_v1_pilot1","3R3YRB5GRF4JEYJBCJUUXPQJ856UAM","94","0","AUGUST","8","OCTOBER","2","1","2475",,,,,"0","2018-12-04 18:19:40","515952"
"A2AZYU1CT24O0K","cs_wg_mon_freq_v1_pilot1","3R3YRB5GRF4JEYJBCJUUXPQJ856UAM","95","0","SEPTEMBER","14","MAY","8","0","1636",,,,,"0","2018-12-04 18:19:44","515953"
"A1KRTG6IWJ2JVC","cs_wg_mon_freq_v1_pilot1","3HYA4D452RK5QDRH4F6G576IMU02FP","6","0","DECEMBER","8","SEPTEMBER","4","1","1883",,,,,"0","2018-12-04 18:19:45","515954"
"A1KRTG6IWJ2JVC","cs_wg_mon_freq_v1_pilot1","3HYA4D452RK5QDRH4F6G576IMU02FP","7","0","JUNE","8","JANUARY","14","0","1432",,,,,"0","2018-12-04 18:19:49","515955"
"A2AZYU1CT24O0K","cs_wg_mon_freq_v1_pilot1","3R3YRB5GRF4JEYJBCJUUXPQJ856UAM","96","0","JUNE","6","AUGUST","8","1","3271",,,,,"0","2018-12-04 18:19:49","515956"
"A2AZYU1CT24O0K","cs_wg_mon_freq_v1_pilot1","3R3YRB5GRF4JEYJBCJUUXPQJ856UAM","97","0","MAY","8","JULY","4","0","1467",,,,,"0","2018-12-04 18:19:52","515957"
"A1KRTG6IWJ2JVC","cs_wg_mon_freq_v1_pilot1","3HYA4D452RK5QDRH4F6G576IMU02FP","8","0","DECEMBER","8","AUGUST","2","0","2158",,,,,"0","2018-12-04 18:19:53","515958"
"A2AZYU1CT24O0K","cs_wg_mon_freq_v1_pilot1","3R3YRB5GRF4JEYJBCJUUXPQJ856UAM","98","0","AUGUST","8","APRIL","10","1","2595",,,,,"0","2018-12-04 18:19:56","515959"
"A1KRTG6IWJ2JVC","cs_wg_mon_freq_v1_pilot1","3HYA4D452RK5QDRH4F6G576IMU02FP","9","0","SEPTEMBER","4","DECEMBER","8","0","1355",,,,,"0","2018-12-04 18:19:57","515960"
"A1KRTG6IWJ2JVC","cs_wg_mon_freq_v1_pilot1","3HYA4D452RK5QDRH4F6G576IMU02FP","10","0","OCTOBER","8","MAY","10","0","914",,,,,"0","2018-12-04 18:19:59","515961"
"A2AZYU1CT24O0K","cs_wg_mon_freq_v1_pilot1","3R3YRB5GRF4JEYJBCJUUXPQJ856UAM","99","0","AUGUST","8","SEPTEMBER","14","1","1977",,,,,"0","2018-12-04 18:20:00","515962"
"A1KRTG6IWJ2JVC","cs_wg_mon_freq_v1_pilot1","3HYA4D452RK5QDRH4F6G576IMU02FP","11","0","FEBRUARY","8","SEPTEMBER","4","1","1920",,,,,"0","2018-12-04 18:20:04","515963"
"A2AZYU1CT24O0K","cs_wg_mon_freq_v1_pilot1","3R3YRB5GRF4JEYJBCJUUXPQJ856UAM","100","0","MARCH","8","OCTOBER","2","0","3074",,,,,"0","2018-12-04 18:20:05","515964"
"A1KRTG6IWJ2JVC","cs_wg_mon_freq_v1_pilot1","3HYA4D452RK5QDRH4F6G576IMU02FP","12","0","MAY","10","JULY","8","0","1362",,,,,"0","2018-12-04 18:20:08","515965"
"A2AZYU1CT24O0K","cs_wg_mon_freq_v1_pilot1","3R3YRB5GRF4JEYJBCJUUXPQJ856UAM","101","0","AUGUST","8","JUNE","6","0","1803",,,,,"0","2018-12-04 18:20:09","515966"
"A1KRTG6IWJ2JVC","cs_wg_mon_freq_v1_pilot1","3HYA4D452RK5QDRH4F6G576IMU02FP","13","0","MARCH","12","FEBRUARY","8","0","899",,,,,"0","2018-12-04 18:20:11","515967"
"A2AZYU1CT24O0K","cs_wg_mon_freq_v1_pilot1","3R3YRB5GRF4JEYJBCJUUXPQJ856UAM","102","0","MAY","8","JUNE","6","0","1352",,,,,"0","2018-12-04 18:20:11","515968"
"A1KRTG6IWJ2JVC","cs_wg_mon_freq_v1_pilot1","3HYA4D452RK5QDRH4F6G576IMU02FP","14","0","MAY","10","JUNE","8","0","1052",,,,,"0","2018-12-04 18:20:16","515969"
"A2AZYU1CT24O0K","cs_wg_mon_freq_v1_pilot1","3R3YRB5GRF4JEYJBCJUUXPQJ856UAM","103","0","JANUARY","12","NOVEMBER","8","0","3231",,,,,"0","2018-12-04 18:20:17","515970"
"A1KRTG6IWJ2JVC","cs_wg_mon_freq_v1_pilot1","3HYA4D452RK5QDRH4F6G576IMU02FP","15","0","DECEMBER","8","SEPTEMBER","4","1","1951",,,,,"0","2018-12-04 18:20:20","515971"
"A2AZYU1CT24O0K","cs_wg_mon_freq_v1_pilot1","3R3YRB5GRF4JEYJBCJUUXPQJ856UAM","104","0","JANUARY","12","DECEMBER","8","0","2986",,,,,"0","2018-12-04 18:20:21","515972"
"A2AZYU1CT24O0K","cs_wg_mon_freq_v1_pilot1","3R3YRB5GRF4JEYJBCJUUXPQJ856UAM","105","0","JULY","4","DECEMBER","8","1","2051",,,,,"0","2018-12-04 18:20:25","515973"
"A1KRTG6IWJ2JVC","cs_wg_mon_freq_v1_pilot1","3HYA4D452RK5QDRH4F6G576IMU02FP","16","0","FEBRUARY","8","AUGUST","2","0","3252",,,,,"0","2018-12-04 18:20:26","515974"
"A1KRTG6IWJ2JVC","cs_wg_mon_freq_v1_pilot1","3HYA4D452RK5QDRH4F6G576IMU02FP","17","0","NOVEMBER","8","MAY","10","0","996",,,,,"0","2018-12-04 18:20:29","515975"
"A2AZYU1CT24O0K","cs_wg_mon_freq_v1_pilot1","3R3YRB5GRF4JEYJBCJUUXPQJ856UAM","106","0","FEBRUARY","8","APRIL","10","0","1999",,,,,"0","2018-12-04 18:20:29","515976"
"A1KRTG6IWJ2JVC","cs_wg_mon_freq_v1_pilot1","3HYA4D452RK5QDRH4F6G576IMU02FP","18","0","NOVEMBER","8","MARCH","12","0","729",,,,,"0","2018-12-04 18:20:31","515977"
"A2AZYU1CT24O0K","cs_wg_mon_freq_v1_pilot1","3R3YRB5GRF4JEYJBCJUUXPQJ856UAM","107","0","MARCH","8","JUNE","6","0","1479",,,,,"0","2018-12-04 18:20:32","515978"
"A1KRTG6IWJ2JVC","cs_wg_mon_freq_v1_pilot1","3HYA4D452RK5QDRH4F6G576IMU02FP","19","0","JUNE","8","AUGUST","2","0","899",,,,,"0","2018-12-04 18:20:35","515979"
"A2AZYU1CT24O0K","cs_wg_mon_freq_v1_pilot1","3R3YRB5GRF4JEYJBCJUUXPQJ856UAM","108","0","DECEMBER","8","JULY","4","0","1228",,,,,"0","2018-12-04 18:20:35","515980"
"A1KRTG6IWJ2JVC","cs_wg_mon_freq_v1_pilot1","3HYA4D452RK5QDRH4F6G576IMU02FP","20","0","OCTOBER","8","JANUARY","14","0","1115",,,,,"0","2018-12-04 18:20:39","515981"
"A2AZYU1CT24O0K","cs_wg_mon_freq_v1_pilot1","3R3YRB5GRF4JEYJBCJUUXPQJ856UAM","109","0","FEBRUARY","8","APRIL","10","1","2201",,,,,"0","2018-12-04 18:20:39","515982"
"A1KRTG6IWJ2JVC","cs_wg_mon_freq_v1_pilot1","3HYA4D452RK5QDRH4F6G576IMU02FP","21","0","JUNE","8","APRIL","6","0","931",,,,,"0","2018-12-04 18:20:41","515983"
"A2AZYU1CT24O0K","cs_wg_mon_freq_v1_pilot1","3R3YRB5GRF4JEYJBCJUUXPQJ856UAM","110","0","JANUARY","12","AUGUST","8","0","2749",,,,,"0","2018-12-04 18:20:44","515984"
"A1KRTG6IWJ2JVC","cs_wg_mon_freq_v1_pilot1","3HYA4D452RK5QDRH4F6G576IMU02FP","22","0","DECEMBER","8","SEPTEMBER","4","1","2170",,,,,"0","2018-12-04 18:20:45","515985"
"A2AZYU1CT24O0K","cs_wg_mon_freq_v1_pilot1","3R3YRB5GRF4JEYJBCJUUXPQJ856UAM","111","0","AUGUST","8","SEPTEMBER","14","1","2032",,,,,"0","2018-12-04 18:20:48","515986"
"A1KRTG6IWJ2JVC","cs_wg_mon_freq_v1_pilot1","3HYA4D452RK5QDRH4F6G576IMU02FP","23","0","MAY","10","NOVEMBER","8","1","1742",,,,,"0","2018-12-04 18:20:50","515987"
"A2AZYU1CT24O0K","cs_wg_mon_freq_v1_pilot1","3R3YRB5GRF4JEYJBCJUUXPQJ856UAM","112","0","SEPTEMBER","14","MARCH","8","0","2972",,,,,"0","2018-12-04 18:20:52","515988"
"A1KRTG6IWJ2JVC","cs_wg_mon_freq_v1_pilot1","3HYA4D452RK5QDRH4F6G576IMU02FP","24","0","JUNE","8","MAY","10","1","2176",,,,,"0","2018-12-04 18:20:54","515989"
"A2AZYU1CT24O0K","cs_wg_mon_freq_v1_pilot1","3R3YRB5GRF4JEYJBCJUUXPQJ856UAM","113","0","JULY","4","FEBRUARY","8","1","2167",,,,,"0","2018-12-04 18:20:56","515990"
"A1KRTG6IWJ2JVC","cs_wg_mon_freq_v1_pilot1","3HYA4D452RK5QDRH4F6G576IMU02FP","25","0","SEPTEMBER","4","OCTOBER","8","0","2421",,,,,"0","2018-12-04 18:21:00","515991"
"A2AZYU1CT24O0K","cs_wg_mon_freq_v1_pilot1","3R3YRB5GRF4JEYJBCJUUXPQJ856UAM","114","0","NOVEMBER","8","OCTOBER","2","0","4980",,,,,"0","2018-12-04 18:21:03","515992"
"A1KRTG6IWJ2JVC","cs_wg_mon_freq_v1_pilot1","3HYA4D452RK5QDRH4F6G576IMU02FP","26","0","JULY","8","JANUARY","14","1","1896",,,,,"0","2018-12-04 18:21:03","515993"
"A2AZYU1CT24O0K","cs_wg_mon_freq_v1_pilot1","3R3YRB5GRF4JEYJBCJUUXPQJ856UAM","115","0","FEBRUARY","8","APRIL","10","1","2146",,,,,"0","2018-12-04 18:21:07","515994"
"A1KRTG6IWJ2JVC","cs_wg_mon_freq_v1_pilot1","3HYA4D452RK5QDRH4F6G576IMU02FP","27","0","JUNE","8","APRIL","6","0","2561",,,,,"0","2018-12-04 18:21:08","515995"
"A2AZYU1CT24O0K","cs_wg_mon_freq_v1_pilot1","3R3YRB5GRF4JEYJBCJUUXPQJ856UAM","116","0","MARCH","8","OCTOBER","2","0","1560",,,,,"0","2018-12-04 18:21:10","515996"
"A1KRTG6IWJ2JVC","cs_wg_mon_freq_v1_pilot1","3HYA4D452RK5QDRH4F6G576IMU02FP","28","0","SEPTEMBER","4","DECEMBER","8","0","1111",,,,,"0","2018-12-04 18:21:11","515997"
"A2AZYU1CT24O0K","cs_wg_mon_freq_v1_pilot1","3R3YRB5GRF4JEYJBCJUUXPQJ856UAM","117","0","JUNE","6","NOVEMBER","8","1","1762",,,,,"0","2018-12-04 18:21:13","515998"
"A1KRTG6IWJ2JVC","cs_wg_mon_freq_v1_pilot1","3HYA4D452RK5QDRH4F6G576IMU02FP","29","0","MAY","10","DECEMBER","8","1","1516",,,,,"0","2018-12-04 18:21:14","515999"
"A1KRTG6IWJ2JVC","cs_wg_mon_freq_v1_pilot1","3HYA4D452RK5QDRH4F6G576IMU02FP","30","0","FEBRUARY","8","APRIL","6","0","882",,,,,"0","2018-12-04 18:21:17","516000"
"A2AZYU1CT24O0K","cs_wg_mon_freq_v1_pilot1","3R3YRB5GRF4JEYJBCJUUXPQJ856UAM","118","0","AUGUST","8","JULY","4","0","2278",,,,,"0","2018-12-04 18:21:18","516001"
"A1KRTG6IWJ2JVC","cs_wg_mon_freq_v1_pilot1","3HYA4D452RK5QDRH4F6G576IMU02FP","31","0","JULY","8","MAY","10","0","662",,,,,"0","2018-12-04 18:21:20","516002"
"A2AZYU1CT24O0K","cs_wg_mon_freq_v1_pilot1","3R3YRB5GRF4JEYJBCJUUXPQJ856UAM","119","0","FEBRUARY","8","JANUARY","12","0","1917",,,,,"0","2018-12-04 18:21:22","516003"
"A1KRTG6IWJ2JVC","cs_wg_mon_freq_v1_pilot1","3HYA4D452RK5QDRH4F6G576IMU02FP","32","0","DECEMBER","8","MAY","10","0","747",,,,,"0","2018-12-04 18:21:22","516004"
"A1KRTG6IWJ2JVC","cs_wg_mon_freq_v1_pilot1","3HYA4D452RK5QDRH4F6G576IMU02FP","33","0","JANUARY","14","OCTOBER","8","0","1320",,,,,"0","2018-12-04 18:21:26","516005"
"A1KRTG6IWJ2JVC","cs_wg_mon_freq_v1_pilot1","3HYA4D452RK5QDRH4F6G576IMU02FP","34","0","DECEMBER","8","SEPTEMBER","4","1","1690",,,,,"0","2018-12-04 18:21:29","516006"
"A1KRTG6IWJ2JVC","cs_wg_mon_freq_v1_pilot1","3HYA4D452RK5QDRH4F6G576IMU02FP","35","0","OCTOBER","8","MARCH","12","0","1083",,,,,"0","2018-12-04 18:21:33","516007"
"A1KRTG6IWJ2JVC","cs_wg_mon_freq_v1_pilot1","3HYA4D452RK5QDRH4F6G576IMU02FP","36","0","NOVEMBER","8","AUGUST","2","0","958",,,,,"0","2018-12-04 18:21:36","516008"
"A1KRTG6IWJ2JVC","cs_wg_mon_freq_v1_pilot1","3HYA4D452RK5QDRH4F6G576IMU02FP","37","0","AUGUST","2","JULY","8","1","1474",,,,,"0","2018-12-04 18:21:39","516009"
"A1KRTG6IWJ2JVC","cs_wg_mon_freq_v1_pilot1","3HYA4D452RK5QDRH4F6G576IMU02FP","38","0","FEBRUARY","8","AUGUST","2","0","2479",,,,,"0","2018-12-04 18:21:44","516010"
"A1KRTG6IWJ2JVC","cs_wg_mon_freq_v1_pilot1","3HYA4D452RK5QDRH4F6G576IMU02FP","39","0","NOVEMBER","8","JANUARY","14","0","936",,,,,"0","2018-12-04 18:21:47","516011"
"A1KRTG6IWJ2JVC","cs_wg_mon_freq_v1_pilot1","3HYA4D452RK5QDRH4F6G576IMU02FP","40","0","APRIL","6","JUNE","8","1","1879",,,,,"0","2018-12-04 18:21:52","516012"
"A1KRTG6IWJ2JVC","cs_wg_mon_freq_v1_pilot1","3HYA4D452RK5QDRH4F6G576IMU02FP","41","0","JUNE","8","MARCH","12","0","3080",,,,,"0","2018-12-04 18:21:57","516013"
"A1KRTG6IWJ2JVC","cs_wg_mon_freq_v1_pilot1","3HYA4D452RK5QDRH4F6G576IMU02FP","42","0","OCTOBER","8","MARCH","12","1","1673",,,,,"0","2018-12-04 18:22:01","516014"
"A1KRTG6IWJ2JVC","cs_wg_mon_freq_v1_pilot1","3HYA4D452RK5QDRH4F6G576IMU02FP","43","0","JANUARY","14","JULY","8","0","988",,,,,"0","2018-12-04 18:22:03","516015"
"A1KRTG6IWJ2JVC","cs_wg_mon_freq_v1_pilot1","3HYA4D452RK5QDRH4F6G576IMU02FP","44","0","JULY","8","JANUARY","14","1","1262",,,,,"0","2018-12-04 18:22:07","516016"
"A1KRTG6IWJ2JVC","cs_wg_mon_freq_v1_pilot1","3HYA4D452RK5QDRH4F6G576IMU02FP","45","0","AUGUST","2","JUNE","8","0","3767",,,,,"0","2018-12-04 18:22:13","516017"
"A1KRTG6IWJ2JVC","cs_wg_mon_freq_v1_pilot1","3HYA4D452RK5QDRH4F6G576IMU02FP","46","0","MAY","10","NOVEMBER","8","1","1469",,,,,"0","2018-12-04 18:22:16","516018"
"A1KRTG6IWJ2JVC","cs_wg_mon_freq_v1_pilot1","3HYA4D452RK5QDRH4F6G576IMU02FP","47","0","DECEMBER","8","JANUARY","14","1","1636",,,,,"0","2018-12-04 18:22:20","516019"
"A1KRTG6IWJ2JVC","cs_wg_mon_freq_v1_pilot1","3HYA4D452RK5QDRH4F6G576IMU02FP","48","0","SEPTEMBER","4","JULY","8","0","655",,,,,"0","2018-12-04 18:22:23","516020"
"A1KRTG6IWJ2JVC","cs_wg_mon_freq_v1_pilot1","3HYA4D452RK5QDRH4F6G576IMU02FP","49","0","JUNE","8","APRIL","6","0","1816",,,,,"0","2018-12-04 18:22:27","516021"
"A1KRTG6IWJ2JVC","cs_wg_mon_freq_v1_pilot1","3HYA4D452RK5QDRH4F6G576IMU02FP","50","0","JULY","8","JANUARY","14","1","1655",,,,,"0","2018-12-04 18:22:31","516022"
"A1KRTG6IWJ2JVC","cs_wg_mon_freq_v1_pilot1","3HYA4D452RK5QDRH4F6G576IMU02FP","51","0","MAY","10","OCTOBER","8","0","4279",,,,,"0","2018-12-04 18:22:38","516023"
"A1KRTG6IWJ2JVC","cs_wg_mon_freq_v1_pilot1","3HYA4D452RK5QDRH4F6G576IMU02FP","52","0","MAY","10","NOVEMBER","8","0","9490",,,,,"0","2018-12-04 18:22:53","516024"
"A1KRTG6IWJ2JVC","cs_wg_mon_freq_v1_pilot1","3HYA4D452RK5QDRH4F6G576IMU02FP","53","0","AUGUST","2","FEBRUARY","8","0","1111",,,,,"0","2018-12-04 18:22:57","516025"
"A1KRTG6IWJ2JVC","cs_wg_mon_freq_v1_pilot1","3HYA4D452RK5QDRH4F6G576IMU02FP","54","0","MARCH","12","OCTOBER","8","1","1785",,,,,"0","2018-12-04 18:23:01","516026"
"A1KRTG6IWJ2JVC","cs_wg_mon_freq_v1_pilot1","3HYA4D452RK5QDRH4F6G576IMU02FP","55","0","FEBRUARY","8","AUGUST","2","0","1792",,,,,"0","2018-12-04 18:23:04","516027"
"A1KRTG6IWJ2JVC","cs_wg_mon_freq_v1_pilot1","3HYA4D452RK5QDRH4F6G576IMU02FP","56","0","AUGUST","2","OCTOBER","8","1","2269",,,,,"0","2018-12-04 18:23:08","516028"
"A1KRTG6IWJ2JVC","cs_wg_mon_freq_v1_pilot1","3HYA4D452RK5QDRH4F6G576IMU02FP","57","0","OCTOBER","8","SEPTEMBER","4","1","1605",,,,,"0","2018-12-04 18:23:12","516029"
"A1KRTG6IWJ2JVC","cs_wg_mon_freq_v1_pilot1","3HYA4D452RK5QDRH4F6G576IMU02FP","58","0","JULY","8","SEPTEMBER","4","1","1334",,,,,"0","2018-12-04 18:23:14","516030"
"A1KRTG6IWJ2JVC","cs_wg_mon_freq_v1_pilot1","3HYA4D452RK5QDRH4F6G576IMU02FP","59","0","MARCH","12","JULY","8","0","1534",,,,,"0","2018-12-04 18:23:18","516031"
"A1KRTG6IWJ2JVC","cs_wg_mon_freq_v1_pilot1","3HYA4D452RK5QDRH4F6G576IMU02FP","60","0","OCTOBER","8","AUGUST","2","0","880",,,,,"0","2018-12-04 18:23:20","516032"
"A1KRTG6IWJ2JVC","cs_wg_mon_freq_v1_pilot1","3HYA4D452RK5QDRH4F6G576IMU02FP","61","0","JANUARY","14","JUNE","8","0","680",,,,,"0","2018-12-04 18:23:23","516033"
"A1KRTG6IWJ2JVC","cs_wg_mon_freq_v1_pilot1","3HYA4D452RK5QDRH4F6G576IMU02FP","62","0","MARCH","12","OCTOBER","8","0","1071",,,,,"0","2018-12-04 18:23:25","516034"
"A1KRTG6IWJ2JVC","cs_wg_mon_freq_v1_pilot1","3HYA4D452RK5QDRH4F6G576IMU02FP","63","0","MARCH","12","DECEMBER","8","0","530",,,,,"0","2018-12-04 18:23:27","516035"
"A1KRTG6IWJ2JVC","cs_wg_mon_freq_v1_pilot1","3HYA4D452RK5QDRH4F6G576IMU02FP","64","0","MAY","10","NOVEMBER","8","0","728",,,,,"0","2018-12-04 18:23:30","516036"
"A1KRTG6IWJ2JVC","cs_wg_mon_freq_v1_pilot1","3HYA4D452RK5QDRH4F6G576IMU02FP","65","0","FEBRUARY","8","MARCH","12","0","1104",,,,,"0","2018-12-04 18:23:32","516037"
"A1KRTG6IWJ2JVC","cs_wg_mon_freq_v1_pilot1","3HYA4D452RK5QDRH4F6G576IMU02FP","66","0","APRIL","6","JUNE","8","0","1129",,,,,"0","2018-12-04 18:23:37","516038"
"A1KRTG6IWJ2JVC","cs_wg_mon_freq_v1_pilot1","3HYA4D452RK5QDRH4F6G576IMU02FP","67","0","FEBRUARY","8","AUGUST","2","0","1351",,,,,"0","2018-12-04 18:23:39","516039"
"A1KRTG6IWJ2JVC","cs_wg_mon_freq_v1_pilot1","3HYA4D452RK5QDRH4F6G576IMU02FP","68","0","APRIL","6","JUNE","8","1","1552",,,,,"0","2018-12-04 18:23:43","516040"
"A1KRTG6IWJ2JVC","cs_wg_mon_freq_v1_pilot1","3HYA4D452RK5QDRH4F6G576IMU02FP","69","0","JANUARY","14","JULY","8","0","1999",,,,,"0","2018-12-04 18:23:47","516041"
"A1KRTG6IWJ2JVC","cs_wg_mon_freq_v1_pilot1","3HYA4D452RK5QDRH4F6G576IMU02FP","70","0","DECEMBER","8","APRIL","6","0","1294",,,,,"0","2018-12-04 18:23:50","516042"
"A1KRTG6IWJ2JVC","cs_wg_mon_freq_v1_pilot1","3HYA4D452RK5QDRH4F6G576IMU02FP","71","0","JANUARY","14","JULY","8","0","4805",,,,,"0","2018-12-04 18:23:56","516043"
"A1KRTG6IWJ2JVC","cs_wg_mon_freq_v1_pilot1","3HYA4D452RK5QDRH4F6G576IMU02FP","72","0","AUGUST","2","FEBRUARY","8","0","894",,,,,"0","2018-12-04 18:23:59","516044"
"A1KRTG6IWJ2JVC","cs_wg_mon_freq_v1_pilot1","3HYA4D452RK5QDRH4F6G576IMU02FP","73","0","DECEMBER","8","SEPTEMBER","4","0","985",,,,,"0","2018-12-04 18:24:02","516045"
"A1KRTG6IWJ2JVC","cs_wg_mon_freq_v1_pilot1","3HYA4D452RK5QDRH4F6G576IMU02FP","74","0","OCTOBER","8","MARCH","12","0","772",,,,,"0","2018-12-04 18:24:04","516046"
"A1KRTG6IWJ2JVC","cs_wg_mon_freq_v1_pilot1","3HYA4D452RK5QDRH4F6G576IMU02FP","75","0","NOVEMBER","8","SEPTEMBER","4","0","2065",,,,,"0","2018-12-04 18:24:08","516047"
"A1KRTG6IWJ2JVC","cs_wg_mon_freq_v1_pilot1","3HYA4D452RK5QDRH4F6G576IMU02FP","76","0","JANUARY","14","FEBRUARY","8","0","621",,,,,"0","2018-12-04 18:24:10","516048"
"A1KRTG6IWJ2JVC","cs_wg_mon_freq_v1_pilot1","3HYA4D452RK5QDRH4F6G576IMU02FP","77","0","DECEMBER","8","MARCH","12","1","1911",,,,,"0","2018-12-04 18:24:14","516049"
"A1KRTG6IWJ2JVC","cs_wg_mon_freq_v1_pilot1","3HYA4D452RK5QDRH4F6G576IMU02FP","78","0","OCTOBER","8","MARCH","12","1","1522",,,,,"0","2018-12-04 18:24:17","516050"
"A1KRTG6IWJ2JVC","cs_wg_mon_freq_v1_pilot1","3HYA4D452RK5QDRH4F6G576IMU02FP","79","0","MAY","10","FEBRUARY","8","0","1813",,,,,"0","2018-12-04 18:24:21","516051"
"A1KRTG6IWJ2JVC","cs_wg_mon_freq_v1_pilot1","3HYA4D452RK5QDRH4F6G576IMU02FP","80","0","APRIL","6","NOVEMBER","8","0","1270",,,,,"0","2018-12-04 18:24:24","516052"
"A1KRTG6IWJ2JVC","cs_wg_mon_freq_v1_pilot1","3HYA4D452RK5QDRH4F6G576IMU02FP","81","0","AUGUST","2","FEBRUARY","8","1","1747",,,,,"0","2018-12-04 18:24:27","516053"
"A1KRTG6IWJ2JVC","cs_wg_mon_freq_v1_pilot1","3HYA4D452RK5QDRH4F6G576IMU02FP","82","0","AUGUST","2","NOVEMBER","8","1","2236",,,,,"0","2018-12-04 18:24:32","516054"
"A1KRTG6IWJ2JVC","cs_wg_mon_freq_v1_pilot1","3HYA4D452RK5QDRH4F6G576IMU02FP","83","0","JANUARY","14","JULY","8","0","1436",,,,,"0","2018-12-04 18:24:35","516055"
"A1KRTG6IWJ2JVC","cs_wg_mon_freq_v1_pilot1","3HYA4D452RK5QDRH4F6G576IMU02FP","84","0","NOVEMBER","8","MAY","10","1","1400",,,,,"0","2018-12-04 18:24:38","516056"
"A1KRTG6IWJ2JVC","cs_wg_mon_freq_v1_pilot1","3HYA4D452RK5QDRH4F6G576IMU02FP","85","0","JULY","8","MARCH","12","1","1755",,,,,"0","2018-12-04 18:24:41","516057"
"A1KRTG6IWJ2JVC","cs_wg_mon_freq_v1_pilot1","3HYA4D452RK5QDRH4F6G576IMU02FP","86","0","FEBRUARY","8","AUGUST","2","0","1526",,,,,"0","2018-12-04 18:24:45","516058"
"A1KRTG6IWJ2JVC","cs_wg_mon_freq_v1_pilot1","3HYA4D452RK5QDRH4F6G576IMU02FP","87","0","AUGUST","2","FEBRUARY","8","1","1709",,,,,"0","2018-12-04 18:24:48","516059"
"A1KRTG6IWJ2JVC","cs_wg_mon_freq_v1_pilot1","3HYA4D452RK5QDRH4F6G576IMU02FP","88","0","NOVEMBER","8","MAY","10","1","1678",,,,,"0","2018-12-04 18:24:51","516060"
"A1KRTG6IWJ2JVC","cs_wg_mon_freq_v1_pilot1","3HYA4D452RK5QDRH4F6G576IMU02FP","89","0","SEPTEMBER","4","NOVEMBER","8","1","1082",,,,,"0","2018-12-04 18:24:54","516061"
"A1KRTG6IWJ2JVC","cs_wg_mon_freq_v1_pilot1","3HYA4D452RK5QDRH4F6G576IMU02FP","90","0","AUGUST","2","FEBRUARY","8","1","2494",,,,,"0","2018-12-04 18:24:59","516062"
"A1KRTG6IWJ2JVC","cs_wg_mon_freq_v1_pilot1","3HYA4D452RK5QDRH4F6G576IMU02FP","91","0","APRIL","6","OCTOBER","8","0","1921",,,,,"0","2018-12-04 18:25:02","516063"
"A1KRTG6IWJ2JVC","cs_wg_mon_freq_v1_pilot1","3HYA4D452RK5QDRH4F6G576IMU02FP","92","0","FEBRUARY","8","MAY","10","0","970",,,,,"0","2018-12-04 18:25:05","516064"
"A1KRTG6IWJ2JVC","cs_wg_mon_freq_v1_pilot1","3HYA4D452RK5QDRH4F6G576IMU02FP","93","0","OCTOBER","8","MARCH","12","1","1430",,,,,"0","2018-12-04 18:25:09","516065"
"A1KRTG6IWJ2JVC","cs_wg_mon_freq_v1_pilot1","3HYA4D452RK5QDRH4F6G576IMU02FP","94","0","JANUARY","14","NOVEMBER","8","0","1664",,,,,"0","2018-12-04 18:25:11","516066"
"A1KRTG6IWJ2JVC","cs_wg_mon_freq_v1_pilot1","3HYA4D452RK5QDRH4F6G576IMU02FP","95","0","APRIL","6","JUNE","8","0","805",,,,,"0","2018-12-04 18:25:14","516067"
"A1KRTG6IWJ2JVC","cs_wg_mon_freq_v1_pilot1","3HYA4D452RK5QDRH4F6G576IMU02FP","96","0","MARCH","12","NOVEMBER","8","0","920",,,,,"0","2018-12-04 18:25:16","516068"
"A1KRTG6IWJ2JVC","cs_wg_mon_freq_v1_pilot1","3HYA4D452RK5QDRH4F6G576IMU02FP","97","0","SEPTEMBER","4","DECEMBER","8","0","845",,,,,"0","2018-12-04 18:25:18","516069"
"A1KRTG6IWJ2JVC","cs_wg_mon_freq_v1_pilot1","3HYA4D452RK5QDRH4F6G576IMU02FP","98","0","OCTOBER","8","APRIL","6","1","2056",,,,,"0","2018-12-04 18:25:23","516070"
"A1KRTG6IWJ2JVC","cs_wg_mon_freq_v1_pilot1","3HYA4D452RK5QDRH4F6G576IMU02FP","99","0","NOVEMBER","8","APRIL","6","0","938",,,,,"0","2018-12-04 18:25:25","516071"
"A1KRTG6IWJ2JVC","cs_wg_mon_freq_v1_pilot1","3HYA4D452RK5QDRH4F6G576IMU02FP","100","0","NOVEMBER","8","MAY","10","1","1797",,,,,"0","2018-12-04 18:25:29","516072"
"A2RFZPWXR7D4I5","cs_wg_mon_freq_v1_pilot1","3WJ1OXY92AHLG1CY9GTP1X8UBEEA8M","0","0","NOVEMBER","8","MAY","14","1","11664",,,,,"1","2018-12-04 18:25:31","516073"
"A1KRTG6IWJ2JVC","cs_wg_mon_freq_v1_pilot1","3HYA4D452RK5QDRH4F6G576IMU02FP","101","0","SEPTEMBER","4","JUNE","8","0","1835",,,,,"0","2018-12-04 18:25:33","516074"
"A1KRTG6IWJ2JVC","cs_wg_mon_freq_v1_pilot1","3HYA4D452RK5QDRH4F6G576IMU02FP","102","0","MARCH","12","JUNE","8","0","660",,,,,"0","2018-12-04 18:25:34","516075"
"A2RFZPWXR7D4I5","cs_wg_mon_freq_v1_pilot1","3WJ1OXY92AHLG1CY9GTP1X8UBEEA8M","1","0","FEBRUARY","2","SEPTEMBER","8","1","4812",,,,,"1","2018-12-04 18:25:38","516076"
"A1KRTG6IWJ2JVC","cs_wg_mon_freq_v1_pilot1","3HYA4D452RK5QDRH4F6G576IMU02FP","103","0","JULY","8","APRIL","6","1","3060",,,,,"0","2018-12-04 18:25:39","516077"
"A1KRTG6IWJ2JVC","cs_wg_mon_freq_v1_pilot1","3HYA4D452RK5QDRH4F6G576IMU02FP","104","0","APRIL","6","FEBRUARY","8","0","2424",,,,,"0","2018-12-04 18:25:44","516078"
"A1KRTG6IWJ2JVC","cs_wg_mon_freq_v1_pilot1","3HYA4D452RK5QDRH4F6G576IMU02FP","105","0","JANUARY","14","DECEMBER","8","0","826",,,,,"0","2018-12-04 18:25:46","516079"
"A12GJUCS7AJ4K","cs_wg_mon_freq_v1_pilot1","3TMFV4NEP8FINEF1ALPHJM5L3XKW8M","0","0","JULY","8","MARCH","2","0","18400",,,,,"1","2018-12-04 18:25:47","516080"
"A1KRTG6IWJ2JVC","cs_wg_mon_freq_v1_pilot1","3HYA4D452RK5QDRH4F6G576IMU02FP","106","0","JUNE","8","APRIL","6","1","1834",,,,,"0","2018-12-04 18:25:50","516081"
"A1KRTG6IWJ2JVC","cs_wg_mon_freq_v1_pilot1","3HYA4D452RK5QDRH4F6G576IMU02FP","107","0","APRIL","6","JUNE","8","1","1535",,,,,"0","2018-12-04 18:25:54","516082"
"A1KRTG6IWJ2JVC","cs_wg_mon_freq_v1_pilot1","3HYA4D452RK5QDRH4F6G576IMU02FP","108","0","MARCH","12","OCTOBER","8","0","1809",,,,,"0","2018-12-04 18:25:56","516083"
"A1KRTG6IWJ2JVC","cs_wg_mon_freq_v1_pilot1","3HYA4D452RK5QDRH4F6G576IMU02FP","109","0","APRIL","6","JULY","8","0","2889",,,,,"0","2018-12-04 18:26:01","516084"
"A12GJUCS7AJ4K","cs_wg_mon_freq_v1_pilot1","3TMFV4NEP8FINEF1ALPHJM5L3XKW8M","1","0","FEBRUARY","8","SEPTEMBER","14","1","9029",,,,,"1","2018-12-04 18:26:01","516085"
"A1KRTG6IWJ2JVC","cs_wg_mon_freq_v1_pilot1","3HYA4D452RK5QDRH4F6G576IMU02FP","110","0","JULY","8","AUGUST","2","0","971",,,,,"0","2018-12-04 18:26:03","516086"
"A1KRTG6IWJ2JVC","cs_wg_mon_freq_v1_pilot1","3HYA4D452RK5QDRH4F6G576IMU02FP","111","0","SEPTEMBER","4","DECEMBER","8","0","1236",,,,,"0","2018-12-04 18:26:06","516087"
"A1KRTG6IWJ2JVC","cs_wg_mon_freq_v1_pilot1","3HYA4D452RK5QDRH4F6G576IMU02FP","112","0","JUNE","8","APRIL","6","0","1951",,,,,"0","2018-12-04 18:26:11","516088"
"A1KRTG6IWJ2JVC","cs_wg_mon_freq_v1_pilot1","3HYA4D452RK5QDRH4F6G576IMU02FP","113","0","SEPTEMBER","4","DECEMBER","8","0","1400",,,,,"0","2018-12-04 18:26:14","516089"
"A1KRTG6IWJ2JVC","cs_wg_mon_freq_v1_pilot1","3HYA4D452RK5QDRH4F6G576IMU02FP","114","0","MAY","10","NOVEMBER","8","0","1291",,,,,"0","2018-12-04 18:26:17","516090"
"A1KRTG6IWJ2JVC","cs_wg_mon_freq_v1_pilot1","3HYA4D452RK5QDRH4F6G576IMU02FP","115","0","APRIL","6","DECEMBER","8","0","1639",,,,,"0","2018-12-04 18:26:21","516091"
"A12GJUCS7AJ4K","cs_wg_mon_freq_v1_pilot1","3TMFV4NEP8FINEF1ALPHJM5L3XKW8M","2","0","JUNE","8","DECEMBER","12","1","9992",,,,,"1","2018-12-04 18:26:22","516092"
"A1KRTG6IWJ2JVC","cs_wg_mon_freq_v1_pilot1","3HYA4D452RK5QDRH4F6G576IMU02FP","116","0","JULY","8","JANUARY","14","1","2699",,,,,"0","2018-12-04 18:26:25","516093"
"A1KRTG6IWJ2JVC","cs_wg_mon_freq_v1_pilot1","3HYA4D452RK5QDRH4F6G576IMU02FP","117","0","JANUARY","14","JULY","8","0","1268",,,,,"0","2018-12-04 18:26:28","516094"
"A1KRTG6IWJ2JVC","cs_wg_mon_freq_v1_pilot1","3HYA4D452RK5QDRH4F6G576IMU02FP","118","0","JUNE","8","SEPTEMBER","4","1","1508",,,,,"0","2018-12-04 18:26:32","516095"
"A1KRTG6IWJ2JVC","cs_wg_mon_freq_v1_pilot1","3HYA4D452RK5QDRH4F6G576IMU02FP","119","0","SEPTEMBER","4","FEBRUARY","8","0","1090",,,,,"0","2018-12-04 18:26:34","516096"
"A12GJUCS7AJ4K","cs_wg_mon_freq_v1_pilot1","3TMFV4NEP8FINEF1ALPHJM5L3XKW8M","3","0","DECEMBER","12","FEBRUARY","8","0","4954",,,,,"1","2018-12-04 18:26:35","516097"
"A12GJUCS7AJ4K","cs_wg_mon_freq_v1_pilot1","3TMFV4NEP8FINEF1ALPHJM5L3XKW8M","4","0","APRIL","6","JUNE","8","1","7219",,,,,"1","2018-12-04 18:26:48","516098"
"A12GJUCS7AJ4K","cs_wg_mon_freq_v1_pilot1","3TMFV4NEP8FINEF1ALPHJM5L3XKW8M","5","0","FEBRUARY","8","APRIL","6","0","7532",,,,,"1","2018-12-04 18:26:58","516099"
"A2RFZPWXR7D4I5","cs_wg_mon_freq_v1_pilot1","3WJ1OXY92AHLG1CY9GTP1X8UBEEA8M","0","0","DECEMBER","4","JUNE","8","1","7136",,,,,"1","2018-12-04 18:26:58","516100"
"A2RFZPWXR7D4I5","cs_wg_mon_freq_v1_pilot1","3WJ1OXY92AHLG1CY9GTP1X8UBEEA8M","1","0","MAY","6","FEBRUARY","8","1","4951",,,,,"1","2018-12-04 18:27:06","516101"
"A12GJUCS7AJ4K","cs_wg_mon_freq_v1_pilot1","3TMFV4NEP8FINEF1ALPHJM5L3XKW8M","6","0","DECEMBER","12","OCTOBER","8","0","8243",,,,,"1","2018-12-04 18:27:10","516102"
"A2RFZPWXR7D4I5","cs_wg_mon_freq_v1_pilot1","3WJ1OXY92AHLG1CY9GTP1X8UBEEA8M","2","0","DECEMBER","4","JUNE","8","1","2705",,,,,"1","2018-12-04 18:27:11","516103"
"A2RFZPWXR7D4I5","cs_wg_mon_freq_v1_pilot1","3WJ1OXY92AHLG1CY9GTP1X8UBEEA8M","3","0","MAY","6","SEPTEMBER","8","1","3262",,,,,"1","2018-12-04 18:27:16","516104"
"A12GJUCS7AJ4K","cs_wg_mon_freq_v1_pilot1","3TMFV4NEP8FINEF1ALPHJM5L3XKW8M","7","0","JUNE","8","APRIL","6","0","6299",,,,,"1","2018-12-04 18:27:19","516105"
"A2RFZPWXR7D4I5","cs_wg_mon_freq_v1_pilot1","3WJ1OXY92AHLG1CY9GTP1X8UBEEA8M","4","0","JUNE","8","DECEMBER","4","0","6322",,,,,"1","2018-12-04 18:27:24","516106"
"A12GJUCS7AJ4K","cs_wg_mon_freq_v1_pilot1","3TMFV4NEP8FINEF1ALPHJM5L3XKW8M","8","0","NOVEMBER","8","APRIL","6","0","6371",,,,,"1","2018-12-04 18:27:28","516107"
"A2RFZPWXR7D4I5","cs_wg_mon_freq_v1_pilot1","3WJ1OXY92AHLG1CY9GTP1X8UBEEA8M","5","0","NOVEMBER","12","FEBRUARY","8","0","4206",,,,,"1","2018-12-04 18:27:31","516108"
"A2RFZPWXR7D4I5","cs_wg_mon_freq_v1_pilot1","3WJ1OXY92AHLG1CY9GTP1X8UBEEA8M","6","0","APRIL","2","AUGUST","8","1","2609",,,,,"1","2018-12-04 18:27:35","516109"
"A2RFZPWXR7D4I5","cs_wg_mon_freq_v1_pilot1","3WJ1OXY92AHLG1CY9GTP1X8UBEEA8M","7","0","JUNE","8","JULY","14","1","2386",,,,,"1","2018-12-04 18:27:39","516110"
"A2RFZPWXR7D4I5","cs_wg_mon_freq_v1_pilot1","3WJ1OXY92AHLG1CY9GTP1X8UBEEA8M","8","0","MAY","6","JANUARY","8","1","1743",,,,,"1","2018-12-04 18:27:43","516111"
"A2RFZPWXR7D4I5","cs_wg_mon_freq_v1_pilot1","3WJ1OXY92AHLG1CY9GTP1X8UBEEA8M","9","0","OCTOBER","10","MARCH","8","0","3185",,,,,"1","2018-12-04 18:27:48","516112"
"A12GJUCS7AJ4K","cs_wg_mon_freq_v1_pilot1","3TMFV4NEP8FINEF1ALPHJM5L3XKW8M","9","0","APRIL","6","OCTOBER","8","1","18232",,,,,"1","2018-12-04 18:27:48","516113"
"A2RFZPWXR7D4I5","cs_wg_mon_freq_v1_pilot1","3WJ1OXY92AHLG1CY9GTP1X8UBEEA8M","10","0","MAY","6","JUNE","8","1","2995",,,,,"1","2018-12-04 18:27:53","516114"
"A2RFZPWXR7D4I5","cs_wg_mon_freq_v1_pilot1","3WJ1OXY92AHLG1CY9GTP1X8UBEEA8M","11","0","OCTOBER","10","FEBRUARY","8","0","3451",,,,,"1","2018-12-04 18:27:59","516115"
"A12GJUCS7AJ4K","cs_wg_mon_freq_v1_pilot1","3TMFV4NEP8FINEF1ALPHJM5L3XKW8M","10","0","OCTOBER","8","DECEMBER","12","1","8071",,,,,"1","2018-12-04 18:27:59","516116"
"A2RFZPWXR7D4I5","cs_wg_mon_freq_v1_pilot1","3WJ1OXY92AHLG1CY9GTP1X8UBEEA8M","12","0","AUGUST","8","NOVEMBER","12","1","4407",,,,,"1","2018-12-04 18:28:05","516117"
"A12GJUCS7AJ4K","cs_wg_mon_freq_v1_pilot1","3TMFV4NEP8FINEF1ALPHJM5L3XKW8M","11","0","DECEMBER","12","OCTOBER","8","0","4062",,,,,"1","2018-12-04 18:28:06","516118"
"A2RFZPWXR7D4I5","cs_wg_mon_freq_v1_pilot1","3WJ1OXY92AHLG1CY9GTP1X8UBEEA8M","13","0","OCTOBER","10","JANUARY","8","0","4548",,,,,"1","2018-12-04 18:28:12","516119"
"A12GJUCS7AJ4K","cs_wg_mon_freq_v1_pilot1","3TMFV4NEP8FINEF1ALPHJM5L3XKW8M","12","0","OCTOBER","8","DECEMBER","12","1","4074",,,,,"1","2018-12-04 18:28:12","516120"
"A2RFZPWXR7D4I5","cs_wg_mon_freq_v1_pilot1","3WJ1OXY92AHLG1CY9GTP1X8UBEEA8M","14","0","JUNE","8","MAY","6","0","2165",,,,,"1","2018-12-04 18:28:18","516121"
"A2RFZPWXR7D4I5","cs_wg_mon_freq_v1_pilot1","3WJ1OXY92AHLG1CY9GTP1X8UBEEA8M","15","0","MAY","6","FEBRUARY","8","1","4742",,,,,"1","2018-12-04 18:28:23","516122"
"A12GJUCS7AJ4K","cs_wg_mon_freq_v1_pilot1","3TMFV4NEP8FINEF1ALPHJM5L3XKW8M","13","0","MARCH","2","JULY","8","1","11657",,,,,"1","2018-12-04 18:28:27","516123"
"A12GJUCS7AJ4K","cs_wg_mon_freq_v1_pilot1","3TMFV4NEP8FINEF1ALPHJM5L3XKW8M","14","0","JULY","8","APRIL","6","0","3772",,,,,"1","2018-12-04 18:28:33","516124"
"A2RFZPWXR7D4I5","cs_wg_mon_freq_v1_pilot1","3WJ1OXY92AHLG1CY9GTP1X8UBEEA8M","16","0","OCTOBER","10","AUGUST","8","0","17544",,,,,"1","2018-12-04 18:28:43","516125"
"A12GJUCS7AJ4K","cs_wg_mon_freq_v1_pilot1","3TMFV4NEP8FINEF1ALPHJM5L3XKW8M","15","0","MARCH","2","AUGUST","8","1","11727",,,,,"1","2018-12-04 18:28:47","516126"
"A2RFZPWXR7D4I5","cs_wg_mon_freq_v1_pilot1","3WJ1OXY92AHLG1CY9GTP1X8UBEEA8M","17","0","JULY","14","FEBRUARY","8","0","9306",,,,,"1","2018-12-04 18:28:54","516127"
"A12GJUCS7AJ4K","cs_wg_mon_freq_v1_pilot1","3TMFV4NEP8FINEF1ALPHJM5L3XKW8M","16","0","SEPTEMBER","14","FEBRUARY","8","0","7354",,,,,"1","2018-12-04 18:28:58","516128"
"A2RFZPWXR7D4I5","cs_wg_mon_freq_v1_pilot1","3WJ1OXY92AHLG1CY9GTP1X8UBEEA8M","18","0","JUNE","8","NOVEMBER","12","1","5539",,,,,"1","2018-12-04 18:29:02","516129"
"A12GJUCS7AJ4K","cs_wg_mon_freq_v1_pilot1","3TMFV4NEP8FINEF1ALPHJM5L3XKW8M","17","0","DECEMBER","12","JULY","8","0","8473",,,,,"1","2018-12-04 18:29:09","516130"
"A2RFZPWXR7D4I5","cs_wg_mon_freq_v1_pilot1","3WJ1OXY92AHLG1CY9GTP1X8UBEEA8M","19","0","MARCH","8","JULY","14","1","11316",,,,,"1","2018-12-04 18:29:17","516131"
"A2RFZPWXR7D4I5","cs_wg_mon_freq_v1_pilot1","3WJ1OXY92AHLG1CY9GTP1X8UBEEA8M","20","0","MAY","6","FEBRUARY","8","1","2399",,,,,"1","2018-12-04 18:29:21","516132"
"A12GJUCS7AJ4K","cs_wg_mon_freq_v1_pilot1","3TMFV4NEP8FINEF1ALPHJM5L3XKW8M","18","0","MAY","4","NOVEMBER","8","1","10192",,,,,"1","2018-12-04 18:29:24","516133"
"A2RFZPWXR7D4I5","cs_wg_mon_freq_v1_pilot1","3WJ1OXY92AHLG1CY9GTP1X8UBEEA8M","21","0","APRIL","2","JANUARY","8","1","1101",,,,,"0","2018-12-04 18:29:27","516134"
"A2RFZPWXR7D4I5","cs_wg_mon_freq_v1_pilot1","3WJ1OXY92AHLG1CY9GTP1X8UBEEA8M","22","0","AUGUST","8","DECEMBER","4","0","5581",,,,,"1","2018-12-04 18:29:34","516135"
"A2RFZPWXR7D4I5","cs_wg_mon_freq_v1_pilot1","3WJ1OXY92AHLG1CY9GTP1X8UBEEA8M","23","0","JANUARY","8","DECEMBER","4","0","1585",,,,,"1","2018-12-04 18:29:38","516136"
"A12GJUCS7AJ4K","cs_wg_mon_freq_v1_pilot1","3TMFV4NEP8FINEF1ALPHJM5L3XKW8M","19","0","OCTOBER","8","DECEMBER","12","1","12086",,,,,"1","2018-12-04 18:29:39","516137"
"A2RFZPWXR7D4I5","cs_wg_mon_freq_v1_pilot1","3WJ1OXY92AHLG1CY9GTP1X8UBEEA8M","24","0","JANUARY","8","OCTOBER","10","1","2640",,,,,"1","2018-12-04 18:29:42","516138"
"A2RFZPWXR7D4I5","cs_wg_mon_freq_v1_pilot1","3WJ1OXY92AHLG1CY9GTP1X8UBEEA8M","25","0","DECEMBER","4","FEBRUARY","8","1","2858",,,,,"1","2018-12-04 18:29:47","516139"
"A12GJUCS7AJ4K","cs_wg_mon_freq_v1_pilot1","3TMFV4NEP8FINEF1ALPHJM5L3XKW8M","20","0","JANUARY","10","AUGUST","8","0","14781",,,,,"1","2018-12-04 18:29:56","516140"
"A2RFZPWXR7D4I5","cs_wg_mon_freq_v1_pilot1","3WJ1OXY92AHLG1CY9GTP1X8UBEEA8M","26","0","APRIL","2","SEPTEMBER","8","1","3513",,,,,"0","2018-12-04 18:29:56","516141"
"A2RFZPWXR7D4I5","cs_wg_mon_freq_v1_pilot1","3WJ1OXY92AHLG1CY9GTP1X8UBEEA8M","27","0","DECEMBER","4","JANUARY","8","1","1537",,,,,"0","2018-12-04 18:30:00","516142"
"A2RFZPWXR7D4I5","cs_wg_mon_freq_v1_pilot1","3WJ1OXY92AHLG1CY9GTP1X8UBEEA8M","28","0","JULY","14","MARCH","8","0","2373",,,,,"0","2018-12-04 18:30:04","516143"
"A12GJUCS7AJ4K","cs_wg_mon_freq_v1_pilot1","3TMFV4NEP8FINEF1ALPHJM5L3XKW8M","21","0","JULY","8","JANUARY","10","1","6451",,,,,"1","2018-12-04 18:30:05","516144"
"A2RFZPWXR7D4I5","cs_wg_mon_freq_v1_pilot1","3WJ1OXY92AHLG1CY9GTP1X8UBEEA8M","29","0","DECEMBER","4","JUNE","8","1","2956",,,,,"0","2018-12-04 18:30:10","516145"
"A12GJUCS7AJ4K","cs_wg_mon_freq_v1_pilot1","3TMFV4NEP8FINEF1ALPHJM5L3XKW8M","22","0","MARCH","2","AUGUST","8","1","6277",,,,,"1","2018-12-04 18:30:14","516146"
"A2RFZPWXR7D4I5","cs_wg_mon_freq_v1_pilot1","3WJ1OXY92AHLG1CY9GTP1X8UBEEA8M","30","0","SEPTEMBER","8","NOVEMBER","12","1","4311",,,,,"0","2018-12-04 18:30:17","516147"
"A2RFZPWXR7D4I5","cs_wg_mon_freq_v1_pilot1","3WJ1OXY92AHLG1CY9GTP1X8UBEEA8M","31","0","SEPTEMBER","8","APRIL","2","0","1876",,,,,"0","2018-12-04 18:30:21","516148"
"A2RFZPWXR7D4I5","cs_wg_mon_freq_v1_pilot1","3WJ1OXY92AHLG1CY9GTP1X8UBEEA8M","32","0","FEBRUARY","8","MAY","6","0","1726",,,,,"0","2018-12-04 18:30:25","516149"
"A12GJUCS7AJ4K","cs_wg_mon_freq_v1_pilot1","3TMFV4NEP8FINEF1ALPHJM5L3XKW8M","23","0","FEBRUARY","8","SEPTEMBER","14","1","10509",,,,,"1","2018-12-04 18:30:27","516150"
"A2RFZPWXR7D4I5","cs_wg_mon_freq_v1_pilot1","3WJ1OXY92AHLG1CY9GTP1X8UBEEA8M","33","0","DECEMBER","4","JUNE","8","1","2534",,,,,"0","2018-12-04 18:30:30","516151"
"A2RFZPWXR7D4I5","cs_wg_mon_freq_v1_pilot1","3WJ1OXY92AHLG1CY9GTP1X8UBEEA8M","34","0","SEPTEMBER","8","JULY","14","1","1976",,,,,"0","2018-12-04 18:30:34","516152"
"A2RFZPWXR7D4I5","cs_wg_mon_freq_v1_pilot1","3WJ1OXY92AHLG1CY9GTP1X8UBEEA8M","35","0","SEPTEMBER","8","APRIL","2","0","2323",,,,,"0","2018-12-04 18:30:39","516153"
"A12GJUCS7AJ4K","cs_wg_mon_freq_v1_pilot1","3TMFV4NEP8FINEF1ALPHJM5L3XKW8M","24","0","MAY","4","NOVEMBER","8","1","11405",,,,,"1","2018-12-04 18:30:40","516154"
"A2RFZPWXR7D4I5","cs_wg_mon_freq_v1_pilot1","3WJ1OXY92AHLG1CY9GTP1X8UBEEA8M","36","0","OCTOBER","10","JANUARY","8","0","778",,,,,"0","2018-12-04 18:30:41","516155"
"A2RFZPWXR7D4I5","cs_wg_mon_freq_v1_pilot1","3WJ1OXY92AHLG1CY9GTP1X8UBEEA8M","37","0","FEBRUARY","8","JULY","14","1","2109",,,,,"0","2018-12-04 18:30:46","516156"
"A12GJUCS7AJ4K","cs_wg_mon_freq_v1_pilot1","3TMFV4NEP8FINEF1ALPHJM5L3XKW8M","25","0","AUGUST","8","MAY","4","0","6222",,,,,"1","2018-12-04 18:30:49","516157"
"A2RFZPWXR7D4I5","cs_wg_mon_freq_v1_pilot1","3WJ1OXY92AHLG1CY9GTP1X8UBEEA8M","38","0","FEBRUARY","8","MAY","6","0","1595",,,,,"0","2018-12-04 18:30:50","516158"
"A2RFZPWXR7D4I5","cs_wg_mon_freq_v1_pilot1","3WJ1OXY92AHLG1CY9GTP1X8UBEEA8M","39","0","FEBRUARY","8","OCTOBER","10","1","1529",,,,,"0","2018-12-04 18:30:54","516159"
"A12GJUCS7AJ4K","cs_wg_mon_freq_v1_pilot1","3TMFV4NEP8FINEF1ALPHJM5L3XKW8M","26","0","JANUARY","10","NOVEMBER","8","0","4972",,,,,"1","2018-12-04 18:30:56","516160"
"A2RFZPWXR7D4I5","cs_wg_mon_freq_v1_pilot1","3WJ1OXY92AHLG1CY9GTP1X8UBEEA8M","40","0","SEPTEMBER","8","APRIL","2","0","2099",,,,,"0","2018-12-04 18:30:58","516161"
"A2RFZPWXR7D4I5","cs_wg_mon_freq_v1_pilot1","3WJ1OXY92AHLG1CY9GTP1X8UBEEA8M","41","0","FEBRUARY","8","DECEMBER","4","0","1997",,,,,"0","2018-12-04 18:31:01","516162"
"A12GJUCS7AJ4K","cs_wg_mon_freq_v1_pilot1","3TMFV4NEP8FINEF1ALPHJM5L3XKW8M","27","0","MARCH","2","JUNE","8","1","5716",,,,,"1","2018-12-04 18:31:04","516163"
"A2RFZPWXR7D4I5","cs_wg_mon_freq_v1_pilot1","3WJ1OXY92AHLG1CY9GTP1X8UBEEA8M","42","0","SEPTEMBER","8","OCTOBER","10","1","1806",,,,,"0","2018-12-04 18:31:06","516164"
"A2RFZPWXR7D4I5","cs_wg_mon_freq_v1_pilot1","3WJ1OXY92AHLG1CY9GTP1X8UBEEA8M","43","0","APRIL","2","FEBRUARY","8","1","1948",,,,,"0","2018-12-04 18:31:09","516165"
"A2RFZPWXR7D4I5","cs_wg_mon_freq_v1_pilot1","3WJ1OXY92AHLG1CY9GTP1X8UBEEA8M","44","0","SEPTEMBER","8","APRIL","2","0","1504",,,,,"0","2018-12-04 18:31:12","516166"
"A12GJUCS7AJ4K","cs_wg_mon_freq_v1_pilot1","3TMFV4NEP8FINEF1ALPHJM5L3XKW8M","28","0","NOVEMBER","8","MAY","4","0","5084",,,,,"1","2018-12-04 18:31:14","516167"
"A2RFZPWXR7D4I5","cs_wg_mon_freq_v1_pilot1","3WJ1OXY92AHLG1CY9GTP1X8UBEEA8M","45","0","NOVEMBER","12","SEPTEMBER","8","0","1779",,,,,"0","2018-12-04 18:31:16","516168"
"A2RFZPWXR7D4I5","cs_wg_mon_freq_v1_pilot1","3WJ1OXY92AHLG1CY9GTP1X8UBEEA8M","46","0","JANUARY","8","OCTOBER","10","1","1291",,,,,"0","2018-12-04 18:31:18","516169"
"A12GJUCS7AJ4K","cs_wg_mon_freq_v1_pilot1","3TMFV4NEP8FINEF1ALPHJM5L3XKW8M","29","0","NOVEMBER","8","MAY","4","0","5155",,,,,"1","2018-12-04 18:31:21","516170"
"A2RFZPWXR7D4I5","cs_wg_mon_freq_v1_pilot1","3WJ1OXY92AHLG1CY9GTP1X8UBEEA8M","47","0","FEBRUARY","8","APRIL","2","0","1479",,,,,"0","2018-12-04 18:31:21","516171"
"A2RFZPWXR7D4I5","cs_wg_mon_freq_v1_pilot1","3WJ1OXY92AHLG1CY9GTP1X8UBEEA8M","48","0","MARCH","8","MAY","6","0","1030",,,,,"0","2018-12-04 18:31:24","516172"
"A2RFZPWXR7D4I5","cs_wg_mon_freq_v1_pilot1","3WJ1OXY92AHLG1CY9GTP1X8UBEEA8M","49","0","JUNE","8","OCTOBER","10","1","1426",,,,,"0","2018-12-04 18:31:27","516173"
"A2RFZPWXR7D4I5","cs_wg_mon_freq_v1_pilot1","3WJ1OXY92AHLG1CY9GTP1X8UBEEA8M","50","0","NOVEMBER","12","AUGUST","8","0","1103",,,,,"0","2018-12-04 18:31:30","516174"
"A2RFZPWXR7D4I5","cs_wg_mon_freq_v1_pilot1","3WJ1OXY92AHLG1CY9GTP1X8UBEEA8M","51","0","APRIL","2","SEPTEMBER","8","1","1316",,,,,"0","2018-12-04 18:31:33","516175"
"A2RFZPWXR7D4I5","cs_wg_mon_freq_v1_pilot1","3WJ1OXY92AHLG1CY9GTP1X8UBEEA8M","52","0","JANUARY","8","OCTOBER","10","1","1213",,,,,"0","2018-12-04 18:31:35","516176"
"A12GJUCS7AJ4K","cs_wg_mon_freq_v1_pilot1","3TMFV4NEP8FINEF1ALPHJM5L3XKW8M","30","0","OCTOBER","8","DECEMBER","12","1","14316",,,,,"1","2018-12-04 18:31:37","516177"
"A2RFZPWXR7D4I5","cs_wg_mon_freq_v1_pilot1","3WJ1OXY92AHLG1CY9GTP1X8UBEEA8M","53","0","NOVEMBER","12","AUGUST","8","0","1453",,,,,"0","2018-12-04 18:31:38","516178"
"A2RFZPWXR7D4I5","cs_wg_mon_freq_v1_pilot1","3WJ1OXY92AHLG1CY9GTP1X8UBEEA8M","54","0","MAY","6","MARCH","8","1","1517",,,,,"0","2018-12-04 18:31:41","516179"
"A2RFZPWXR7D4I5","cs_wg_mon_freq_v1_pilot1","3WJ1OXY92AHLG1CY9GTP1X8UBEEA8M","55","0","OCTOBER","10","JANUARY","8","0","1754",,,,,"0","2018-12-04 18:31:44","516180"
"A2RFZPWXR7D4I5","cs_wg_mon_freq_v1_pilot1","3WJ1OXY92AHLG1CY9GTP1X8UBEEA8M","56","0","SEPTEMBER","8","MAY","6","0","883",,,,,"0","2018-12-04 18:31:47","516181"
"A12GJUCS7AJ4K","cs_wg_mon_freq_v1_pilot1","3TMFV4NEP8FINEF1ALPHJM5L3XKW8M","31","0","JUNE","8","SEPTEMBER","14","1","7619",,,,,"1","2018-12-04 18:31:48","516182"
"A2RFZPWXR7D4I5","cs_wg_mon_freq_v1_pilot1","3WJ1OXY92AHLG1CY9GTP1X8UBEEA8M","57","0","JUNE","8","DECEMBER","4","1","1818",,,,,"0","2018-12-04 18:31:50","516183"
"A2RFZPWXR7D4I5","cs_wg_mon_freq_v1_pilot1","3WJ1OXY92AHLG1CY9GTP1X8UBEEA8M","58","0","JUNE","8","DECEMBER","4","0","1039",,,,,"0","2018-12-04 18:31:53","516184"
"A2RFZPWXR7D4I5","cs_wg_mon_freq_v1_pilot1","3WJ1OXY92AHLG1CY9GTP1X8UBEEA8M","59","0","NOVEMBER","12","AUGUST","8","0","920",,,,,"0","2018-12-04 18:31:55","516185"
"A12GJUCS7AJ4K","cs_wg_mon_freq_v1_pilot1","3TMFV4NEP8FINEF1ALPHJM5L3XKW8M","32","0","JANUARY","10","JULY","8","0","5998",,,,,"1","2018-12-04 18:31:56","516186"
"A2RFZPWXR7D4I5","cs_wg_mon_freq_v1_pilot1","3WJ1OXY92AHLG1CY9GTP1X8UBEEA8M","60","0","JANUARY","8","MAY","6","0","952",,,,,"0","2018-12-04 18:31:57","516187"
"A2RFZPWXR7D4I5","cs_wg_mon_freq_v1_pilot1","3WJ1OXY92AHLG1CY9GTP1X8UBEEA8M","61","0","NOVEMBER","12","JUNE","8","0","1659",,,,,"0","2018-12-04 18:32:01","516188"
"A12GJUCS7AJ4K","cs_wg_mon_freq_v1_pilot1","3TMFV4NEP8FINEF1ALPHJM5L3XKW8M","33","0","AUGUST","8","SEPTEMBER","14","1","4118",,,,,"1","2018-12-04 18:32:03","516189"
"A2RFZPWXR7D4I5","cs_wg_mon_freq_v1_pilot1","3WJ1OXY92AHLG1CY9GTP1X8UBEEA8M","62","0","MARCH","8","JULY","14","1","5459",,,,,"0","2018-12-04 18:32:08","516190"
"A12GJUCS7AJ4K","cs_wg_mon_freq_v1_pilot1","3TMFV4NEP8FINEF1ALPHJM5L3XKW8M","34","0","AUGUST","8","DECEMBER","12","1","4571",,,,,"1","2018-12-04 18:32:10","516191"
"A2RFZPWXR7D4I5","cs_wg_mon_freq_v1_pilot1","3WJ1OXY92AHLG1CY9GTP1X8UBEEA8M","63","0","NOVEMBER","12","MARCH","8","0","1165",,,,,"0","2018-12-04 18:32:11","516192"
"A2RFZPWXR7D4I5","cs_wg_mon_freq_v1_pilot1","3WJ1OXY92AHLG1CY9GTP1X8UBEEA8M","64","0","APRIL","2","SEPTEMBER","8","1","1367",,,,,"0","2018-12-04 18:32:13","516193"
"A2RFZPWXR7D4I5","cs_wg_mon_freq_v1_pilot1","3WJ1OXY92AHLG1CY9GTP1X8UBEEA8M","65","0","MARCH","8","JULY","14","1","959",,,,,"0","2018-12-04 18:32:16","516194"
"A12GJUCS7AJ4K","cs_wg_mon_freq_v1_pilot1","3TMFV4NEP8FINEF1ALPHJM5L3XKW8M","35","0","FEBRUARY","8","DECEMBER","12","1","6281",,,,,"1","2018-12-04 18:32:18","516195"
"A2RFZPWXR7D4I5","cs_wg_mon_freq_v1_pilot1","3WJ1OXY92AHLG1CY9GTP1X8UBEEA8M","66","0","MARCH","8","DECEMBER","4","0","2750",,,,,"0","2018-12-04 18:32:20","516196"
"A2RFZPWXR7D4I5","cs_wg_mon_freq_v1_pilot1","3WJ1OXY92AHLG1CY9GTP1X8UBEEA8M","67","0","JULY","14","JUNE","8","0","1261",,,,,"0","2018-12-04 18:32:23","516197"
"A2RFZPWXR7D4I5","cs_wg_mon_freq_v1_pilot1","3WJ1OXY92AHLG1CY9GTP1X8UBEEA8M","68","0","OCTOBER","10","SEPTEMBER","8","0","721",,,,,"0","2018-12-04 18:32:25","516198"
"A12GJUCS7AJ4K","cs_wg_mon_freq_v1_pilot1","3TMFV4NEP8FINEF1ALPHJM5L3XKW8M","36","0","JULY","8","JANUARY","10","1","5355",,,,,"1","2018-12-04 18:32:27","516199"
"A2RFZPWXR7D4I5","cs_wg_mon_freq_v1_pilot1","3WJ1OXY92AHLG1CY9GTP1X8UBEEA8M","69","0","JULY","14","MARCH","8","0","995",,,,,"0","2018-12-04 18:32:28","516200"
"A2RFZPWXR7D4I5","cs_wg_mon_freq_v1_pilot1","3WJ1OXY92AHLG1CY9GTP1X8UBEEA8M","70","0","AUGUST","8","JULY","14","1","1581",,,,,"0","2018-12-04 18:32:31","516201"
"A2RFZPWXR7D4I5","cs_wg_mon_freq_v1_pilot1","3WJ1OXY92AHLG1CY9GTP1X8UBEEA8M","71","0","AUGUST","8","OCTOBER","10","1","1020",,,,,"0","2018-12-04 18:32:33","516202"
"A12GJUCS7AJ4K","cs_wg_mon_freq_v1_pilot1","3TMFV4NEP8FINEF1ALPHJM5L3XKW8M","37","0","DECEMBER","12","NOVEMBER","8","0","4352",,,,,"1","2018-12-04 18:32:33","516203"
"A2RFZPWXR7D4I5","cs_wg_mon_freq_v1_pilot1","3WJ1OXY92AHLG1CY9GTP1X8UBEEA8M","72","0","DECEMBER","4","JUNE","8","1","3545",,,,,"0","2018-12-04 18:32:38","516204"
"A12GJUCS7AJ4K","cs_wg_mon_freq_v1_pilot1","3TMFV4NEP8FINEF1ALPHJM5L3XKW8M","38","0","NOVEMBER","8","DECEMBER","12","1","4393",,,,,"1","2018-12-04 18:32:40","516205"
"A1OSUDB78PPKJV","cs_wg_mon_freq_v1_pilot1","3D8YOU6S9ELIRW78M6DIHKOXCMGU6W","0","0","OCTOBER","2","JULY","8","1","11813",,,,,"1","2018-12-04 18:32:41","516206"
"A2RFZPWXR7D4I5","cs_wg_mon_freq_v1_pilot1","3WJ1OXY92AHLG1CY9GTP1X8UBEEA8M","73","0","NOVEMBER","12","AUGUST","8","0","1597",,,,,"0","2018-12-04 18:32:41","516207"
"A2RFZPWXR7D4I5","cs_wg_mon_freq_v1_pilot1","3WJ1OXY92AHLG1CY9GTP1X8UBEEA8M","74","0","NOVEMBER","12","JANUARY","8","0","990",,,,,"0","2018-12-04 18:32:44","516208"
"A2RFZPWXR7D4I5","cs_wg_mon_freq_v1_pilot1","3WJ1OXY92AHLG1CY9GTP1X8UBEEA8M","75","0","OCTOBER","10","JUNE","8","0","920",,,,,"0","2018-12-04 18:32:46","516209"
"A12GJUCS7AJ4K","cs_wg_mon_freq_v1_pilot1","3TMFV4NEP8FINEF1ALPHJM5L3XKW8M","39","0","AUGUST","8","JANUARY","10","1","4655",,,,,"1","2018-12-04 18:32:48","516210"
"A2RFZPWXR7D4I5","cs_wg_mon_freq_v1_pilot1","3WJ1OXY92AHLG1CY9GTP1X8UBEEA8M","76","0","DECEMBER","4","AUGUST","8","0","3350",,,,,"0","2018-12-04 18:32:52","516211"
"A1OSUDB78PPKJV","cs_wg_mon_freq_v1_pilot1","3D8YOU6S9ELIRW78M6DIHKOXCMGU6W","1","0","MAY","8","SEPTEMBER","12","1","3337",,,,,"1","2018-12-04 18:32:52","516212"
"A2RFZPWXR7D4I5","cs_wg_mon_freq_v1_pilot1","3WJ1OXY92AHLG1CY9GTP1X8UBEEA8M","77","0","JANUARY","8","OCTOBER","10","1","1390",,,,,"0","2018-12-04 18:32:55","516213"
"A2RFZPWXR7D4I5","cs_wg_mon_freq_v1_pilot1","3WJ1OXY92AHLG1CY9GTP1X8UBEEA8M","78","0","JANUARY","8","OCTOBER","10","1","4428",,,,,"0","2018-12-04 18:33:02","516214"
"A12GJUCS7AJ4K","cs_wg_mon_freq_v1_pilot1","3TMFV4NEP8FINEF1ALPHJM5L3XKW8M","40","0","FEBRUARY","8","MAY","4","0","8407",,,,,"0","2018-12-04 18:33:03","516215"
"A2RFZPWXR7D4I5","cs_wg_mon_freq_v1_pilot1","3WJ1OXY92AHLG1CY9GTP1X8UBEEA8M","79","0","FEBRUARY","8","NOVEMBER","12","1","821",,,,,"0","2018-12-04 18:33:05","516216"
"A2RFZPWXR7D4I5","cs_wg_mon_freq_v1_pilot1","3WJ1OXY92AHLG1CY9GTP1X8UBEEA8M","80","0","AUGUST","8","NOVEMBER","12","1","833",,,,,"0","2018-12-04 18:33:07","516217"
"A1OSUDB78PPKJV","cs_wg_mon_freq_v1_pilot1","3D8YOU6S9ELIRW78M6DIHKOXCMGU6W","2","0","NOVEMBER","14","APRIL","8","0","9112",,,,,"1","2018-12-04 18:33:10","516218"
"A2RFZPWXR7D4I5","cs_wg_mon_freq_v1_pilot1","3WJ1OXY92AHLG1CY9GTP1X8UBEEA8M","81","0","MARCH","8","APRIL","2","0","3392",,,,,"0","2018-12-04 18:33:12","516219"
"A12GJUCS7AJ4K","cs_wg_mon_freq_v1_pilot1","3TMFV4NEP8FINEF1ALPHJM5L3XKW8M","41","0","SEPTEMBER","14","FEBRUARY","8","0","8889",,,,,"0","2018-12-04 18:33:14","516220"
"A2RFZPWXR7D4I5","cs_wg_mon_freq_v1_pilot1","3WJ1OXY92AHLG1CY9GTP1X8UBEEA8M","82","0","MARCH","8","JULY","14","1","2498",,,,,"0","2018-12-04 18:33:16","516221"
"A12GJUCS7AJ4K","cs_wg_mon_freq_v1_pilot1","3TMFV4NEP8FINEF1ALPHJM5L3XKW8M","42","0","JANUARY","10","OCTOBER","8","0","4737",,,,,"0","2018-12-04 18:33:21","516222"
"A2RFZPWXR7D4I5","cs_wg_mon_freq_v1_pilot1","3WJ1OXY92AHLG1CY9GTP1X8UBEEA8M","83","0","APRIL","2","JUNE","8","1","3989",,,,,"0","2018-12-04 18:33:22","516223"
"A2RFZPWXR7D4I5","cs_wg_mon_freq_v1_pilot1","3WJ1OXY92AHLG1CY9GTP1X8UBEEA8M","84","0","APRIL","2","SEPTEMBER","8","1","1361",,,,,"0","2018-12-04 18:33:25","516224"
