"subject","version","assignmentId","trial","trial_type","word","value","alt","choice","rt","resp","resp2","stamp","id"
"A10O5YR01H865K","cs_wg_v3_real3","336YQZE83VF3VK2L8LCRY4TZTV75M2","0","0","TRAFFIC","0","5","1","4663","traffic","0","2017-05-02 21:16:08","44708"
"A10O5YR01H865K","cs_wg_v3_real3","336YQZE83VF3VK2L8LCRY4TZTV75M2","1","0","COMMUNITY","8","5","0","5576","community","8","2017-05-02 21:16:28","44709"
"A10O5YR01H865K","cs_wg_v3_real3","336YQZE83VF3VK2L8LCRY4TZTV75M2","2","0","BASKET","10","5","0","2552","basket","10","2017-05-02 21:16:41","44710"
"A10O5YR01H865K","cs_wg_v3_real3","336YQZE83VF3VK2L8LCRY4TZTV75M2","3","0","UMBRELLA","10","5","0","2264","umbrella","10","2017-05-02 21:16:54","44711"
"A10O5YR01H865K","cs_wg_v3_real3","336YQZE83VF3VK2L8LCRY4TZTV75M2","4","0","HELICOPTER","1","5","0","3123","helicopter","1","2017-05-02 21:17:10","44712"
"A10O5YR01H865K","cs_wg_v3_real3","336YQZE83VF3VK2L8LCRY4TZTV75M2","5","0","WEDDING","8","5","0","2627","wedding","8","2017-05-02 21:17:22","44713"
"A10O5YR01H865K","cs_wg_v3_real3","336YQZE83VF3VK2L8LCRY4TZTV75M2","6","0","MACHINE","0","5","1","4694","machine","0","2017-05-02 21:17:37","44714"
"A10O5YR01H865K","cs_wg_v3_real3","336YQZE83VF3VK2L8LCRY4TZTV75M2","7","0","BOOKSHELF","2","5","1","5283","bookshelf","2","2017-05-02 21:17:52","44715"
"A10O5YR01H865K","cs_wg_v3_real3","336YQZE83VF3VK2L8LCRY4TZTV75M2","8","0","UMBRELLA","10","5","0","2177","umbrella","10","2017-05-02 21:18:04","44716"
"A10O5YR01H865K","cs_wg_v3_real3","336YQZE83VF3VK2L8LCRY4TZTV75M2","9","0","STRUCTURE","1","5","1","3129","structure","1","2017-05-02 21:18:16","44717"
"A10O5YR01H865K","cs_wg_v3_real3","336YQZE83VF3VK2L8LCRY4TZTV75M2","10","0","UMBRELLA","10","5","0","1599","umbrella","10","2017-05-02 21:18:30","44718"
"A10O5YR01H865K","cs_wg_v3_real3","336YQZE83VF3VK2L8LCRY4TZTV75M2","11","0","UMBRELLA","10","5","0","1683","umbrella","10","2017-05-02 21:18:41","44719"
"A10O5YR01H865K","cs_wg_v3_real3","336YQZE83VF3VK2L8LCRY4TZTV75M2","12","0","WEDDING","8","5","0","2350","wedding","8","2017-05-02 21:18:51","44720"
"A10O5YR01H865K","cs_wg_v3_real3","336YQZE83VF3VK2L8LCRY4TZTV75M2","13","0","LADDER","9","5","0","3327","ladder","9","2017-05-02 21:19:03","44721"
"A10O5YR01H865K","cs_wg_v3_real3","336YQZE83VF3VK2L8LCRY4TZTV75M2","14","0","COMMUNITY","8","5","0","1352","community","8","2017-05-02 21:19:13","44722"
"A10O5YR01H865K","cs_wg_v3_real3","336YQZE83VF3VK2L8LCRY4TZTV75M2","15","0","COMMUNITY","8","5","0","1833","community","8","2017-05-02 21:19:23","44723"
"A10O5YR01H865K","cs_wg_v3_real3","336YQZE83VF3VK2L8LCRY4TZTV75M2","16","0","MACHINE","0","5","1","3468","machine","0","2017-05-02 21:19:37","44724"
"A10O5YR01H865K","cs_wg_v3_real3","336YQZE83VF3VK2L8LCRY4TZTV75M2","17","0","DOORWAY","10","5","1","4342","doorway","10","2017-05-02 21:19:51","44725"
"A10O5YR01H865K","cs_wg_v3_real3","336YQZE83VF3VK2L8LCRY4TZTV75M2","18","0","BOOKSHELF","2","5","1","3135","bookshelf","2","2017-05-02 21:20:05","44726"
"A10O5YR01H865K","cs_wg_v3_real3","336YQZE83VF3VK2L8LCRY4TZTV75M2","19","0","DOORWAY","10","5","0","2525","doorway","10","2017-05-02 21:20:16","44727"
"A10O5YR01H865K","cs_wg_v3_real3","336YQZE83VF3VK2L8LCRY4TZTV75M2","20","0","HELICOPTER","1","5","1","7810","helicopter","1","2017-05-02 21:20:34","44728"
"A10O5YR01H865K","cs_wg_v3_real3","336YQZE83VF3VK2L8LCRY4TZTV75M2","21","0","FOOTBALL","9","5","0","2380","football","9","2017-05-02 21:20:46","44729"
"A10O5YR01H865K","cs_wg_v3_real3","336YQZE83VF3VK2L8LCRY4TZTV75M2","22","0","BOOKSHELF","2","5","1","2665","bookself","2","2017-05-02 21:20:57","44730"
"A10O5YR01H865K","cs_wg_v3_real3","336YQZE83VF3VK2L8LCRY4TZTV75M2","23","0","KEYBOARD","0","5","0","3828","keyboard","0","2017-05-02 21:21:12","44731"
"A10O5YR01H865K","cs_wg_v3_real3","336YQZE83VF3VK2L8LCRY4TZTV75M2","24","0","TRAFFIC","0","5","1","1632","traffic","0","2017-05-02 21:21:20","44732"
"A10O5YR01H865K","cs_wg_v3_real3","336YQZE83VF3VK2L8LCRY4TZTV75M2","25","0","KEYBOARD","0","5","1","1596","keyboard","0","2017-05-02 21:21:30","44733"
"A10O5YR01H865K","cs_wg_v3_real3","336YQZE83VF3VK2L8LCRY4TZTV75M2","26","0","HELICOPTER","1","5","1","3193","helicopter","1","2017-05-02 21:21:45","44734"
"A1MVMCWGWM4FM9","cs_wg_v3_real3","333U7HK6I9G8YPBTKUHIGOPA2IADJE","0","0","COMMUNITY","0","5","0","3853","community","0","2017-05-02 21:21:54","44735"
"A10O5YR01H865K","cs_wg_v3_real3","336YQZE83VF3VK2L8LCRY4TZTV75M2","27","0","KEYBOARD","0","5","1","2178","keyboard","0","2017-05-02 21:21:58","44736"
"A10O5YR01H865K","cs_wg_v3_real3","336YQZE83VF3VK2L8LCRY4TZTV75M2","28","0","BOOKSHELF","2","5","1","1705","bookshelf","2","2017-05-02 21:22:08","44737"
"A1MVMCWGWM4FM9","cs_wg_v3_real3","333U7HK6I9G8YPBTKUHIGOPA2IADJE","1","0","COMMUNITY","0","5","1","5654","community","0","2017-05-02 21:22:10","44738"
"A10O5YR01H865K","cs_wg_v3_real3","336YQZE83VF3VK2L8LCRY4TZTV75M2","29","0","LADDER","9","5","0","2069","ladder","9","2017-05-02 21:22:17","44739"
"A1MVMCWGWM4FM9","cs_wg_v3_real3","333U7HK6I9G8YPBTKUHIGOPA2IADJE","2","0","UMBRELLA","10","5","0","4825","umbrella","10","2017-05-02 21:22:24","44740"
"A10O5YR01H865K","cs_wg_v3_real3","336YQZE83VF3VK2L8LCRY4TZTV75M2","30","0","BOOKSHELF","2","5","1","2013","bookshelf","2","2017-05-02 21:22:27","44741"
"A1MVMCWGWM4FM9","cs_wg_v3_real3","333U7HK6I9G8YPBTKUHIGOPA2IADJE","3","0","STOMACH","10","5","0","2621","stomach","10","2017-05-02 21:22:36","44742"
"A10O5YR01H865K","cs_wg_v3_real3","336YQZE83VF3VK2L8LCRY4TZTV75M2","31","0","FOOTBALL","9","5","0","3763","football","9","2017-05-02 21:22:40","44743"
"A1MVMCWGWM4FM9","cs_wg_v3_real3","333U7HK6I9G8YPBTKUHIGOPA2IADJE","4","0","BASKET","2","5","0","1477","basket","2","2017-05-02 21:22:46","44744"
"A10O5YR01H865K","cs_wg_v3_real3","336YQZE83VF3VK2L8LCRY4TZTV75M2","32","0","DOORWAY","10","5","0","3262","doorway","10","2017-05-02 21:22:52","44745"
"A1MVMCWGWM4FM9","cs_wg_v3_real3","333U7HK6I9G8YPBTKUHIGOPA2IADJE","5","0","BASKET","2","5","1","1983","basket","2","2017-05-02 21:22:57","44746"
"A10O5YR01H865K","cs_wg_v3_real3","336YQZE83VF3VK2L8LCRY4TZTV75M2","33","0","KEYBOARD","0","5","1","2957","keyboard","0","2017-05-02 21:23:03","44747"
"A1MVMCWGWM4FM9","cs_wg_v3_real3","333U7HK6I9G8YPBTKUHIGOPA2IADJE","6","0","UMBRELLA","10","5","0","2421","umbrella","10","2017-05-02 21:23:08","44748"
"A10O5YR01H865K","cs_wg_v3_real3","336YQZE83VF3VK2L8LCRY4TZTV75M2","34","0","LADDER","9","5","0","1739","ladder","9","2017-05-02 21:23:12","44749"
"A1MVMCWGWM4FM9","cs_wg_v3_real3","333U7HK6I9G8YPBTKUHIGOPA2IADJE","7","0","MACHINE","9","5","0","1621","machine","9","2017-05-02 21:23:17","44750"
"A10O5YR01H865K","cs_wg_v3_real3","336YQZE83VF3VK2L8LCRY4TZTV75M2","35","0","LADDER","9","5","0","1521","ladder","9","2017-05-02 21:23:21","44751"
"A10O5YR01H865K","cs_wg_v3_real3","336YQZE83VF3VK2L8LCRY4TZTV75M2","36","0","FOOTBALL","9","5","0","1630","football","9","2017-05-02 21:23:31","44752"
"A1MVMCWGWM4FM9","cs_wg_v3_real3","333U7HK6I9G8YPBTKUHIGOPA2IADJE","8","0","DOORWAY","0","5","0","1632","doorway","0","2017-05-02 21:23:31","44753"
"A1K75ALN5NQIJM","cs_wg_v3_real3","3H8DHMCCW9C399HB2FHUH3PNH7ADKD","0","0","KEYBOARD","0","5","0","6451","keyboard","0","2017-05-02 21:23:36","44754"
"A1MVMCWGWM4FM9","cs_wg_v3_real3","333U7HK6I9G8YPBTKUHIGOPA2IADJE","9","0","UMBRELLA","10","5","0","1297","umbrella","10","2017-05-02 21:23:40","44755"
"A10O5YR01H865K","cs_wg_v3_real3","336YQZE83VF3VK2L8LCRY4TZTV75M2","37","0","TRAFFIC","0","5","1","3757","traffic","0","2017-05-02 21:23:42","44756"
"A1K75ALN5NQIJM","cs_wg_v3_real3","3H8DHMCCW9C399HB2FHUH3PNH7ADKD","1","0","WEDDING","0","5","0","2486","wedding","0","2017-05-02 21:23:48","44757"
"A10O5YR01H865K","cs_wg_v3_real3","336YQZE83VF3VK2L8LCRY4TZTV75M2","38","0","MACHINE","0","5","1","1523","machine","0","2017-05-02 21:23:50","44758"
"A1MVMCWGWM4FM9","cs_wg_v3_real3","333U7HK6I9G8YPBTKUHIGOPA2IADJE","10","0","KEYBOARD","1","5","1","2258","keyboard","1","2017-05-02 21:23:52","44759"
"A10O5YR01H865K","cs_wg_v3_real3","336YQZE83VF3VK2L8LCRY4TZTV75M2","39","0","MACHINE","0","5","1","1565","machine","0","2017-05-02 21:24:01","44760"
"A1K75ALN5NQIJM","cs_wg_v3_real3","3H8DHMCCW9C399HB2FHUH3PNH7ADKD","2","0","COMMUNITY","8","5","0","3868","community","8","2017-05-02 21:24:04","44761"
"A1MVMCWGWM4FM9","cs_wg_v3_real3","333U7HK6I9G8YPBTKUHIGOPA2IADJE","11","0","COMMUNITY","0","5","1","5523","community","0","2017-05-02 21:24:05","44762"
"A10O5YR01H865K","cs_wg_v3_real3","336YQZE83VF3VK2L8LCRY4TZTV75M2","40","0","WEDDING","8","5","0","1318","wedding","8","2017-05-02 21:24:09","44763"
"A1K75ALN5NQIJM","cs_wg_v3_real3","3H8DHMCCW9C399HB2FHUH3PNH7ADKD","3","0","STRUCTURE","8","5","0","2181","structure","8","2017-05-02 21:24:15","44764"
"A1MVMCWGWM4FM9","cs_wg_v3_real3","333U7HK6I9G8YPBTKUHIGOPA2IADJE","12","0","WEDDING","10","5","1","2083","wedding","10","2017-05-02 21:24:16","44765"
"A10O5YR01H865K","cs_wg_v3_real3","336YQZE83VF3VK2L8LCRY4TZTV75M2","41","0","BOOKSHELF","2","5","1","4086","bookshelf","2","2017-05-02 21:24:21","44766"
"A1K75ALN5NQIJM","cs_wg_v3_real3","3H8DHMCCW9C399HB2FHUH3PNH7ADKD","4","0","STRUCTURE","8","5","0","1862","structure","8","2017-05-02 21:24:24","44767"
"A1MVMCWGWM4FM9","cs_wg_v3_real3","333U7HK6I9G8YPBTKUHIGOPA2IADJE","13","0","FOOTBALL","8","5","1","1562","football","8","2017-05-02 21:24:28","44768"
"A10O5YR01H865K","cs_wg_v3_real3","336YQZE83VF3VK2L8LCRY4TZTV75M2","42","0","STRUCTURE","1","5","1","3879","structure","1","2017-05-02 21:24:32","44769"
"A1K75ALN5NQIJM","cs_wg_v3_real3","3H8DHMCCW9C399HB2FHUH3PNH7ADKD","5","0","BASKET","10","5","0","1478","basket","10","2017-05-02 21:24:34","44770"
"A1MVMCWGWM4FM9","cs_wg_v3_real3","333U7HK6I9G8YPBTKUHIGOPA2IADJE","14","0","STOMACH","10","5","0","2735","stomach","10","2017-05-02 21:24:37","44771"
"A10O5YR01H865K","cs_wg_v3_real3","336YQZE83VF3VK2L8LCRY4TZTV75M2","43","0","MACHINE","0","5","1","1602","machine","0","2017-05-02 21:24:43","44772"
"A1K75ALN5NQIJM","cs_wg_v3_real3","3H8DHMCCW9C399HB2FHUH3PNH7ADKD","6","0","UMBRELLA","2","5","0","1558","umbrella","2","2017-05-02 21:24:44","44773"
"A1MVMCWGWM4FM9","cs_wg_v3_real3","333U7HK6I9G8YPBTKUHIGOPA2IADJE","15","0","BOOKSHELF","8","5","1","2274","bookshelf","8","2017-05-02 21:24:49","44774"
"A1K75ALN5NQIJM","cs_wg_v3_real3","3H8DHMCCW9C399HB2FHUH3PNH7ADKD","7","0","BASKET","10","5","0","1804","basket","10","2017-05-02 21:24:53","44775"
"A10O5YR01H865K","cs_wg_v3_real3","336YQZE83VF3VK2L8LCRY4TZTV75M2","44","0","STOMACH","2","5","1","3656","stomach","2","2017-05-02 21:24:54","44776"
"A1MVMCWGWM4FM9","cs_wg_v3_real3","333U7HK6I9G8YPBTKUHIGOPA2IADJE","16","0","TRAFFIC","2","5","1","2948","traffic","2","2017-05-02 21:24:59","44777"
"A1K75ALN5NQIJM","cs_wg_v3_real3","3H8DHMCCW9C399HB2FHUH3PNH7ADKD","8","0","BASKET","10","5","0","1156","basket","10","2017-05-02 21:25:01","44778"
"A10O5YR01H865K","cs_wg_v3_real3","336YQZE83VF3VK2L8LCRY4TZTV75M2","45","0","TRAFFIC","0","5","1","1404","traffic","0","2017-05-02 21:25:02","44779"
"A1MVMCWGWM4FM9","cs_wg_v3_real3","333U7HK6I9G8YPBTKUHIGOPA2IADJE","17","0","WEDDING","10","5","0","2866","wedding","10","2017-05-02 21:25:09","44780"
"A10O5YR01H865K","cs_wg_v3_real3","336YQZE83VF3VK2L8LCRY4TZTV75M2","46","0","COMMUNITY","8","5","0","1386","community","8","2017-05-02 21:25:11","44781"
"A1K75ALN5NQIJM","cs_wg_v3_real3","3H8DHMCCW9C399HB2FHUH3PNH7ADKD","9","0","DOORWAY","1","5","0","8621","doorway","1","2017-05-02 21:25:17","44782"
"A1MVMCWGWM4FM9","cs_wg_v3_real3","333U7HK6I9G8YPBTKUHIGOPA2IADJE","18","0","HELICOPTER","9","5","1","1551","helicopter","9","2017-05-02 21:25:19","44783"
"A10O5YR01H865K","cs_wg_v3_real3","336YQZE83VF3VK2L8LCRY4TZTV75M2","47","0","FOOTBALL","9","5","0","4110","football","9","2017-05-02 21:25:23","44784"
"A1K75ALN5NQIJM","cs_wg_v3_real3","3H8DHMCCW9C399HB2FHUH3PNH7ADKD","10","0","BOOKSHELF","1","5","0","996","bookshelf","1","2017-05-02 21:25:27","44785"
"A1MVMCWGWM4FM9","cs_wg_v3_real3","333U7HK6I9G8YPBTKUHIGOPA2IADJE","19","0","DOORWAY","0","5","1","3477","doorway","0","2017-05-02 21:25:29","44786"
"A1K75ALN5NQIJM","cs_wg_v3_real3","3H8DHMCCW9C399HB2FHUH3PNH7ADKD","11","0","FOOTBALL","10","5","0","1296","football","10","2017-05-02 21:25:36","44787"
"A1MVMCWGWM4FM9","cs_wg_v3_real3","333U7HK6I9G8YPBTKUHIGOPA2IADJE","20","0","MACHINE","9","5","0","2701","machine","9","2017-05-02 21:25:39","44788"
"A10O5YR01H865K","cs_wg_v3_real3","336YQZE83VF3VK2L8LCRY4TZTV75M2","48","0","COMMUNITY","8","5","0","5025","community","8","2017-05-02 21:25:41","44789"
"A1K75ALN5NQIJM","cs_wg_v3_real3","3H8DHMCCW9C399HB2FHUH3PNH7ADKD","12","0","DOORWAY","1","5","1","3271","doorway","1","2017-05-02 21:25:48","44790"
"A10O5YR01H865K","cs_wg_v3_real3","336YQZE83VF3VK2L8LCRY4TZTV75M2","49","0","BASKET","10","5","0","1190","basket","10","2017-05-02 21:25:50","44791"
"A1MVMCWGWM4FM9","cs_wg_v3_real3","333U7HK6I9G8YPBTKUHIGOPA2IADJE","21","0","STRUCTURE","1","5","0","2540","structure","1","2017-05-02 21:25:52","44792"
"A1K75ALN5NQIJM","cs_wg_v3_real3","3H8DHMCCW9C399HB2FHUH3PNH7ADKD","13","0","KEYBOARD","0","5","1","2229","keyboard","0","2017-05-02 21:25:58","44793"
"A10O5YR01H865K","cs_wg_v3_real3","336YQZE83VF3VK2L8LCRY4TZTV75M2","50","0","WEDDING","8","5","0","1431","wedding","8","2017-05-02 21:26:00","44794"
"A1MVMCWGWM4FM9","cs_wg_v3_real3","333U7HK6I9G8YPBTKUHIGOPA2IADJE","22","0","WEDDING","10","5","0","2867","wedding","10","2017-05-02 21:26:02","44795"
"A1K75ALN5NQIJM","cs_wg_v3_real3","3H8DHMCCW9C399HB2FHUH3PNH7ADKD","14","0","COMMUNITY","8","5","0","1471","community","8","2017-05-02 21:26:07","44796"
"A10O5YR01H865K","cs_wg_v3_real3","336YQZE83VF3VK2L8LCRY4TZTV75M2","51","0","STRUCTURE","1","5","1","1741","structure","1","2017-05-02 21:26:10","44797"
"A1MVMCWGWM4FM9","cs_wg_v3_real3","333U7HK6I9G8YPBTKUHIGOPA2IADJE","23","0","LADDER","0","5","0","2318","ladder","0","2017-05-02 21:26:13","44798"
"A1K75ALN5NQIJM","cs_wg_v3_real3","3H8DHMCCW9C399HB2FHUH3PNH7ADKD","15","0","STOMACH","9","5","0","1157","stomach","8
9","2017-05-02 21:26:21","44799"
"A1MVMCWGWM4FM9","cs_wg_v3_real3","333U7HK6I9G8YPBTKUHIGOPA2IADJE","24","0","STRUCTURE","1","5","1","2590","structure","1","2017-05-02 21:26:22","44800"
"A10O5YR01H865K","cs_wg_v3_real3","336YQZE83VF3VK2L8LCRY4TZTV75M2","52","0","BASKET","10","5","0","5219","basket","10","2017-05-02 21:26:25","44801"
"A1K75ALN5NQIJM","cs_wg_v3_real3","3H8DHMCCW9C399HB2FHUH3PNH7ADKD","16","0","DOORWAY","1","5","0","1750","doorway","1","2017-05-02 21:26:30","44802"
"A1MVMCWGWM4FM9","cs_wg_v3_real3","333U7HK6I9G8YPBTKUHIGOPA2IADJE","25","0","MACHINE","9","5","0","2135","machine","9","2017-05-02 21:26:32","44803"
"A1K75ALN5NQIJM","cs_wg_v3_real3","3H8DHMCCW9C399HB2FHUH3PNH7ADKD","17","0","TRAFFIC","0","5","0","965","traffic","0","2017-05-02 21:26:39","44804"
"A1MVMCWGWM4FM9","cs_wg_v3_real3","333U7HK6I9G8YPBTKUHIGOPA2IADJE","26","0","KEYBOARD","1","5","1","2440","keyboard","1","2017-05-02 21:26:40","44805"
"A10O5YR01H865K","cs_wg_v3_real3","336YQZE83VF3VK2L8LCRY4TZTV75M2","53","0","FOOTBALL","9","5","0","6454","football","9","2017-05-02 21:26:41","44806"
"A1MVMCWGWM4FM9","cs_wg_v3_real3","333U7HK6I9G8YPBTKUHIGOPA2IADJE","27","0","BOOKSHELF","8","5","0","2408","bookshelf","8","2017-05-02 21:26:49","44807"
"A1K75ALN5NQIJM","cs_wg_v3_real3","3H8DHMCCW9C399HB2FHUH3PNH7ADKD","18","0","HELICOPTER","10","5","0","1831","helicopter","10","2017-05-02 21:26:52","44808"
"A10O5YR01H865K","cs_wg_v3_real3","336YQZE83VF3VK2L8LCRY4TZTV75M2","54","0","HELICOPTER","1","5","1","3393","helicopter","1","2017-05-02 21:26:54","44809"
"A1MVMCWGWM4FM9","cs_wg_v3_real3","333U7HK6I9G8YPBTKUHIGOPA2IADJE","28","0","TRAFFIC","2","5","1","2706","traffic","2","2017-05-02 21:26:58","44810"
"A1K75ALN5NQIJM","cs_wg_v3_real3","3H8DHMCCW9C399HB2FHUH3PNH7ADKD","19","0","HELICOPTER","10","5","0","1131","helicopter","10","2017-05-02 21:27:01","44811"
"A10O5YR01H865K","cs_wg_v3_real3","336YQZE83VF3VK2L8LCRY4TZTV75M2","55","0","COMMUNITY","8","5","0","2199","community","8","2017-05-02 21:27:07","44812"
"A1MVMCWGWM4FM9","cs_wg_v3_real3","333U7HK6I9G8YPBTKUHIGOPA2IADJE","29","0","BASKET","2","5","1","2637","basket","2","2017-05-02 21:27:07","44813"
"A1K75ALN5NQIJM","cs_wg_v3_real3","3H8DHMCCW9C399HB2FHUH3PNH7ADKD","20","0","UMBRELLA","2","5","0","3182","umbrella","2","2017-05-02 21:27:15","44814"
"A1MVMCWGWM4FM9","cs_wg_v3_real3","333U7HK6I9G8YPBTKUHIGOPA2IADJE","30","0","HELICOPTER","9","5","0","3201","helicopter","9","2017-05-02 21:27:17","44815"
"A10O5YR01H865K","cs_wg_v3_real3","336YQZE83VF3VK2L8LCRY4TZTV75M2","56","0","STOMACH","2","5","1","8969","stomach","2","2017-05-02 21:27:24","44816"
"A1K75ALN5NQIJM","cs_wg_v3_real3","3H8DHMCCW9C399HB2FHUH3PNH7ADKD","21","0","STOMACH","9","5","0","2851","stomach","9","2017-05-02 21:27:25","44817"
"A1MVMCWGWM4FM9","cs_wg_v3_real3","333U7HK6I9G8YPBTKUHIGOPA2IADJE","31","0","TRAFFIC","2","5","1","2617","traffic","2","2017-05-02 21:27:26","44818"
"A10O5YR01H865K","cs_wg_v3_real3","336YQZE83VF3VK2L8LCRY4TZTV75M2","57","0","WEDDING","8","5","0","969","wedding ","8","2017-05-02 21:27:33","44819"
"A1MVMCWGWM4FM9","cs_wg_v3_real3","333U7HK6I9G8YPBTKUHIGOPA2IADJE","32","0","BASKET","2","5","1","2727","basket","2","2017-05-02 21:27:34","44820"
"A1K75ALN5NQIJM","cs_wg_v3_real3","3H8DHMCCW9C399HB2FHUH3PNH7ADKD","22","0","HELICOPTER","10","5","0","2018","Helicopter","10","2017-05-02 21:27:35","44821"
"A10O5YR01H865K","cs_wg_v3_real3","336YQZE83VF3VK2L8LCRY4TZTV75M2","58","0","FOOTBALL","9","5","0","1502","football","9","2017-05-02 21:27:41","44822"
"A1K75ALN5NQIJM","cs_wg_v3_real3","3H8DHMCCW9C399HB2FHUH3PNH7ADKD","23","0","UMBRELLA","2","5","1","2422","umbrella","2","2017-05-02 21:27:46","44823"
"A1MVMCWGWM4FM9","cs_wg_v3_real3","333U7HK6I9G8YPBTKUHIGOPA2IADJE","33","0","FOOTBALL","8","5","0","2785","football","8","2017-05-02 21:27:47","44824"
"A10O5YR01H865K","cs_wg_v3_real3","336YQZE83VF3VK2L8LCRY4TZTV75M2","59","0","KEYBOARD","0","5","1","1423","keyboard","0","2017-05-02 21:27:51","44825"
"A1K75ALN5NQIJM","cs_wg_v3_real3","3H8DHMCCW9C399HB2FHUH3PNH7ADKD","24","0","TRAFFIC","0","5","1","2421","traffic","0","2017-05-02 21:27:55","44826"
"A1MVMCWGWM4FM9","cs_wg_v3_real3","333U7HK6I9G8YPBTKUHIGOPA2IADJE","34","0","WEDDING","10","5","0","1845","wedding","10","2017-05-02 21:27:56","44827"
"A10O5YR01H865K","cs_wg_v3_real3","336YQZE83VF3VK2L8LCRY4TZTV75M2","60","0","STOMACH","2","5","1","1439","stomach","2","2017-05-02 21:28:00","44828"
"A1K75ALN5NQIJM","cs_wg_v3_real3","3H8DHMCCW9C399HB2FHUH3PNH7ADKD","25","0","COMMUNITY","8","5","0","1237","community","8","2017-05-02 21:28:04","44829"
"A1MVMCWGWM4FM9","cs_wg_v3_real3","333U7HK6I9G8YPBTKUHIGOPA2IADJE","35","0","LADDER","0","5","1","4167","ladder","0","2017-05-02 21:28:06","44830"
"A10O5YR01H865K","cs_wg_v3_real3","336YQZE83VF3VK2L8LCRY4TZTV75M2","61","0","STOMACH","2","5","1","1528","stomach","2","2017-05-02 21:28:09","44831"
"A1K75ALN5NQIJM","cs_wg_v3_real3","3H8DHMCCW9C399HB2FHUH3PNH7ADKD","26","0","MACHINE","9","5","0","948","machine","9","2017-05-02 21:28:12","44832"
"A1MVMCWGWM4FM9","cs_wg_v3_real3","333U7HK6I9G8YPBTKUHIGOPA2IADJE","36","0","MACHINE","9","5","0","2622","machine","9","2017-05-02 21:28:15","44833"
"A1K75ALN5NQIJM","cs_wg_v3_real3","3H8DHMCCW9C399HB2FHUH3PNH7ADKD","27","0","STRUCTURE","8","5","0","1125","structure","8","2017-05-02 21:28:20","44834"
"A10O5YR01H865K","cs_wg_v3_real3","336YQZE83VF3VK2L8LCRY4TZTV75M2","62","0","UMBRELLA","10","5","0","5949","umbrella","10","2017-05-02 21:28:24","44835"
"A1MVMCWGWM4FM9","cs_wg_v3_real3","333U7HK6I9G8YPBTKUHIGOPA2IADJE","37","0","STOMACH","10","5","0","2365","stomach","10","2017-05-02 21:28:24","44836"
"A1K75ALN5NQIJM","cs_wg_v3_real3","3H8DHMCCW9C399HB2FHUH3PNH7ADKD","28","0","TRAFFIC","0","5","1","2899","traffic","0","2017-05-02 21:28:31","44837"
"A1MVMCWGWM4FM9","cs_wg_v3_real3","333U7HK6I9G8YPBTKUHIGOPA2IADJE","38","0","LADDER","0","5","1","3065","ladder","0","2017-05-02 21:28:34","44838"
"A10O5YR01H865K","cs_wg_v3_real3","336YQZE83VF3VK2L8LCRY4TZTV75M2","63","0","BOOKSHELF","2","5","1","4443","bookshelf","2","2017-05-02 21:28:38","44839"
"A1K75ALN5NQIJM","cs_wg_v3_real3","3H8DHMCCW9C399HB2FHUH3PNH7ADKD","29","0","LADDER","2","5","0","1335","ladder","2","2017-05-02 21:28:40","44840"
"A1MVMCWGWM4FM9","cs_wg_v3_real3","333U7HK6I9G8YPBTKUHIGOPA2IADJE","39","0","DOORWAY","0","5","1","3702","doorway","0","2017-05-02 21:28:46","44841"
"A1K75ALN5NQIJM","cs_wg_v3_real3","3H8DHMCCW9C399HB2FHUH3PNH7ADKD","30","0","STRUCTURE","8","5","0","1329","structure","8","2017-05-02 21:28:47","44842"
"A10O5YR01H865K","cs_wg_v3_real3","336YQZE83VF3VK2L8LCRY4TZTV75M2","64","0","DOORWAY","10","5","0","6254","doorway","10","2017-05-02 21:28:53","44843"
"A1MVMCWGWM4FM9","cs_wg_v3_real3","333U7HK6I9G8YPBTKUHIGOPA2IADJE","40","0","WEDDING","10","5","0","2269","wedding","10","2017-05-02 21:28:54","44844"
"A1K75ALN5NQIJM","cs_wg_v3_real3","3H8DHMCCW9C399HB2FHUH3PNH7ADKD","31","0","LADDER","2","5","1","2982","ladder","2","2017-05-02 21:28:58","44845"
"A10O5YR01H865K","cs_wg_v3_real3","336YQZE83VF3VK2L8LCRY4TZTV75M2","65","0","DOORWAY","10","5","0","2568","doorway","10","2017-05-02 21:29:04","44846"
"A1MVMCWGWM4FM9","cs_wg_v3_real3","333U7HK6I9G8YPBTKUHIGOPA2IADJE","41","0","BASKET","2","5","1","4464","basket","2","2017-05-02 21:29:05","44847"
"A1K75ALN5NQIJM","cs_wg_v3_real3","3H8DHMCCW9C399HB2FHUH3PNH7ADKD","32","0","DOORWAY","1","5","1","2148","doorway","1","2017-05-02 21:29:07","44848"
"A10O5YR01H865K","cs_wg_v3_real3","336YQZE83VF3VK2L8LCRY4TZTV75M2","66","0","BASKET","10","5","0","1294","basket","10","2017-05-02 21:29:13","44849"
"A1MVMCWGWM4FM9","cs_wg_v3_real3","333U7HK6I9G8YPBTKUHIGOPA2IADJE","42","0","LADDER","0","5","1","2579","ladder","0","2017-05-02 21:29:15","44850"
"A1K75ALN5NQIJM","cs_wg_v3_real3","3H8DHMCCW9C399HB2FHUH3PNH7ADKD","33","0","UMBRELLA","2","5","1","2236","umbrella","2","2017-05-02 21:29:16","44851"
"A10O5YR01H865K","cs_wg_v3_real3","336YQZE83VF3VK2L8LCRY4TZTV75M2","67","0","UMBRELLA","10","5","0","1170","umbrella","10","2017-05-02 21:29:22","44852"
"A1MVMCWGWM4FM9","cs_wg_v3_real3","333U7HK6I9G8YPBTKUHIGOPA2IADJE","43","0","BOOKSHELF","8","5","0","3644","bookshelf","8","2017-05-02 21:29:26","44853"
"A1K75ALN5NQIJM","cs_wg_v3_real3","3H8DHMCCW9C399HB2FHUH3PNH7ADKD","34","0","COMMUNITY","8","5","0","1302","community","8","2017-05-02 21:29:26","44854"
"A10O5YR01H865K","cs_wg_v3_real3","336YQZE83VF3VK2L8LCRY4TZTV75M2","68","0","TRAFFIC","0","5","1","1993","traffic","0","2017-05-02 21:29:32","44855"
"A1MVMCWGWM4FM9","cs_wg_v3_real3","333U7HK6I9G8YPBTKUHIGOPA2IADJE","44","0","BOOKSHELF","8","5","0","1674","bookshelf","8","2017-05-02 21:29:33","44856"
"A1K75ALN5NQIJM","cs_wg_v3_real3","3H8DHMCCW9C399HB2FHUH3PNH7ADKD","35","0","UMBRELLA","2","5","1","1141","umbrella","2","2017-05-02 21:29:34","44857"
"A10O5YR01H865K","cs_wg_v3_real3","336YQZE83VF3VK2L8LCRY4TZTV75M2","69","0","BOOKSHELF","2","5","1","2414","bookshelf","2","2017-05-02 21:29:41","44858"
"A1K75ALN5NQIJM","cs_wg_v3_real3","3H8DHMCCW9C399HB2FHUH3PNH7ADKD","36","0","WEDDING","0","5","0","1236","wedding","0","2017-05-02 21:29:43","44859"
"A1MVMCWGWM4FM9","cs_wg_v3_real3","333U7HK6I9G8YPBTKUHIGOPA2IADJE","45","0","KEYBOARD","1","5","1","2101","keyboard","1","2017-05-02 21:29:43","44860"
"A1MVMCWGWM4FM9","cs_wg_v3_real3","333U7HK6I9G8YPBTKUHIGOPA2IADJE","46","0","STRUCTURE","1","5","1","2590","structure","1","2017-05-02 21:29:51","44861"
"A1K75ALN5NQIJM","cs_wg_v3_real3","3H8DHMCCW9C399HB2FHUH3PNH7ADKD","37","0","FOOTBALL","10","5","0","1093","football","10","2017-05-02 21:29:52","44862"
"A10O5YR01H865K","cs_wg_v3_real3","336YQZE83VF3VK2L8LCRY4TZTV75M2","70","0","LADDER","9","5","0","1892","ladder","9","2017-05-02 21:29:52","44863"
"A1K75ALN5NQIJM","cs_wg_v3_real3","3H8DHMCCW9C399HB2FHUH3PNH7ADKD","38","0","MACHINE","9","5","0","1124","machine","9","2017-05-02 21:30:00","44864"
"A1MVMCWGWM4FM9","cs_wg_v3_real3","333U7HK6I9G8YPBTKUHIGOPA2IADJE","47","0","LADDER","0","5","1","1421","ladder","0","2017-05-02 21:30:01","44865"
"A10O5YR01H865K","cs_wg_v3_real3","336YQZE83VF3VK2L8LCRY4TZTV75M2","71","0","LADDER","9","5","0","3624","ladder","9","2017-05-02 21:30:03","44866"
"A1MVMCWGWM4FM9","cs_wg_v3_real3","333U7HK6I9G8YPBTKUHIGOPA2IADJE","48","0","STRUCTURE","1","5","1","1298","structure","1","2017-05-02 21:30:09","44867"
"A1K75ALN5NQIJM","cs_wg_v3_real3","3H8DHMCCW9C399HB2FHUH3PNH7ADKD","39","0","BOOKSHELF","1","5","1","2167","bookshelf","1","2017-05-02 21:30:09","44868"
"A10O5YR01H865K","cs_wg_v3_real3","336YQZE83VF3VK2L8LCRY4TZTV75M2","72","0","DOORWAY","10","5","0","1271","doorway","10","2017-05-02 21:30:12","44869"
"A1MVMCWGWM4FM9","cs_wg_v3_real3","333U7HK6I9G8YPBTKUHIGOPA2IADJE","49","0","COMMUNITY","0","5","1","2235","community","0","2017-05-02 21:30:17","44870"
"A1K75ALN5NQIJM","cs_wg_v3_real3","3H8DHMCCW9C399HB2FHUH3PNH7ADKD","40","0","LADDER","2","5","1","1273","ladder","2","2017-05-02 21:30:17","44871"
"A212LZYYBMG13U","cs_wg_v3_real3","3KWTYT08704JP2K089BCYREATQH5L0","0","0","KEYBOARD","9","5","0","4769","keyboard","9","2017-05-02 21:30:18","44872"
"A10O5YR01H865K","cs_wg_v3_real3","336YQZE83VF3VK2L8LCRY4TZTV75M2","73","0","TRAFFIC","0","5","1","2063","traffic","0","2017-05-02 21:30:21","44873"
"A1K75ALN5NQIJM","cs_wg_v3_real3","3H8DHMCCW9C399HB2FHUH3PNH7ADKD","41","0","STOMACH","9","5","0","1069","stomach","9","2017-05-02 21:30:25","44874"
"A1MVMCWGWM4FM9","cs_wg_v3_real3","333U7HK6I9G8YPBTKUHIGOPA2IADJE","50","0","KEYBOARD","1","5","1","2341","keyboard","1","2017-05-02 21:30:25","44875"
"A212LZYYBMG13U","cs_wg_v3_real3","3KWTYT08704JP2K089BCYREATQH5L0","1","0","WEDDING","0","5","0","1971","wedding","0","2017-05-02 21:30:27","44876"
"A10O5YR01H865K","cs_wg_v3_real3","336YQZE83VF3VK2L8LCRY4TZTV75M2","74","0","DOORWAY","10","5","0","1110","doorway","10","2017-05-02 21:30:30","44877"
"A1MVMCWGWM4FM9","cs_wg_v3_real3","333U7HK6I9G8YPBTKUHIGOPA2IADJE","51","0","WEDDING","10","5","0","1301","wedding","10","2017-05-02 21:30:32","44878"
"A1K75ALN5NQIJM","cs_wg_v3_real3","3H8DHMCCW9C399HB2FHUH3PNH7ADKD","42","0","HELICOPTER","10","5","0","1016","helicopter","10","2017-05-02 21:30:33","44879"
"A212LZYYBMG13U","cs_wg_v3_real3","3KWTYT08704JP2K089BCYREATQH5L0","2","0","STRUCTURE","0","5","0","966","structure","0","2017-05-02 21:30:35","44880"
"A1MVMCWGWM4FM9","cs_wg_v3_real3","333U7HK6I9G8YPBTKUHIGOPA2IADJE","52","0","TRAFFIC","2","5","1","2139","traffic","2","2017-05-02 21:30:41","44881"
"A1K75ALN5NQIJM","cs_wg_v3_real3","3H8DHMCCW9C399HB2FHUH3PNH7ADKD","43","0","STRUCTURE","8","5","0","1075","structure","8","2017-05-02 21:30:42","44882"
"A10O5YR01H865K","cs_wg_v3_real3","336YQZE83VF3VK2L8LCRY4TZTV75M2","75","0","WEDDING","8","5","0","3544","wedding","8","2017-05-02 21:30:43","44883"
"A212LZYYBMG13U","cs_wg_v3_real3","3KWTYT08704JP2K089BCYREATQH5L0","3","0","DOORWAY","8","5","0","1161","doorway","8","2017-05-02 21:30:44","44884"
"A1MVMCWGWM4FM9","cs_wg_v3_real3","333U7HK6I9G8YPBTKUHIGOPA2IADJE","53","0","MACHINE","9","5","0","2486","machine","9","2017-05-02 21:30:49","44885"
"A1K75ALN5NQIJM","cs_wg_v3_real3","3H8DHMCCW9C399HB2FHUH3PNH7ADKD","44","0","LADDER","2","5","1","1586","ladder","2","2017-05-02 21:30:51","44886"
"A212LZYYBMG13U","cs_wg_v3_real3","3KWTYT08704JP2K089BCYREATQH5L0","4","0","STOMACH","1","5","0","1269","stomach","1","2017-05-02 21:30:52","44887"
"A10O5YR01H865K","cs_wg_v3_real3","336YQZE83VF3VK2L8LCRY4TZTV75M2","76","0","STRUCTURE","1","5","1","1855","structure ","1","2017-05-02 21:30:53","44888"
"A1MVMCWGWM4FM9","cs_wg_v3_real3","333U7HK6I9G8YPBTKUHIGOPA2IADJE","54","0","DOORWAY","0","5","1","3106","doorway","0","2017-05-02 21:30:59","44889"
"A1K75ALN5NQIJM","cs_wg_v3_real3","3H8DHMCCW9C399HB2FHUH3PNH7ADKD","45","0","TRAFFIC","0","5","1","1688","traffic","0","2017-05-02 21:30:59","44890"
"A212LZYYBMG13U","cs_wg_v3_real3","3KWTYT08704JP2K089BCYREATQH5L0","5","0","HELICOPTER","8","5","0","1240","helicopter","8","2017-05-02 21:31:01","44891"
"A10O5YR01H865K","cs_wg_v3_real3","336YQZE83VF3VK2L8LCRY4TZTV75M2","77","0","STRUCTURE","1","5","1","1471","structure","1","2017-05-02 21:31:02","44892"
"A212LZYYBMG13U","cs_wg_v3_real3","3KWTYT08704JP2K089BCYREATQH5L0","6","0","FOOTBALL","10","5","0","1323","football","10","2017-05-02 21:31:08","44893"
"A1MVMCWGWM4FM9","cs_wg_v3_real3","333U7HK6I9G8YPBTKUHIGOPA2IADJE","55","0","UMBRELLA","10","5","0","2698","umbrella","10","2017-05-02 21:31:09","44894"
"A1K75ALN5NQIJM","cs_wg_v3_real3","3H8DHMCCW9C399HB2FHUH3PNH7ADKD","46","0","HELICOPTER","10","5","0","1968","helicopter","10","2017-05-02 21:31:10","44895"
"A10O5YR01H865K","cs_wg_v3_real3","336YQZE83VF3VK2L8LCRY4TZTV75M2","78","0","MACHINE","0","5","1","2014","machine","0","2017-05-02 21:31:14","44896"
"A212LZYYBMG13U","cs_wg_v3_real3","3KWTYT08704JP2K089BCYREATQH5L0","7","0","COMMUNITY","2","5","0","1009","community","2","2017-05-02 21:31:16","44897"
"A1K75ALN5NQIJM","cs_wg_v3_real3","3H8DHMCCW9C399HB2FHUH3PNH7ADKD","47","0","KEYBOARD","0","5","1","1397","keyboard","0","2017-05-02 21:31:19","44898"
"A1MVMCWGWM4FM9","cs_wg_v3_real3","333U7HK6I9G8YPBTKUHIGOPA2IADJE","56","0","BOOKSHELF","8","5","0","4475","bookshelf","8","2017-05-02 21:31:20","44899"
"A10O5YR01H865K","cs_wg_v3_real3","336YQZE83VF3VK2L8LCRY4TZTV75M2","79","0","STOMACH","2","5","1","1378","stomach","2","2017-05-02 21:31:23","44900"
"A212LZYYBMG13U","cs_wg_v3_real3","3KWTYT08704JP2K089BCYREATQH5L0","8","0","WEDDING","0","5","0","1525","wedding","0","2017-05-02 21:31:24","44901"
"A1K75ALN5NQIJM","cs_wg_v3_real3","3H8DHMCCW9C399HB2FHUH3PNH7ADKD","48","0","KEYBOARD","0","5","1","1270","keyboard","0","2017-05-02 21:31:27","44902"
"A1MVMCWGWM4FM9","cs_wg_v3_real3","333U7HK6I9G8YPBTKUHIGOPA2IADJE","57","0","TRAFFIC","2","5","1","3361","traffic","2","2017-05-02 21:31:29","44903"
"A212LZYYBMG13U","cs_wg_v3_real3","3KWTYT08704JP2K089BCYREATQH5L0","9","0","BOOKSHELF","9","5","0","956","bookshelf","9","2017-05-02 21:31:31","44904"
"A10O5YR01H865K","cs_wg_v3_real3","336YQZE83VF3VK2L8LCRY4TZTV75M2","80","0","COMMUNITY","8","5","0","1060","community","8","2017-05-02 21:31:32","44905"
"A1K75ALN5NQIJM","cs_wg_v3_real3","3H8DHMCCW9C399HB2FHUH3PNH7ADKD","49","0","KEYBOARD","0","5","1","1924","keyboard","0","2017-05-02 21:31:36","44906"
"A212LZYYBMG13U","cs_wg_v3_real3","3KWTYT08704JP2K089BCYREATQH5L0","10","0","MACHINE","10","5","0","910","machine","10","2017-05-02 21:31:38","44907"
"A1MVMCWGWM4FM9","cs_wg_v3_real3","333U7HK6I9G8YPBTKUHIGOPA2IADJE","58","0","HELICOPTER","9","5","0","2978","helicopter","9","2017-05-02 21:31:40","44908"
"A10O5YR01H865K","cs_wg_v3_real3","336YQZE83VF3VK2L8LCRY4TZTV75M2","81","0","WEDDING","8","5","0","1369","wedding ","8","2017-05-02 21:31:41","44909"
"A212LZYYBMG13U","cs_wg_v3_real3","3KWTYT08704JP2K089BCYREATQH5L0","11","0","KEYBOARD","9","5","0","853","keyboard","9","2017-05-02 21:31:45","44910"
"A1K75ALN5NQIJM","cs_wg_v3_real3","3H8DHMCCW9C399HB2FHUH3PNH7ADKD","50","0","KEYBOARD","0","5","1","1731","keyboard","0","2017-05-02 21:31:46","44911"
"A1MVMCWGWM4FM9","cs_wg_v3_real3","333U7HK6I9G8YPBTKUHIGOPA2IADJE","59","0","TRAFFIC","2","5","1","2132","traffic","2","2017-05-02 21:31:48","44912"
"A10O5YR01H865K","cs_wg_v3_real3","336YQZE83VF3VK2L8LCRY4TZTV75M2","82","0","HELICOPTER","1","5","1","2202","helicopter","1","2017-05-02 21:31:51","44913"
"A212LZYYBMG13U","cs_wg_v3_real3","3KWTYT08704JP2K089BCYREATQH5L0","12","0","UMBRELLA","1","5","0","755","umbrella","1","2017-05-02 21:31:52","44914"
"A1K75ALN5NQIJM","cs_wg_v3_real3","3H8DHMCCW9C399HB2FHUH3PNH7ADKD","51","0","WEDDING","0","5","1","4313","wedding","0","2017-05-02 21:31:57","44915"
"A1MVMCWGWM4FM9","cs_wg_v3_real3","333U7HK6I9G8YPBTKUHIGOPA2IADJE","60","0","DOORWAY","0","5","1","4652","doorway","0","2017-05-02 21:31:59","44916"
"A10O5YR01H865K","cs_wg_v3_real3","336YQZE83VF3VK2L8LCRY4TZTV75M2","83","0","MACHINE","0","5","1","1751","machine","0","2017-05-02 21:32:01","44917"
"A212LZYYBMG13U","cs_wg_v3_real3","3KWTYT08704JP2K089BCYREATQH5L0","13","0","COMMUNITY","2","5","1","3639","community","2","2017-05-02 21:32:05","44918"
"A1MVMCWGWM4FM9","cs_wg_v3_real3","333U7HK6I9G8YPBTKUHIGOPA2IADJE","61","0","STOMACH","10","5","0","1535","stomach","10","2017-05-02 21:32:07","44919"
"A1K75ALN5NQIJM","cs_wg_v3_real3","3H8DHMCCW9C399HB2FHUH3PNH7ADKD","52","0","TRAFFIC","0","5","1","1798","traffic","0","2017-05-02 21:32:07","44920"
"A10O5YR01H865K","cs_wg_v3_real3","336YQZE83VF3VK2L8LCRY4TZTV75M2","84","0","WEDDING","8","5","0","890","wedding","8","2017-05-02 21:32:10","44921"
"A212LZYYBMG13U","cs_wg_v3_real3","3KWTYT08704JP2K089BCYREATQH5L0","14","0","FOOTBALL","10","5","0","1112","football","10","2017-05-02 21:32:12","44922"
"A1K75ALN5NQIJM","cs_wg_v3_real3","3H8DHMCCW9C399HB2FHUH3PNH7ADKD","53","0","STOMACH","9","5","0","1142","stomach","9","2017-05-02 21:32:16","44923"
"A1MVMCWGWM4FM9","cs_wg_v3_real3","333U7HK6I9G8YPBTKUHIGOPA2IADJE","62","0","BOOKSHELF","8","5","0","1926","bookshelf","8","2017-05-02 21:32:16","44924"
"A10O5YR01H865K","cs_wg_v3_real3","336YQZE83VF3VK2L8LCRY4TZTV75M2","85","0","BASKET","10","5","0","948","basket","10","2017-05-02 21:32:18","44925"
"A212LZYYBMG13U","cs_wg_v3_real3","3KWTYT08704JP2K089BCYREATQH5L0","15","0","LADDER","2","5","0","1848","ladder","2","2017-05-02 21:32:19","44926"
"A1MVMCWGWM4FM9","cs_wg_v3_real3","333U7HK6I9G8YPBTKUHIGOPA2IADJE","63","0","HELICOPTER","9","5","0","2724","helicopter","9","2017-05-02 21:32:25","44927"
"A212LZYYBMG13U","cs_wg_v3_real3","3KWTYT08704JP2K089BCYREATQH5L0","16","0","STRUCTURE","0","5","0","1769","structure","0","2017-05-02 21:32:27","44928"
"A1K75ALN5NQIJM","cs_wg_v3_real3","3H8DHMCCW9C399HB2FHUH3PNH7ADKD","54","0","FOOTBALL","10","5","0","967","football","10","2017-05-02 21:32:28","44929"
"A10O5YR01H865K","cs_wg_v3_real3","336YQZE83VF3VK2L8LCRY4TZTV75M2","86","0","MACHINE","0","5","1","2788","machine","0","2017-05-02 21:32:29","44930"
"A1MVMCWGWM4FM9","cs_wg_v3_real3","333U7HK6I9G8YPBTKUHIGOPA2IADJE","64","0","KEYBOARD","1","5","1","2305","keyboard","1","2017-05-02 21:32:33","44931"
"A212LZYYBMG13U","cs_wg_v3_real3","3KWTYT08704JP2K089BCYREATQH5L0","17","0","BOOKSHELF","9","5","0","1013","bookshelf","9","2017-05-02 21:32:34","44932"
"A10O5YR01H865K","cs_wg_v3_real3","336YQZE83VF3VK2L8LCRY4TZTV75M2","87","0","BASKET","10","5","0","1732","basket","10","2017-05-02 21:32:38","44933"
"A1K75ALN5NQIJM","cs_wg_v3_real3","3H8DHMCCW9C399HB2FHUH3PNH7ADKD","55","0","UMBRELLA","2","5","1","3002","umbrella","2","2017-05-02 21:32:39","44934"
"A1MVMCWGWM4FM9","cs_wg_v3_real3","333U7HK6I9G8YPBTKUHIGOPA2IADJE","65","0","DOORWAY","0","5","1","1231","doorway","0","2017-05-02 21:32:41","44935"
"A212LZYYBMG13U","cs_wg_v3_real3","3KWTYT08704JP2K089BCYREATQH5L0","18","0","UMBRELLA","1","5","0","2481","umbrella","1","2017-05-02 21:32:42","44936"
"A10O5YR01H865K","cs_wg_v3_real3","336YQZE83VF3VK2L8LCRY4TZTV75M2","88","0","TRAFFIC","0","5","1","1326","traffic","0","2017-05-02 21:32:46","44937"
"A1K75ALN5NQIJM","cs_wg_v3_real3","3H8DHMCCW9C399HB2FHUH3PNH7ADKD","56","0","STOMACH","9","5","0","997","stomach","9","2017-05-02 21:32:49","44938"
"A212LZYYBMG13U","cs_wg_v3_real3","3KWTYT08704JP2K089BCYREATQH5L0","19","0","WEDDING","0","5","0","1361","wedding","0","2017-05-02 21:32:49","44939"
"A1MVMCWGWM4FM9","cs_wg_v3_real3","333U7HK6I9G8YPBTKUHIGOPA2IADJE","66","0","FOOTBALL","8","5","0","2145","football","8","2017-05-02 21:32:51","44940"
"A10O5YR01H865K","cs_wg_v3_real3","336YQZE83VF3VK2L8LCRY4TZTV75M2","89","0","TRAFFIC","0","5","1","1420","traffic","0","2017-05-02 21:32:55","44941"
"A212LZYYBMG13U","cs_wg_v3_real3","3KWTYT08704JP2K089BCYREATQH5L0","20","0","UMBRELLA","1","5","1","1870","umbrella","1","2017-05-02 21:32:56","44942"
"A1K75ALN5NQIJM","cs_wg_v3_real3","3H8DHMCCW9C399HB2FHUH3PNH7ADKD","57","0","FOOTBALL","10","5","0","1445","football","10","2017-05-02 21:32:57","44943"
"A1MVMCWGWM4FM9","cs_wg_v3_real3","333U7HK6I9G8YPBTKUHIGOPA2IADJE","67","0","BOOKSHELF","8","5","0","1370","bookshelf","8","2017-05-02 21:32:59","44944"
"A212LZYYBMG13U","cs_wg_v3_real3","3KWTYT08704JP2K089BCYREATQH5L0","21","0","WEDDING","0","5","1","1404","wedding","0","2017-05-02 21:33:03","44945"
"A1K75ALN5NQIJM","cs_wg_v3_real3","3H8DHMCCW9C399HB2FHUH3PNH7ADKD","58","0","UMBRELLA","2","5","1","951","umbrella","2","2017-05-02 21:33:06","44946"
"A10O5YR01H865K","cs_wg_v3_real3","336YQZE83VF3VK2L8LCRY4TZTV75M2","90","0","LADDER","9","5","0","3669","ladder","9","2017-05-02 21:33:06","44947"
"A1MVMCWGWM4FM9","cs_wg_v3_real3","333U7HK6I9G8YPBTKUHIGOPA2IADJE","68","0","KEYBOARD","1","5","1","3693","keyboard","1","2017-05-02 21:33:09","44948"
"A212LZYYBMG13U","cs_wg_v3_real3","3KWTYT08704JP2K089BCYREATQH5L0","22","0","STRUCTURE","0","5","1","1419","structure","0","2017-05-02 21:33:11","44949"
"A1K75ALN5NQIJM","cs_wg_v3_real3","3H8DHMCCW9C399HB2FHUH3PNH7ADKD","59","0","MACHINE","9","5","0","853","machine","9","2017-05-02 21:33:14","44950"
"A1MVMCWGWM4FM9","cs_wg_v3_real3","333U7HK6I9G8YPBTKUHIGOPA2IADJE","69","0","BASKET","2","5","1","3027","basket","2","2017-05-02 21:33:18","44951"
"A10O5YR01H865K","cs_wg_v3_real3","336YQZE83VF3VK2L8LCRY4TZTV75M2","91","0","FOOTBALL","9","5","0","1947","football","9","2017-05-02 21:33:18","44952"
"A212LZYYBMG13U","cs_wg_v3_real3","3KWTYT08704JP2K089BCYREATQH5L0","23","0","LADDER","2","5","1","2682","ladder","2","2017-05-02 21:33:19","44953"
"A1K75ALN5NQIJM","cs_wg_v3_real3","3H8DHMCCW9C399HB2FHUH3PNH7ADKD","60","0","DOORWAY","1","5","1","1172","doorway","1","2017-05-02 21:33:22","44954"
"A212LZYYBMG13U","cs_wg_v3_real3","3KWTYT08704JP2K089BCYREATQH5L0","24","0","MACHINE","10","5","0","1598","machine","10","2017-05-02 21:33:27","44955"
"A1MVMCWGWM4FM9","cs_wg_v3_real3","333U7HK6I9G8YPBTKUHIGOPA2IADJE","70","0","TRAFFIC","2","5","1","2700","traffic","2","2017-05-02 21:33:27","44956"
"A10O5YR01H865K","cs_wg_v3_real3","336YQZE83VF3VK2L8LCRY4TZTV75M2","92","0","HELICOPTER","1","5","1","1551","helicopter","1","2017-05-02 21:33:28","44957"
"A1K75ALN5NQIJM","cs_wg_v3_real3","3H8DHMCCW9C399HB2FHUH3PNH7ADKD","61","0","LADDER","2","5","1","1560","ladder","2","2017-05-02 21:33:31","44958"
"A212LZYYBMG13U","cs_wg_v3_real3","3KWTYT08704JP2K089BCYREATQH5L0","25","0","STRUCTURE","0","5","1","1343","structure","0","2017-05-02 21:33:34","44959"
"A1MVMCWGWM4FM9","cs_wg_v3_real3","333U7HK6I9G8YPBTKUHIGOPA2IADJE","71","0","DOORWAY","0","5","1","1258","doorway","0","2017-05-02 21:33:36","44960"
"A1K75ALN5NQIJM","cs_wg_v3_real3","3H8DHMCCW9C399HB2FHUH3PNH7ADKD","62","0","KEYBOARD","0","5","1","964","keyboard","0","2017-05-02 21:33:39","44961"
"A10O5YR01H865K","cs_wg_v3_real3","336YQZE83VF3VK2L8LCRY4TZTV75M2","93","0","STOMACH","2","5","1","2627","stomach","2","2017-05-02 21:33:40","44962"
"A212LZYYBMG13U","cs_wg_v3_real3","3KWTYT08704JP2K089BCYREATQH5L0","26","0","FOOTBALL","10","5","0","734","football","10","2017-05-02 21:33:41","44963"
"A1MVMCWGWM4FM9","cs_wg_v3_real3","333U7HK6I9G8YPBTKUHIGOPA2IADJE","72","0","MACHINE","9","5","0","1277","machine","9","2017-05-02 21:33:44","44964"
"A1K75ALN5NQIJM","cs_wg_v3_real3","3H8DHMCCW9C399HB2FHUH3PNH7ADKD","63","0","WEDDING","0","5","1","1079","wedding","0","2017-05-02 21:33:47","44965"
"A212LZYYBMG13U","cs_wg_v3_real3","3KWTYT08704JP2K089BCYREATQH5L0","27","0","BOOKSHELF","9","5","0","814","bookshelf","9","2017-05-02 21:33:47","44966"
"A10O5YR01H865K","cs_wg_v3_real3","336YQZE83VF3VK2L8LCRY4TZTV75M2","94","0","STOMACH","2","5","1","3032","stomach","2","2017-05-02 21:33:50","44967"
"A1MVMCWGWM4FM9","cs_wg_v3_real3","333U7HK6I9G8YPBTKUHIGOPA2IADJE","73","0","STRUCTURE","1","5","1","2001","structure","1","2017-05-02 21:33:52","44968"
"A212LZYYBMG13U","cs_wg_v3_real3","3KWTYT08704JP2K089BCYREATQH5L0","28","0","UMBRELLA","1","5","1","1030","umbrella","1","2017-05-02 21:33:54","44969"
"A1K75ALN5NQIJM","cs_wg_v3_real3","3H8DHMCCW9C399HB2FHUH3PNH7ADKD","64","0","MACHINE","9","5","0","888","machine","9","2017-05-02 21:33:57","44970"
"A10O5YR01H865K","cs_wg_v3_real3","336YQZE83VF3VK2L8LCRY4TZTV75M2","95","0","COMMUNITY","8","5","0","1187","community","8","2017-05-02 21:34:01","44971"
"A212LZYYBMG13U","cs_wg_v3_real3","3KWTYT08704JP2K089BCYREATQH5L0","29","0","LADDER","2","5","1","990","ladder","2","2017-05-02 21:34:01","44972"
"A1MVMCWGWM4FM9","cs_wg_v3_real3","333U7HK6I9G8YPBTKUHIGOPA2IADJE","74","0","STRUCTURE","1","5","1","2989","structure","1","2017-05-02 21:34:03","44973"
"A1K75ALN5NQIJM","cs_wg_v3_real3","3H8DHMCCW9C399HB2FHUH3PNH7ADKD","65","0","WEDDING","0","5","1","954","wedding","0","2017-05-02 21:34:04","44974"
"A212LZYYBMG13U","cs_wg_v3_real3","3KWTYT08704JP2K089BCYREATQH5L0","30","0","KEYBOARD","9","5","0","1110","keyboard","9","2017-05-02 21:34:08","44975"
"A10O5YR01H865K","cs_wg_v3_real3","336YQZE83VF3VK2L8LCRY4TZTV75M2","96","0","KEYBOARD","0","5","1","1868","keyboard","0","2017-05-02 21:34:10","44976"
"A1K75ALN5NQIJM","cs_wg_v3_real3","3H8DHMCCW9C399HB2FHUH3PNH7ADKD","66","0","DOORWAY","1","5","1","1283","doorway","1","2017-05-02 21:34:12","44977"
"A1MVMCWGWM4FM9","cs_wg_v3_real3","333U7HK6I9G8YPBTKUHIGOPA2IADJE","75","0","STOMACH","10","5","0","4524","stomach","10","2017-05-02 21:34:14","44978"
"A212LZYYBMG13U","cs_wg_v3_real3","3KWTYT08704JP2K089BCYREATQH5L0","31","0","DOORWAY","8","5","1","3149","doorway","8","2017-05-02 21:34:17","44979"
"A10O5YR01H865K","cs_wg_v3_real3","336YQZE83VF3VK2L8LCRY4TZTV75M2","97","0","KEYBOARD","0","5","1","1959","keyboard","0","2017-05-02 21:34:19","44980"
"A1K75ALN5NQIJM","cs_wg_v3_real3","3H8DHMCCW9C399HB2FHUH3PNH7ADKD","67","0","COMMUNITY","8","5","0","1092","community","8","2017-05-02 21:34:20","44981"
"A1MVMCWGWM4FM9","cs_wg_v3_real3","333U7HK6I9G8YPBTKUHIGOPA2IADJE","76","0","MACHINE","9","5","0","2118","machine","9","2017-05-02 21:34:22","44982"
"A212LZYYBMG13U","cs_wg_v3_real3","3KWTYT08704JP2K089BCYREATQH5L0","32","0","BASKET","0","5","0","1663","basket","0","2017-05-02 21:34:25","44983"
"A1K75ALN5NQIJM","cs_wg_v3_real3","3H8DHMCCW9C399HB2FHUH3PNH7ADKD","68","0","TRAFFIC","0","5","1","1025","traffic","0","2017-05-02 21:34:28","44984"
"A10O5YR01H865K","cs_wg_v3_real3","336YQZE83VF3VK2L8LCRY4TZTV75M2","98","0","STRUCTURE","1","5","1","1831","structure","1","2017-05-02 21:34:28","44985"
"A1MVMCWGWM4FM9","cs_wg_v3_real3","333U7HK6I9G8YPBTKUHIGOPA2IADJE","77","0","UMBRELLA","10","5","0","1417","umbrella","10","2017-05-02 21:34:31","44986"
"A212LZYYBMG13U","cs_wg_v3_real3","3KWTYT08704JP2K089BCYREATQH5L0","33","0","MACHINE","10","5","0","646","machine","10","2017-05-02 21:34:31","44987"
"A1K75ALN5NQIJM","cs_wg_v3_real3","3H8DHMCCW9C399HB2FHUH3PNH7ADKD","69","0","MACHINE","9","5","0","1124","Machine","9","2017-05-02 21:34:35","44988"
"A10O5YR01H865K","cs_wg_v3_real3","336YQZE83VF3VK2L8LCRY4TZTV75M2","99","0","BASKET","10","5","0","882","basket","10","2017-05-02 21:34:36","44989"
"A1MVMCWGWM4FM9","cs_wg_v3_real3","333U7HK6I9G8YPBTKUHIGOPA2IADJE","78","0","STOMACH","10","5","0","2163","stomach","10","2017-05-02 21:34:40","44990"
"A212LZYYBMG13U","cs_wg_v3_real3","3KWTYT08704JP2K089BCYREATQH5L0","34","0","COMMUNITY","2","5","1","1542","community","0","2017-05-02 21:34:40","44991"
"A1K75ALN5NQIJM","cs_wg_v3_real3","3H8DHMCCW9C399HB2FHUH3PNH7ADKD","70","0","BOOKSHELF","1","5","1","1064","bookshelf","1","2017-05-02 21:34:43","44992"
"A10O5YR01H865K","cs_wg_v3_real3","336YQZE83VF3VK2L8LCRY4TZTV75M2","100","0","STOMACH","2","5","1","1749","stomach","2","2017-05-02 21:34:46","44993"
"A212LZYYBMG13U","cs_wg_v3_real3","3KWTYT08704JP2K089BCYREATQH5L0","35","0","HELICOPTER","8","5","0","1263","helicopter","8","2017-05-02 21:34:48","44994"
"A1MVMCWGWM4FM9","cs_wg_v3_real3","333U7HK6I9G8YPBTKUHIGOPA2IADJE","79","0","BOOKSHELF","8","5","0","1859","bookshelf","8","2017-05-02 21:34:48","44995"
"A1K75ALN5NQIJM","cs_wg_v3_real3","3H8DHMCCW9C399HB2FHUH3PNH7ADKD","71","0","BASKET","10","5","0","1364","basket","10","2017-05-02 21:34:53","44996"
"A212LZYYBMG13U","cs_wg_v3_real3","3KWTYT08704JP2K089BCYREATQH5L0","36","0","TRAFFIC","10","5","0","1103","traffic","10","2017-05-02 21:34:54","44997"
"A1MVMCWGWM4FM9","cs_wg_v3_real3","333U7HK6I9G8YPBTKUHIGOPA2IADJE","80","0","FOOTBALL","8","5","0","2877","football","8","2017-05-02 21:34:59","44998"
"A1K75ALN5NQIJM","cs_wg_v3_real3","3H8DHMCCW9C399HB2FHUH3PNH7ADKD","72","0","MACHINE","9","5","0","950","machine","9","2017-05-02 21:35:00","44999"
"A10O5YR01H865K","cs_wg_v3_real3","336YQZE83VF3VK2L8LCRY4TZTV75M2","101","0","DOORWAY","10","5","0","1463","doorway","10","2017-05-02 21:35:00","45000"
"A212LZYYBMG13U","cs_wg_v3_real3","3KWTYT08704JP2K089BCYREATQH5L0","37","0","HELICOPTER","8","5","0","3518","helicopter","8","2017-05-02 21:35:04","45001"
"A1MVMCWGWM4FM9","cs_wg_v3_real3","333U7HK6I9G8YPBTKUHIGOPA2IADJE","81","0","UMBRELLA","10","5","0","1069","umbrella","10","2017-05-02 21:35:07","45002"
"A1K75ALN5NQIJM","cs_wg_v3_real3","3H8DHMCCW9C399HB2FHUH3PNH7ADKD","73","0","LADDER","2","5","1","1045","ladder","2","2017-05-02 21:35:08","45003"
"A212LZYYBMG13U","cs_wg_v3_real3","3KWTYT08704JP2K089BCYREATQH5L0","38","0","BASKET","0","5","1","1438","basket","0","2017-05-02 21:35:12","45004"
"A10O5YR01H865K","cs_wg_v3_real3","336YQZE83VF3VK2L8LCRY4TZTV75M2","102","0","HELICOPTER","1","5","1","4624","helicopter","1","2017-05-02 21:35:14","45005"
"A1MVMCWGWM4FM9","cs_wg_v3_real3","333U7HK6I9G8YPBTKUHIGOPA2IADJE","82","0","UMBRELLA","10","5","0","1187","umbrella","10","2017-05-02 21:35:15","45006"
"A1K75ALN5NQIJM","cs_wg_v3_real3","3H8DHMCCW9C399HB2FHUH3PNH7ADKD","74","0","FOOTBALL","10","5","0","951","football","10","2017-05-02 21:35:17","45007"
"A212LZYYBMG13U","cs_wg_v3_real3","3KWTYT08704JP2K089BCYREATQH5L0","39","0","MACHINE","10","5","0","815","machine","10","2017-05-02 21:35:19","45008"
"A1MVMCWGWM4FM9","cs_wg_v3_real3","333U7HK6I9G8YPBTKUHIGOPA2IADJE","83","0","HELICOPTER","9","5","0","2082","helicopter","9","2017-05-02 21:35:24","45009"
"A1K75ALN5NQIJM","cs_wg_v3_real3","3H8DHMCCW9C399HB2FHUH3PNH7ADKD","75","0","FOOTBALL","10","5","0","932","football","10","2017-05-02 21:35:25","45010"
"A212LZYYBMG13U","cs_wg_v3_real3","3KWTYT08704JP2K089BCYREATQH5L0","40","0","DOORWAY","8","5","0","598","doorway","8","2017-05-02 21:35:26","45011"
"A1MVMCWGWM4FM9","cs_wg_v3_real3","333U7HK6I9G8YPBTKUHIGOPA2IADJE","84","0","COMMUNITY","0","5","1","1519","community","0","2017-05-02 21:35:32","45012"
"A1K75ALN5NQIJM","cs_wg_v3_real3","3H8DHMCCW9C399HB2FHUH3PNH7ADKD","76","0","DOORWAY","1","5","1","928","doorway","1","2017-05-02 21:35:32","45013"
"A212LZYYBMG13U","cs_wg_v3_real3","3KWTYT08704JP2K089BCYREATQH5L0","41","0","BOOKSHELF","9","5","0","1094","bookshelf","9","2017-05-02 21:35:33","45014"
"A10O5YR01H865K","cs_wg_v3_real3","336YQZE83VF3VK2L8LCRY4TZTV75M2","103","0","UMBRELLA","10","5","0","4654","umbrella","10","2017-05-02 21:35:33","45015"
"A1MVMCWGWM4FM9","cs_wg_v3_real3","333U7HK6I9G8YPBTKUHIGOPA2IADJE","85","0","UMBRELLA","10","5","0","989","umbrella","10","2017-05-02 21:35:40","45016"
"A1K75ALN5NQIJM","cs_wg_v3_real3","3H8DHMCCW9C399HB2FHUH3PNH7ADKD","77","0","FOOTBALL","10","5","0","1319","football","10","2017-05-02 21:35:40","45017"
"A212LZYYBMG13U","cs_wg_v3_real3","3KWTYT08704JP2K089BCYREATQH5L0","42","0","COMMUNITY","2","5","1","1101","community","2","2017-05-02 21:35:41","45018"
"A10O5YR01H865K","cs_wg_v3_real3","336YQZE83VF3VK2L8LCRY4TZTV75M2","104","0","FOOTBALL","9","5","1","1606","football","9","2017-05-02 21:35:44","45019"
"A1MVMCWGWM4FM9","cs_wg_v3_real3","333U7HK6I9G8YPBTKUHIGOPA2IADJE","86","0","STOMACH","10","5","0","1669","stomach","10","2017-05-02 21:35:47","45020"
"A212LZYYBMG13U","cs_wg_v3_real3","3KWTYT08704JP2K089BCYREATQH5L0","43","0","BASKET","0","5","1","807","basket","0","2017-05-02 21:35:48","45021"
"A1K75ALN5NQIJM","cs_wg_v3_real3","3H8DHMCCW9C399HB2FHUH3PNH7ADKD","78","0","STOMACH","9","5","0","2198","stomach","9","2017-05-02 21:35:50","45022"
"A212LZYYBMG13U","cs_wg_v3_real3","3KWTYT08704JP2K089BCYREATQH5L0","44","0","WEDDING","0","5","1","703","wedding","0","2017-05-02 21:35:54","45023"
"A10O5YR01H865K","cs_wg_v3_real3","336YQZE83VF3VK2L8LCRY4TZTV75M2","105","0","HELICOPTER","1","5","1","2554","helicopter","1","2017-05-02 21:35:56","45024"
"A1K75ALN5NQIJM","cs_wg_v3_real3","3H8DHMCCW9C399HB2FHUH3PNH7ADKD","79","0","BOOKSHELF","1","5","1","1477","bookshelf","1","2017-05-02 21:35:58","45025"
"A1MVMCWGWM4FM9","cs_wg_v3_real3","333U7HK6I9G8YPBTKUHIGOPA2IADJE","87","0","WEDDING","10","5","0","2773","wedding","10","2017-05-02 21:35:58","45026"
"A212LZYYBMG13U","cs_wg_v3_real3","3KWTYT08704JP2K089BCYREATQH5L0","45","0","KEYBOARD","9","5","0","991","keyboard","9","2017-05-02 21:36:01","45027"
"A10O5YR01H865K","cs_wg_v3_real3","336YQZE83VF3VK2L8LCRY4TZTV75M2","106","0","STRUCTURE","1","5","1","1696","structure","1","2017-05-02 21:36:05","45028"
"A212LZYYBMG13U","cs_wg_v3_real3","3KWTYT08704JP2K089BCYREATQH5L0","46","0","DOORWAY","8","5","0","614","doorway","8","2017-05-02 21:36:07","45029"
"A1K75ALN5NQIJM","cs_wg_v3_real3","3H8DHMCCW9C399HB2FHUH3PNH7ADKD","80","0","STRUCTURE","8","5","0","1398","structure","8","2017-05-02 21:36:08","45030"
"A1MVMCWGWM4FM9","cs_wg_v3_real3","333U7HK6I9G8YPBTKUHIGOPA2IADJE","88","0","KEYBOARD","1","5","1","1705","keyboard","1","2017-05-02 21:36:09","45031"
"A212LZYYBMG13U","cs_wg_v3_real3","3KWTYT08704JP2K089BCYREATQH5L0","47","0","COMMUNITY","2","5","1","679","community","2","2017-05-02 21:36:13","45032"
"A10O5YR01H865K","cs_wg_v3_real3","336YQZE83VF3VK2L8LCRY4TZTV75M2","107","0","BASKET","10","5","0","1706","basket","10","2017-05-02 21:36:14","45033"
"A1MVMCWGWM4FM9","cs_wg_v3_real3","333U7HK6I9G8YPBTKUHIGOPA2IADJE","89","0","WEDDING","10","5","0","1012","wedding","10","2017-05-02 21:36:17","45034"
"A1K75ALN5NQIJM","cs_wg_v3_real3","3H8DHMCCW9C399HB2FHUH3PNH7ADKD","81","0","HELICOPTER","10","5","0","1396","helicopter","10","2017-05-02 21:36:18","45035"
"A212LZYYBMG13U","cs_wg_v3_real3","3KWTYT08704JP2K089BCYREATQH5L0","48","0","STOMACH","1","5","0","958","stomach","1","2017-05-02 21:36:20","45036"
"A1MVMCWGWM4FM9","cs_wg_v3_real3","333U7HK6I9G8YPBTKUHIGOPA2IADJE","90","0","TRAFFIC","2","5","1","1737","traffic","2","2017-05-02 21:36:24","45037"
"A212LZYYBMG13U","cs_wg_v3_real3","3KWTYT08704JP2K089BCYREATQH5L0","49","0","TRAFFIC","10","5","1","830","traffic","10","2017-05-02 21:36:28","45038"
"A1K75ALN5NQIJM","cs_wg_v3_real3","3H8DHMCCW9C399HB2FHUH3PNH7ADKD","82","0","TRAFFIC","0","5","1","1031","traffic","1","2017-05-02 21:36:29","45039"
"A1MVMCWGWM4FM9","cs_wg_v3_real3","333U7HK6I9G8YPBTKUHIGOPA2IADJE","91","0","DOORWAY","0","5","1","2884","doorway","0","2017-05-02 21:36:33","45040"
"A10O5YR01H865K","cs_wg_v3_real3","336YQZE83VF3VK2L8LCRY4TZTV75M2","108","0","LADDER","9","5","0","2020","ladder","9","2017-05-02 21:36:33","45041"
"A212LZYYBMG13U","cs_wg_v3_real3","3KWTYT08704JP2K089BCYREATQH5L0","50","0","HELICOPTER","8","5","0","950","helicopter","8","2017-05-02 21:36:38","45042"
"A1MVMCWGWM4FM9","cs_wg_v3_real3","333U7HK6I9G8YPBTKUHIGOPA2IADJE","92","0","BASKET","2","5","1","2040","basket","2","2017-05-02 21:36:41","45043"
"A1K75ALN5NQIJM","cs_wg_v3_real3","3H8DHMCCW9C399HB2FHUH3PNH7ADKD","83","0","STRUCTURE","8","5","0","2711","structure","8","2017-05-02 21:36:41","45044"
"A10O5YR01H865K","cs_wg_v3_real3","336YQZE83VF3VK2L8LCRY4TZTV75M2","109","0","KEYBOARD","0","5","1","1461","keyboard","0","2017-05-02 21:36:43","45045"
"A212LZYYBMG13U","cs_wg_v3_real3","3KWTYT08704JP2K089BCYREATQH5L0","51","0","UMBRELLA","1","5","1","854","umbrella","1","2017-05-02 21:36:44","45046"
"A1MVMCWGWM4FM9","cs_wg_v3_real3","333U7HK6I9G8YPBTKUHIGOPA2IADJE","93","0","MACHINE","9","5","0","2196","machine","9","2017-05-02 21:36:49","45047"
"A1K75ALN5NQIJM","cs_wg_v3_real3","3H8DHMCCW9C399HB2FHUH3PNH7ADKD","84","0","MACHINE","9","5","0","1353","machine","9","2017-05-02 21:36:50","45048"
"A212LZYYBMG13U","cs_wg_v3_real3","3KWTYT08704JP2K089BCYREATQH5L0","52","0","WEDDING","0","5","1","710","wedding","0","2017-05-02 21:36:50","45049"
"A10O5YR01H865K","cs_wg_v3_real3","336YQZE83VF3VK2L8LCRY4TZTV75M2","110","0","UMBRELLA","10","5","0","1644","umbrella","10","2017-05-02 21:36:56","45050"
"A212LZYYBMG13U","cs_wg_v3_real3","3KWTYT08704JP2K089BCYREATQH5L0","53","0","TRAFFIC","10","5","0","1359","traffic","10","2017-05-02 21:36:57","45051"
"A1K75ALN5NQIJM","cs_wg_v3_real3","3H8DHMCCW9C399HB2FHUH3PNH7ADKD","85","0","WEDDING","0","5","1","1518","wedding","0","2017-05-02 21:36:59","45052"
"A1MVMCWGWM4FM9","cs_wg_v3_real3","333U7HK6I9G8YPBTKUHIGOPA2IADJE","94","0","HELICOPTER","9","5","0","1251","helicopter","9","2017-05-02 21:36:59","45053"
"A212LZYYBMG13U","cs_wg_v3_real3","3KWTYT08704JP2K089BCYREATQH5L0","54","0","STOMACH","1","5","1","1607","stomach","1","2017-05-02 21:37:04","45054"
"A1MVMCWGWM4FM9","cs_wg_v3_real3","333U7HK6I9G8YPBTKUHIGOPA2IADJE","95","0","LADDER","0","5","1","1610","ladder","0","2017-05-02 21:37:07","45055"
"A1K75ALN5NQIJM","cs_wg_v3_real3","3H8DHMCCW9C399HB2FHUH3PNH7ADKD","86","0","BOOKSHELF","1","5","1","1075","bookshelf","1","2017-05-02 21:37:07","45056"
"A10O5YR01H865K","cs_wg_v3_real3","336YQZE83VF3VK2L8LCRY4TZTV75M2","111","0","STRUCTURE","1","5","1","3551","structure","1","2017-05-02 21:37:10","45057"
"A212LZYYBMG13U","cs_wg_v3_real3","3KWTYT08704JP2K089BCYREATQH5L0","55","0","HELICOPTER","8","5","0","798","helicopter","8","2017-05-02 21:37:11","45058"
"A1MVMCWGWM4FM9","cs_wg_v3_real3","333U7HK6I9G8YPBTKUHIGOPA2IADJE","96","0","BASKET","2","5","1","2704","basket","2","2017-05-02 21:37:15","45059"
"A1K75ALN5NQIJM","cs_wg_v3_real3","3H8DHMCCW9C399HB2FHUH3PNH7ADKD","87","0","BOOKSHELF","1","5","1","6013","bookshelf","1","2017-05-02 21:37:20","45060"
"A212LZYYBMG13U","cs_wg_v3_real3","3KWTYT08704JP2K089BCYREATQH5L0","56","0","MACHINE","10","5","0","1718","machine","10","2017-05-02 21:37:21","45061"
"A1MVMCWGWM4FM9","cs_wg_v3_real3","333U7HK6I9G8YPBTKUHIGOPA2IADJE","97","0","LADDER","0","5","1","1229","ladder","0","2017-05-02 21:37:23","45062"
"A212LZYYBMG13U","cs_wg_v3_real3","3KWTYT08704JP2K089BCYREATQH5L0","57","0","DOORWAY","8","5","0","1166","doorway","8","2017-05-02 21:37:29","45063"
"A1K75ALN5NQIJM","cs_wg_v3_real3","3H8DHMCCW9C399HB2FHUH3PNH7ADKD","88","0","HELICOPTER","10","5","0","1130","helicopter","10","2017-05-02 21:37:29","45064"
"A1MVMCWGWM4FM9","cs_wg_v3_real3","333U7HK6I9G8YPBTKUHIGOPA2IADJE","98","0","HELICOPTER","9","5","0","682","helicopter","9","2017-05-02 21:37:31","45065"
"A212LZYYBMG13U","cs_wg_v3_real3","3KWTYT08704JP2K089BCYREATQH5L0","58","0","FOOTBALL","10","5","0","718","football","10","2017-05-02 21:37:35","45066"
"A1K75ALN5NQIJM","cs_wg_v3_real3","3H8DHMCCW9C399HB2FHUH3PNH7ADKD","89","0","LADDER","2","5","1","1157","ladder","2","2017-05-02 21:37:38","45067"
"A1MVMCWGWM4FM9","cs_wg_v3_real3","333U7HK6I9G8YPBTKUHIGOPA2IADJE","99","0","STRUCTURE","1","5","1","2373","structure","1","2017-05-02 21:37:39","45068"
"A212LZYYBMG13U","cs_wg_v3_real3","3KWTYT08704JP2K089BCYREATQH5L0","59","0","WEDDING","0","5","1","687","wedding","0","2017-05-02 21:37:43","45069"
"A1MVMCWGWM4FM9","cs_wg_v3_real3","333U7HK6I9G8YPBTKUHIGOPA2IADJE","100","0","FOOTBALL","8","5","0","1682","football","8","2017-05-02 21:37:48","45070"
"A212LZYYBMG13U","cs_wg_v3_real3","3KWTYT08704JP2K089BCYREATQH5L0","60","0","KEYBOARD","9","5","0","670","keyboard","9","2017-05-02 21:37:49","45071"
"A212LZYYBMG13U","cs_wg_v3_real3","3KWTYT08704JP2K089BCYREATQH5L0","61","0","STOMACH","1","5","1","703","stomach","1","2017-05-02 21:37:56","45072"
"A1MVMCWGWM4FM9","cs_wg_v3_real3","333U7HK6I9G8YPBTKUHIGOPA2IADJE","101","0","COMMUNITY","0","5","1","2096","community","0","2017-05-02 21:37:58","45073"
"A1K75ALN5NQIJM","cs_wg_v3_real3","3H8DHMCCW9C399HB2FHUH3PNH7ADKD","90","0","HELICOPTER","10","5","0","998","Helicopter","10","2017-05-02 21:38:02","45074"
"A212LZYYBMG13U","cs_wg_v3_real3","3KWTYT08704JP2K089BCYREATQH5L0","62","0","BOOKSHELF","9","5","0","1222","bookshelf","9","2017-05-02 21:38:03","45075"
"A1MVMCWGWM4FM9","cs_wg_v3_real3","333U7HK6I9G8YPBTKUHIGOPA2IADJE","102","0","FOOTBALL","8","5","0","1072","football","8","2017-05-02 21:38:05","45076"
"A212LZYYBMG13U","cs_wg_v3_real3","3KWTYT08704JP2K089BCYREATQH5L0","63","0","STRUCTURE","0","5","1","686","structure","0","2017-05-02 21:38:11","45077"
"A1K75ALN5NQIJM","cs_wg_v3_real3","3H8DHMCCW9C399HB2FHUH3PNH7ADKD","91","0","COMMUNITY","8","5","0","1182","community","8","2017-05-02 21:38:11","45078"
"A1MVMCWGWM4FM9","cs_wg_v3_real3","333U7HK6I9G8YPBTKUHIGOPA2IADJE","103","0","STRUCTURE","1","5","1","1158","structure","1","2017-05-02 21:38:12","45079"
"A212LZYYBMG13U","cs_wg_v3_real3","3KWTYT08704JP2K089BCYREATQH5L0","64","0","BASKET","0","5","1","910","basket","0","2017-05-02 21:38:18","45080"
"A1K75ALN5NQIJM","cs_wg_v3_real3","3H8DHMCCW9C399HB2FHUH3PNH7ADKD","92","0","WEDDING","0","5","1","1145","wedding","0","2017-05-02 21:38:19","45081"
"A1MVMCWGWM4FM9","cs_wg_v3_real3","333U7HK6I9G8YPBTKUHIGOPA2IADJE","104","0","HELICOPTER","9","5","0","467","helicopter","9","2017-05-02 21:38:20","45082"
"A212LZYYBMG13U","cs_wg_v3_real3","3KWTYT08704JP2K089BCYREATQH5L0","65","0","FOOTBALL","10","5","0","790","football","10","2017-05-02 21:38:25","45083"
"A1K75ALN5NQIJM","cs_wg_v3_real3","3H8DHMCCW9C399HB2FHUH3PNH7ADKD","93","0","WEDDING","0","5","1","1022","wedding","0","2017-05-02 21:38:27","45084"
"A1MVMCWGWM4FM9","cs_wg_v3_real3","333U7HK6I9G8YPBTKUHIGOPA2IADJE","105","0","FOOTBALL","8","5","0","1205","football","8","2017-05-02 21:38:27","45085"
"A212LZYYBMG13U","cs_wg_v3_real3","3KWTYT08704JP2K089BCYREATQH5L0","66","0","BOOKSHELF","9","5","0","566","bookshelf","9","2017-05-02 21:38:31","45086"
"A1K75ALN5NQIJM","cs_wg_v3_real3","3H8DHMCCW9C399HB2FHUH3PNH7ADKD","94","0","LADDER","2","5","1","1204","ladder","2","2017-05-02 21:38:35","45087"
"A1MVMCWGWM4FM9","cs_wg_v3_real3","333U7HK6I9G8YPBTKUHIGOPA2IADJE","106","0","COMMUNITY","0","5","1","1083","community","0","2017-05-02 21:38:36","45088"
"A212LZYYBMG13U","cs_wg_v3_real3","3KWTYT08704JP2K089BCYREATQH5L0","67","0","DOORWAY","8","5","0","830","doorway","8","2017-05-02 21:38:37","45089"
"A1MVMCWGWM4FM9","cs_wg_v3_real3","333U7HK6I9G8YPBTKUHIGOPA2IADJE","107","0","STOMACH","10","5","0","1228","stomach","10","2017-05-02 21:38:43","45090"
"A212LZYYBMG13U","cs_wg_v3_real3","3KWTYT08704JP2K089BCYREATQH5L0","68","0","WEDDING","0","5","1","662","wedding","0","2017-05-02 21:38:43","45091"
"A1K75ALN5NQIJM","cs_wg_v3_real3","3H8DHMCCW9C399HB2FHUH3PNH7ADKD","95","0","BOOKSHELF","1","5","1","1737","bookshelf","1","2017-05-02 21:38:43","45092"
"A212LZYYBMG13U","cs_wg_v3_real3","3KWTYT08704JP2K089BCYREATQH5L0","69","0","TRAFFIC","10","5","1","687","traffic","10","2017-05-02 21:38:50","45093"
"A1K75ALN5NQIJM","cs_wg_v3_real3","3H8DHMCCW9C399HB2FHUH3PNH7ADKD","96","0","COMMUNITY","8","5","0","894","community","8","2017-05-02 21:38:52","45094"
"A1MVMCWGWM4FM9","cs_wg_v3_real3","333U7HK6I9G8YPBTKUHIGOPA2IADJE","108","0","COMMUNITY","0","5","1","3901","community","0","2017-05-02 21:38:54","45095"
"A212LZYYBMG13U","cs_wg_v3_real3","3KWTYT08704JP2K089BCYREATQH5L0","70","0","KEYBOARD","9","5","0","942","keyboard","9","2017-05-02 21:38:56","45096"
"A1K75ALN5NQIJM","cs_wg_v3_real3","3H8DHMCCW9C399HB2FHUH3PNH7ADKD","97","0","COMMUNITY","8","5","0","935","community","8","2017-05-02 21:39:00","45097"
"A1MVMCWGWM4FM9","cs_wg_v3_real3","333U7HK6I9G8YPBTKUHIGOPA2IADJE","109","0","FOOTBALL","8","5","0","544","football","8","2017-05-02 21:39:01","45098"
"A212LZYYBMG13U","cs_wg_v3_real3","3KWTYT08704JP2K089BCYREATQH5L0","71","0","LADDER","2","5","1","1294","ladder","2","2017-05-02 21:39:03","45099"
"A1K75ALN5NQIJM","cs_wg_v3_real3","3H8DHMCCW9C399HB2FHUH3PNH7ADKD","98","0","BASKET","10","5","0","1081","basket","10","2017-05-02 21:39:08","45100"
"A1MVMCWGWM4FM9","cs_wg_v3_real3","333U7HK6I9G8YPBTKUHIGOPA2IADJE","110","0","KEYBOARD","1","5","1","2001","keyboard","1","2017-05-02 21:39:09","45101"
"A212LZYYBMG13U","cs_wg_v3_real3","3KWTYT08704JP2K089BCYREATQH5L0","72","0","DOORWAY","8","5","0","559","doorway","8","2017-05-02 21:39:10","45102"
"A212LZYYBMG13U","cs_wg_v3_real3","3KWTYT08704JP2K089BCYREATQH5L0","73","0","STOMACH","1","5","1","606","stomach","1","2017-05-02 21:39:16","45103"
"A1K75ALN5NQIJM","cs_wg_v3_real3","3H8DHMCCW9C399HB2FHUH3PNH7ADKD","99","0","STOMACH","9","5","0","839","stomach","9","2017-05-02 21:39:16","45104"
"A1MVMCWGWM4FM9","cs_wg_v3_real3","333U7HK6I9G8YPBTKUHIGOPA2IADJE","111","0","LADDER","0","5","1","1084","ladder","0","2017-05-02 21:39:18","45105"
"A212LZYYBMG13U","cs_wg_v3_real3","3KWTYT08704JP2K089BCYREATQH5L0","74","0","COMMUNITY","2","5","1","654","community","2","2017-05-02 21:39:22","45106"
"A1K75ALN5NQIJM","cs_wg_v3_real3","3H8DHMCCW9C399HB2FHUH3PNH7ADKD","100","0","MACHINE","9","5","0","933","machine","9","2017-05-02 21:39:23","45107"
"A212LZYYBMG13U","cs_wg_v3_real3","3KWTYT08704JP2K089BCYREATQH5L0","75","0","BASKET","0","5","1","711","basket","0","2017-05-02 21:39:31","45108"
"A1K75ALN5NQIJM","cs_wg_v3_real3","3H8DHMCCW9C399HB2FHUH3PNH7ADKD","101","0","BASKET","10","5","0","789","basket","10","2017-05-02 21:39:36","45109"
"A212LZYYBMG13U","cs_wg_v3_real3","3KWTYT08704JP2K089BCYREATQH5L0","76","0","TRAFFIC","10","5","0","1238","traffic","10","2017-05-02 21:39:38","45110"
"A1K75ALN5NQIJM","cs_wg_v3_real3","3H8DHMCCW9C399HB2FHUH3PNH7ADKD","102","0","UMBRELLA","2","5","1","1276","umbrella","2","2017-05-02 21:39:45","45111"
"A212LZYYBMG13U","cs_wg_v3_real3","3KWTYT08704JP2K089BCYREATQH5L0","77","0","FOOTBALL","10","5","0","607","football","10","2017-05-02 21:39:45","45112"
"A212LZYYBMG13U","cs_wg_v3_real3","3KWTYT08704JP2K089BCYREATQH5L0","78","0","STRUCTURE","0","5","1","638","structure","0","2017-05-02 21:39:51","45113"
"A1K75ALN5NQIJM","cs_wg_v3_real3","3H8DHMCCW9C399HB2FHUH3PNH7ADKD","103","0","FOOTBALL","10","5","0","849","football","10","2017-05-02 21:39:53","45114"
"A212LZYYBMG13U","cs_wg_v3_real3","3KWTYT08704JP2K089BCYREATQH5L0","79","0","UMBRELLA","1","5","1","549","umbrella","1","2017-05-02 21:39:58","45115"
"A212LZYYBMG13U","cs_wg_v3_real3","3KWTYT08704JP2K089BCYREATQH5L0","80","0","STOMACH","1","5","1","640","stomach","1","2017-05-02 21:40:04","45116"
"A212LZYYBMG13U","cs_wg_v3_real3","3KWTYT08704JP2K089BCYREATQH5L0","81","0","BASKET","0","5","1","638","basket","0","2017-05-02 21:40:10","45117"
"A212LZYYBMG13U","cs_wg_v3_real3","3KWTYT08704JP2K089BCYREATQH5L0","82","0","KEYBOARD","9","5","0","564","keyboard","9","2017-05-02 21:40:17","45118"
"A1K75ALN5NQIJM","cs_wg_v3_real3","3H8DHMCCW9C399HB2FHUH3PNH7ADKD","104","0","TRAFFIC","0","5","1","6340","traffic","0","2017-05-02 21:40:20","45119"
"A212LZYYBMG13U","cs_wg_v3_real3","3KWTYT08704JP2K089BCYREATQH5L0","83","0","TRAFFIC","10","5","0","3037","traffic","10","2017-05-02 21:40:25","45120"
"A212LZYYBMG13U","cs_wg_v3_real3","3KWTYT08704JP2K089BCYREATQH5L0","84","0","LADDER","2","5","1","809","ladder","2","2017-05-02 21:40:31","45121"
"A212LZYYBMG13U","cs_wg_v3_real3","3KWTYT08704JP2K089BCYREATQH5L0","85","0","COMMUNITY","2","5","1","775","community","2","2017-05-02 21:40:39","45122"
"A1K75ALN5NQIJM","cs_wg_v3_real3","3H8DHMCCW9C399HB2FHUH3PNH7ADKD","105","0","BOOKSHELF","1","5","1","2509","bookshelf","1
2","2017-05-02 21:40:41","45123"
"A212LZYYBMG13U","cs_wg_v3_real3","3KWTYT08704JP2K089BCYREATQH5L0","86","0","UMBRELLA","1","5","1","538","umbrella","1","2017-05-02 21:40:45","45124"
"A1K75ALN5NQIJM","cs_wg_v3_real3","3H8DHMCCW9C399HB2FHUH3PNH7ADKD","106","0","DOORWAY","1","5","1","1745","doorway","1","2017-05-02 21:40:50","45125"
"A212LZYYBMG13U","cs_wg_v3_real3","3KWTYT08704JP2K089BCYREATQH5L0","87","0","BASKET","0","5","1","608","basket","0","2017-05-02 21:40:52","45126"
"A212LZYYBMG13U","cs_wg_v3_real3","3KWTYT08704JP2K089BCYREATQH5L0","88","0","BOOKSHELF","9","5","0","597","bookshelf","9","2017-05-02 21:40:58","45127"
"A1K75ALN5NQIJM","cs_wg_v3_real3","3H8DHMCCW9C399HB2FHUH3PNH7ADKD","107","0","KEYBOARD","0","5","1","1206","keyboard","0","2017-05-02 21:40:59","45128"
"A212LZYYBMG13U","cs_wg_v3_real3","3KWTYT08704JP2K089BCYREATQH5L0","89","0","LADDER","2","5","1","709","ladder","2","2017-05-02 21:41:05","45129"
"A1K75ALN5NQIJM","cs_wg_v3_real3","3H8DHMCCW9C399HB2FHUH3PNH7ADKD","108","0","STRUCTURE","8","5","0","1666","structure","8","2017-05-02 21:41:07","45130"
"A212LZYYBMG13U","cs_wg_v3_real3","3KWTYT08704JP2K089BCYREATQH5L0","90","0","COMMUNITY","2","5","1","999","community","2","2017-05-02 21:41:12","45131"
"A1K75ALN5NQIJM","cs_wg_v3_real3","3H8DHMCCW9C399HB2FHUH3PNH7ADKD","109","0","BASKET","10","5","0","775","basket","10","2017-05-02 21:41:16","45132"
"A212LZYYBMG13U","cs_wg_v3_real3","3KWTYT08704JP2K089BCYREATQH5L0","91","0","HELICOPTER","8","5","0","981","helicopter","8","2017-05-02 21:41:19","45133"
"A212LZYYBMG13U","cs_wg_v3_real3","3KWTYT08704JP2K089BCYREATQH5L0","92","0","TRAFFIC","10","5","0","770","traffic","10","2017-05-02 21:41:25","45134"
"A1K75ALN5NQIJM","cs_wg_v3_real3","3H8DHMCCW9C399HB2FHUH3PNH7ADKD","110","0","BASKET","10","5","0","2239","basket","10","2017-05-02 21:41:26","45135"
"A212LZYYBMG13U","cs_wg_v3_real3","3KWTYT08704JP2K089BCYREATQH5L0","93","0","STOMACH","1","5","1","553","stomach","1","2017-05-02 21:41:31","45136"
"A1K75ALN5NQIJM","cs_wg_v3_real3","3H8DHMCCW9C399HB2FHUH3PNH7ADKD","111","0","STOMACH","9","5","0","999","stomach","9","2017-05-02 21:41:35","45137"
"A212LZYYBMG13U","cs_wg_v3_real3","3KWTYT08704JP2K089BCYREATQH5L0","94","0","KEYBOARD","9","5","0","486","keyboard","9","2017-05-02 21:41:37","45138"
"A212LZYYBMG13U","cs_wg_v3_real3","3KWTYT08704JP2K089BCYREATQH5L0","95","0","STRUCTURE","0","5","1","525","structure","0","2017-05-02 21:41:44","45139"
"A212LZYYBMG13U","cs_wg_v3_real3","3KWTYT08704JP2K089BCYREATQH5L0","96","0","FOOTBALL","10","5","0","510","football","10","2017-05-02 21:41:50","45140"
"A212LZYYBMG13U","cs_wg_v3_real3","3KWTYT08704JP2K089BCYREATQH5L0","97","0","FOOTBALL","10","5","0","611","football","10","2017-05-02 21:41:56","45141"
"A212LZYYBMG13U","cs_wg_v3_real3","3KWTYT08704JP2K089BCYREATQH5L0","98","0","BASKET","0","5","1","555","basket","0","2017-05-02 21:42:02","45142"
"A212LZYYBMG13U","cs_wg_v3_real3","3KWTYT08704JP2K089BCYREATQH5L0","99","0","STRUCTURE","0","5","1","563","structure","0","2017-05-02 21:42:09","45143"
"A212LZYYBMG13U","cs_wg_v3_real3","3KWTYT08704JP2K089BCYREATQH5L0","100","0","UMBRELLA","1","5","1","630","umbrella","1","2017-05-02 21:42:15","45144"
"A212LZYYBMG13U","cs_wg_v3_real3","3KWTYT08704JP2K089BCYREATQH5L0","101","0","MACHINE","10","5","0","736","machine","10","2017-05-02 21:42:24","45145"
"A212LZYYBMG13U","cs_wg_v3_real3","3KWTYT08704JP2K089BCYREATQH5L0","102","0","STOMACH","1","5","1","765","stomach","1","2017-05-02 21:42:30","45146"
"A212LZYYBMG13U","cs_wg_v3_real3","3KWTYT08704JP2K089BCYREATQH5L0","103","0","DOORWAY","8","5","0","523","doorway","8","2017-05-02 21:42:36","45147"
"A212LZYYBMG13U","cs_wg_v3_real3","3KWTYT08704JP2K089BCYREATQH5L0","104","0","MACHINE","10","5","0","585","machine","10","2017-05-02 21:42:42","45148"
"A212LZYYBMG13U","cs_wg_v3_real3","3KWTYT08704JP2K089BCYREATQH5L0","105","0","MACHINE","10","5","0","691","machine","10","2017-05-02 21:42:48","45149"
"A212LZYYBMG13U","cs_wg_v3_real3","3KWTYT08704JP2K089BCYREATQH5L0","106","0","HELICOPTER","8","5","0","553","helicopter","8","2017-05-02 21:42:59","45150"
"A212LZYYBMG13U","cs_wg_v3_real3","3KWTYT08704JP2K089BCYREATQH5L0","107","0","TRAFFIC","10","5","0","810","traffic","10","2017-05-02 21:43:05","45151"
"A212LZYYBMG13U","cs_wg_v3_real3","3KWTYT08704JP2K089BCYREATQH5L0","108","0","LADDER","2","5","1","547","ladder","2","2017-05-02 21:43:11","45152"
"A212LZYYBMG13U","cs_wg_v3_real3","3KWTYT08704JP2K089BCYREATQH5L0","109","0","BOOKSHELF","9","5","0","537","bookshelf","9","2017-05-02 21:43:18","45153"
"A212LZYYBMG13U","cs_wg_v3_real3","3KWTYT08704JP2K089BCYREATQH5L0","110","0","HELICOPTER","8","5","0","499","helicopter","8","2017-05-02 21:43:24","45154"
"A212LZYYBMG13U","cs_wg_v3_real3","3KWTYT08704JP2K089BCYREATQH5L0","111","0","LADDER","2","5","1","504","ladder","2","2017-05-02 21:43:30","45155"
"A2AK649KPZ2IZN","cs_wg_v3_real3","33JKGHPFYCV7L98RCL8DSLTLKG7NMA","0","0","BASKET","9","5","1","8038","basket","9","2017-05-02 23:07:25","45156"
"A2HHGI5CNSS5PD","cs_wg_v3_real3","33JKGHPFYCV7L98RCL8DSLTLKG7NMA","0","0","BASKET","1","5","0","5773","basket","1","2017-05-03 00:10:26","45157"
"A2HHGI5CNSS5PD","cs_wg_v3_real3","33JKGHPFYCV7L98RCL8DSLTLKG7NMA","1","0","UMBRELLA","10","5","0","2931","umbrella","10","2017-05-03 00:10:45","45158"
"A2HHGI5CNSS5PD","cs_wg_v3_real3","33JKGHPFYCV7L98RCL8DSLTLKG7NMA","2","0","TRAFFIC","2","5","0","2630","traffic","2","2017-05-03 00:10:59","45159"
"A2HHGI5CNSS5PD","cs_wg_v3_real3","33JKGHPFYCV7L98RCL8DSLTLKG7NMA","3","0","TRAFFIC","2","5","1","2740","traffic","2","2017-05-03 00:11:13","45160"
"A2HHGI5CNSS5PD","cs_wg_v3_real3","33JKGHPFYCV7L98RCL8DSLTLKG7NMA","4","0","KEYBOARD","2","5","0","2243","keyboard","2","2017-05-03 00:11:27","45161"
"A2HHGI5CNSS5PD","cs_wg_v3_real3","33JKGHPFYCV7L98RCL8DSLTLKG7NMA","5","0","BOOKSHELF","0","5","0","3217","bookshelf","0","2017-05-03 00:11:42","45162"
"A2HHGI5CNSS5PD","cs_wg_v3_real3","33JKGHPFYCV7L98RCL8DSLTLKG7NMA","6","0","MACHINE","1","5","1","3740","machine","1","2017-05-03 00:11:55","45163"
"A2HHGI5CNSS5PD","cs_wg_v3_real3","33JKGHPFYCV7L98RCL8DSLTLKG7NMA","7","0","UMBRELLA","10","5","0","2520","umbrella","10","2017-05-03 00:12:08","45164"
"A2HHGI5CNSS5PD","cs_wg_v3_real3","33JKGHPFYCV7L98RCL8DSLTLKG7NMA","8","0","STOMACH","9","5","1","2035","stomach","9","2017-05-03 00:12:20","45165"
"A2HHGI5CNSS5PD","cs_wg_v3_real3","33JKGHPFYCV7L98RCL8DSLTLKG7NMA","9","0","COMMUNITY","8","5","1","2180","community","8","2017-05-03 00:12:34","45166"
"A2HHGI5CNSS5PD","cs_wg_v3_real3","33JKGHPFYCV7L98RCL8DSLTLKG7NMA","10","0","STRUCTURE","9","5","1","1776","structure","9","2017-05-03 00:12:46","45167"
"A2HHGI5CNSS5PD","cs_wg_v3_real3","33JKGHPFYCV7L98RCL8DSLTLKG7NMA","11","0","MACHINE","1","5","1","2552","machine","1","2017-05-03 00:12:59","45168"
"A2HHGI5CNSS5PD","cs_wg_v3_real3","33JKGHPFYCV7L98RCL8DSLTLKG7NMA","12","0","KEYBOARD","2","5","0","2757","keyboard","2","2017-05-03 00:13:10","45169"
"A2HHGI5CNSS5PD","cs_wg_v3_real3","33JKGHPFYCV7L98RCL8DSLTLKG7NMA","13","0","LADDER","10","5","1","1794","ladder","10","2017-05-03 00:13:31","45170"
"A2HHGI5CNSS5PD","cs_wg_v3_real3","33JKGHPFYCV7L98RCL8DSLTLKG7NMA","14","0","TRAFFIC","2","5","0","3287","traffic","2","2017-05-03 00:13:43","45171"
"A2HHGI5CNSS5PD","cs_wg_v3_real3","33JKGHPFYCV7L98RCL8DSLTLKG7NMA","15","0","DOORWAY","8","5","1","1940","doorway","8","2017-05-03 00:13:59","45172"
"A2HHGI5CNSS5PD","cs_wg_v3_real3","33JKGHPFYCV7L98RCL8DSLTLKG7NMA","16","0","WEDDING","0","5","1","1987","wedding","0","2017-05-03 00:14:10","45173"
"A2HHGI5CNSS5PD","cs_wg_v3_real3","33JKGHPFYCV7L98RCL8DSLTLKG7NMA","17","0","STOMACH","9","5","0","2296","stomach","9","2017-05-03 00:14:20","45174"
"A2HHGI5CNSS5PD","cs_wg_v3_real3","33JKGHPFYCV7L98RCL8DSLTLKG7NMA","18","0","HELICOPTER","10","5","1","2580","helicopter","10","2017-05-03 00:14:37","45175"
"A2HHGI5CNSS5PD","cs_wg_v3_real3","33JKGHPFYCV7L98RCL8DSLTLKG7NMA","19","0","LADDER","10","5","0","3030","ladder","10","2017-05-03 00:14:56","45176"
"A2HHGI5CNSS5PD","cs_wg_v3_real3","33JKGHPFYCV7L98RCL8DSLTLKG7NMA","20","0","DOORWAY","8","5","0","4726","doorway","8","2017-05-03 00:15:10","45177"
"A2HHGI5CNSS5PD","cs_wg_v3_real3","33JKGHPFYCV7L98RCL8DSLTLKG7NMA","21","0","KEYBOARD","2","5","1","3285","keyboard","2","2017-05-03 00:15:22","45178"
"A2HHGI5CNSS5PD","cs_wg_v3_real3","33JKGHPFYCV7L98RCL8DSLTLKG7NMA","22","0","BASKET","1","5","1","2220","basket","1","2017-05-03 00:15:37","45179"
"A2HHGI5CNSS5PD","cs_wg_v3_real3","33JKGHPFYCV7L98RCL8DSLTLKG7NMA","23","0","HELICOPTER","10","5","0","1877","helicopter","10","2017-05-03 00:15:50","45180"
"A2HHGI5CNSS5PD","cs_wg_v3_real3","33JKGHPFYCV7L98RCL8DSLTLKG7NMA","24","0","WEDDING","0","5","1","1950","wedding","0","2017-05-03 00:16:00","45181"
"A2HHGI5CNSS5PD","cs_wg_v3_real3","33JKGHPFYCV7L98RCL8DSLTLKG7NMA","25","0","STRUCTURE","9","5","1","2422","structure","9","2017-05-03 00:16:18","45182"
"A2HHGI5CNSS5PD","cs_wg_v3_real3","33JKGHPFYCV7L98RCL8DSLTLKG7NMA","26","0","LADDER","10","5","0","2033","ladder","10","2017-05-03 00:16:29","45183"
"A2HHGI5CNSS5PD","cs_wg_v3_real3","33JKGHPFYCV7L98RCL8DSLTLKG7NMA","27","0","TRAFFIC","2","5","1","2121","traffic","2","2017-05-03 00:16:40","45184"
"A2HHGI5CNSS5PD","cs_wg_v3_real3","33JKGHPFYCV7L98RCL8DSLTLKG7NMA","28","0","STRUCTURE","9","5","0","2116","structure","9","2017-05-03 00:16:52","45185"
"A2HHGI5CNSS5PD","cs_wg_v3_real3","33JKGHPFYCV7L98RCL8DSLTLKG7NMA","29","0","BOOKSHELF","0","5","1","4785","bookshelf","0","2017-05-03 00:17:07","45186"
"A2HHGI5CNSS5PD","cs_wg_v3_real3","33JKGHPFYCV7L98RCL8DSLTLKG7NMA","30","0","FOOTBALL","0","5","1","1993","football","0","2017-05-03 00:17:18","45187"
"A2HHGI5CNSS5PD","cs_wg_v3_real3","33JKGHPFYCV7L98RCL8DSLTLKG7NMA","31","0","BOOKSHELF","0","5","1","3016","bookshelf","0","2017-05-03 00:17:30","45188"
"A2HHGI5CNSS5PD","cs_wg_v3_real3","33JKGHPFYCV7L98RCL8DSLTLKG7NMA","32","0","HELICOPTER","10","5","0","1880","helicopter","10","2017-05-03 00:17:41","45189"
"A2HHGI5CNSS5PD","cs_wg_v3_real3","33JKGHPFYCV7L98RCL8DSLTLKG7NMA","33","0","STOMACH","9","5","0","1528","stomach","9","2017-05-03 00:17:52","45190"
"A2HHGI5CNSS5PD","cs_wg_v3_real3","33JKGHPFYCV7L98RCL8DSLTLKG7NMA","34","0","LADDER","10","5","0","2081","ladder","10","2017-05-03 00:18:03","45191"
"A2HHGI5CNSS5PD","cs_wg_v3_real3","33JKGHPFYCV7L98RCL8DSLTLKG7NMA","35","0","BASKET","1","5","1","1670","basket","1","2017-05-03 00:18:13","45192"
"A2HHGI5CNSS5PD","cs_wg_v3_real3","33JKGHPFYCV7L98RCL8DSLTLKG7NMA","36","0","FOOTBALL","0","5","1","2692","football","0","2017-05-03 00:18:25","45193"
"A2HHGI5CNSS5PD","cs_wg_v3_real3","33JKGHPFYCV7L98RCL8DSLTLKG7NMA","37","0","UMBRELLA","10","5","0","1560","umbrella","10","2017-05-03 00:18:37","45194"
"A2HHGI5CNSS5PD","cs_wg_v3_real3","33JKGHPFYCV7L98RCL8DSLTLKG7NMA","38","0","FOOTBALL","0","5","1","1640","football","0","2017-05-03 00:18:47","45195"
"A2HHGI5CNSS5PD","cs_wg_v3_real3","33JKGHPFYCV7L98RCL8DSLTLKG7NMA","39","0","DOORWAY","8","5","1","2793","doorway","8","2017-05-03 00:19:00","45196"
"A2HHGI5CNSS5PD","cs_wg_v3_real3","33JKGHPFYCV7L98RCL8DSLTLKG7NMA","40","0","WEDDING","0","5","1","1863","wedding","0","2017-05-03 00:19:10","45197"
"A2HHGI5CNSS5PD","cs_wg_v3_real3","33JKGHPFYCV7L98RCL8DSLTLKG7NMA","41","0","MACHINE","1","5","1","2154","machine","1","2017-05-03 00:19:21","45198"
"A2HHGI5CNSS5PD","cs_wg_v3_real3","33JKGHPFYCV7L98RCL8DSLTLKG7NMA","42","0","MACHINE","1","5","1","2417","machine","1","2017-05-03 00:19:32","45199"
"A2HHGI5CNSS5PD","cs_wg_v3_real3","33JKGHPFYCV7L98RCL8DSLTLKG7NMA","43","0","COMMUNITY","8","5","1","3218","community","8","2017-05-03 00:19:52","45200"
"A2HHGI5CNSS5PD","cs_wg_v3_real3","33JKGHPFYCV7L98RCL8DSLTLKG7NMA","44","0","WEDDING","0","5","1","2476","wedding","0","2017-05-03 00:20:03","45201"
"A2HHGI5CNSS5PD","cs_wg_v3_real3","33JKGHPFYCV7L98RCL8DSLTLKG7NMA","45","0","BASKET","1","5","1","1850","basket","1","2017-05-03 00:20:14","45202"
"A2HHGI5CNSS5PD","cs_wg_v3_real3","33JKGHPFYCV7L98RCL8DSLTLKG7NMA","46","0","STOMACH","9","5","0","1932","stomach","9","2017-05-03 00:20:25","45203"
"A2HHGI5CNSS5PD","cs_wg_v3_real3","33JKGHPFYCV7L98RCL8DSLTLKG7NMA","47","0","LADDER","10","5","0","2363","ladder","10","2017-05-03 00:20:35","45204"
"A2HHGI5CNSS5PD","cs_wg_v3_real3","33JKGHPFYCV7L98RCL8DSLTLKG7NMA","48","0","HELICOPTER","10","5","0","1719","helicopter","10","2017-05-03 00:20:46","45205"
"A2HHGI5CNSS5PD","cs_wg_v3_real3","33JKGHPFYCV7L98RCL8DSLTLKG7NMA","49","0","DOORWAY","8","5","0","2152","doorway","8","2017-05-03 00:20:59","45206"
"A2HHGI5CNSS5PD","cs_wg_v3_real3","33JKGHPFYCV7L98RCL8DSLTLKG7NMA","50","0","STRUCTURE","9","5","0","3236","structure","9","2017-05-03 00:21:11","45207"
"A2HHGI5CNSS5PD","cs_wg_v3_real3","33JKGHPFYCV7L98RCL8DSLTLKG7NMA","51","0","MACHINE","1","5","1","2202","machine","1","2017-05-03 00:21:21","45208"
"A2HHGI5CNSS5PD","cs_wg_v3_real3","33JKGHPFYCV7L98RCL8DSLTLKG7NMA","52","0","DOORWAY","8","5","0","1762","doorway","8","2017-05-03 00:21:33","45209"
"A2HHGI5CNSS5PD","cs_wg_v3_real3","33JKGHPFYCV7L98RCL8DSLTLKG7NMA","53","0","LADDER","10","5","0","1535","ladder","10","2017-05-03 00:21:46","45210"
"A2HHGI5CNSS5PD","cs_wg_v3_real3","33JKGHPFYCV7L98RCL8DSLTLKG7NMA","54","0","FOOTBALL","0","5","1","1839","football","0","2017-05-03 00:21:56","45211"
"A2HHGI5CNSS5PD","cs_wg_v3_real3","33JKGHPFYCV7L98RCL8DSLTLKG7NMA","55","0","BOOKSHELF","0","5","1","1980","bookshelf","0","2017-05-03 00:22:09","45212"
"A2HHGI5CNSS5PD","cs_wg_v3_real3","33JKGHPFYCV7L98RCL8DSLTLKG7NMA","56","0","COMMUNITY","8","5","0","1862","community","8","2017-05-03 00:22:19","45213"
"A2HHGI5CNSS5PD","cs_wg_v3_real3","33JKGHPFYCV7L98RCL8DSLTLKG7NMA","57","0","STOMACH","9","5","0","2763","stomach","9","2017-05-03 00:22:31","45214"
"A2HHGI5CNSS5PD","cs_wg_v3_real3","33JKGHPFYCV7L98RCL8DSLTLKG7NMA","58","0","BOOKSHELF","0","5","1","2020","bookshelf","0","2017-05-03 00:22:44","45215"
"A2HHGI5CNSS5PD","cs_wg_v3_real3","33JKGHPFYCV7L98RCL8DSLTLKG7NMA","59","0","BOOKSHELF","0","5","1","1790","bookshelf","0","2017-05-03 00:22:54","45216"
"A2HHGI5CNSS5PD","cs_wg_v3_real3","33JKGHPFYCV7L98RCL8DSLTLKG7NMA","60","0","UMBRELLA","10","5","0","1682","umbrella","10","2017-05-03 00:23:05","45217"
"A2HHGI5CNSS5PD","cs_wg_v3_real3","33JKGHPFYCV7L98RCL8DSLTLKG7NMA","61","0","KEYBOARD","2","5","1","2637","keyboard","2","2017-05-03 00:23:23","45218"
"A2HHGI5CNSS5PD","cs_wg_v3_real3","33JKGHPFYCV7L98RCL8DSLTLKG7NMA","62","0","FOOTBALL","0","5","1","1612","football","0","2017-05-03 00:23:32","45219"
"A2HHGI5CNSS5PD","cs_wg_v3_real3","33JKGHPFYCV7L98RCL8DSLTLKG7NMA","63","0","UMBRELLA","10","5","0","1402","umbrella","10","2017-05-03 00:23:43","45220"
"A2HHGI5CNSS5PD","cs_wg_v3_real3","33JKGHPFYCV7L98RCL8DSLTLKG7NMA","64","0","WEDDING","0","5","1","1590","wedding","0","2017-05-03 00:23:53","45221"
"A2HHGI5CNSS5PD","cs_wg_v3_real3","33JKGHPFYCV7L98RCL8DSLTLKG7NMA","65","0","WEDDING","0","5","1","1781","wedding","0","2017-05-03 00:24:04","45222"
"A2HHGI5CNSS5PD","cs_wg_v3_real3","33JKGHPFYCV7L98RCL8DSLTLKG7NMA","66","0","FOOTBALL","0","5","1","1857","football","0","2017-05-03 00:24:16","45223"
"A2HHGI5CNSS5PD","cs_wg_v3_real3","33JKGHPFYCV7L98RCL8DSLTLKG7NMA","67","0","UMBRELLA","10","5","0","1650","umbrella","10","2017-05-03 00:24:28","45224"
"A2HHGI5CNSS5PD","cs_wg_v3_real3","33JKGHPFYCV7L98RCL8DSLTLKG7NMA","68","0","BASKET","1","5","1","2536","basket","1","2017-05-03 00:24:44","45225"
"A2HHGI5CNSS5PD","cs_wg_v3_real3","33JKGHPFYCV7L98RCL8DSLTLKG7NMA","69","0","DOORWAY","8","5","0","2906","doorway","8","2017-05-03 00:24:58","45226"
"A2HHGI5CNSS5PD","cs_wg_v3_real3","33JKGHPFYCV7L98RCL8DSLTLKG7NMA","70","0","BOOKSHELF","0","5","1","2954","bookshelf","0","2017-05-03 00:25:11","45227"
"A2HHGI5CNSS5PD","cs_wg_v3_real3","33JKGHPFYCV7L98RCL8DSLTLKG7NMA","71","0","UMBRELLA","10","5","0","2017","umbrella","10","2017-05-03 00:25:21","45228"
"A2HHGI5CNSS5PD","cs_wg_v3_real3","33JKGHPFYCV7L98RCL8DSLTLKG7NMA","72","0","HELICOPTER","10","5","0","1486","helicopter","10","2017-05-03 00:25:33","45229"
"A2HHGI5CNSS5PD","cs_wg_v3_real3","33JKGHPFYCV7L98RCL8DSLTLKG7NMA","73","0","COMMUNITY","8","5","0","1844","community","8","2017-05-03 00:25:46","45230"
"A2HHGI5CNSS5PD","cs_wg_v3_real3","33JKGHPFYCV7L98RCL8DSLTLKG7NMA","74","0","KEYBOARD","2","5","1","2880","keyboard","2","2017-05-03 00:25:58","45231"
"A2HHGI5CNSS5PD","cs_wg_v3_real3","33JKGHPFYCV7L98RCL8DSLTLKG7NMA","75","0","WEDDING","0","5","1","1712","wedding","0","2017-05-03 00:26:10","45232"
"A2HHGI5CNSS5PD","cs_wg_v3_real3","33JKGHPFYCV7L98RCL8DSLTLKG7NMA","76","0","HELICOPTER","10","5","0","1698","helicopter","10","2017-05-03 00:26:21","45233"
"A2HHGI5CNSS5PD","cs_wg_v3_real3","33JKGHPFYCV7L98RCL8DSLTLKG7NMA","77","0","LADDER","10","5","0","2050","ladder","10","2017-05-03 00:26:32","45234"
"A2HHGI5CNSS5PD","cs_wg_v3_real3","33JKGHPFYCV7L98RCL8DSLTLKG7NMA","78","0","STRUCTURE","9","5","0","4050","structure","9","2017-05-03 00:26:46","45235"
"A2HHGI5CNSS5PD","cs_wg_v3_real3","33JKGHPFYCV7L98RCL8DSLTLKG7NMA","79","0","STOMACH","9","5","0","3578","stomach","9","2017-05-03 00:26:58","45236"
"A2HHGI5CNSS5PD","cs_wg_v3_real3","33JKGHPFYCV7L98RCL8DSLTLKG7NMA","80","0","TRAFFIC","2","5","1","2340","traffic","2","2017-05-03 00:27:10","45237"
"A2HHGI5CNSS5PD","cs_wg_v3_real3","33JKGHPFYCV7L98RCL8DSLTLKG7NMA","81","0","COMMUNITY","8","5","0","2627","community","8","2017-05-03 00:27:23","45238"
"A2HHGI5CNSS5PD","cs_wg_v3_real3","33JKGHPFYCV7L98RCL8DSLTLKG7NMA","82","0","MACHINE","1","5","1","2980","machine","1","2017-05-03 00:27:36","45239"
"A2HHGI5CNSS5PD","cs_wg_v3_real3","33JKGHPFYCV7L98RCL8DSLTLKG7NMA","83","0","MACHINE","1","5","1","1997","machine","1","2017-05-03 00:27:46","45240"
"A2HHGI5CNSS5PD","cs_wg_v3_real3","33JKGHPFYCV7L98RCL8DSLTLKG7NMA","84","0","TRAFFIC","2","5","1","3720","traffic","2","2017-05-03 00:28:01","45241"
"A2HHGI5CNSS5PD","cs_wg_v3_real3","33JKGHPFYCV7L98RCL8DSLTLKG7NMA","85","0","BOOKSHELF","0","5","1","1750","bookshelf","0","2017-05-03 00:28:13","45242"
"A2HHGI5CNSS5PD","cs_wg_v3_real3","33JKGHPFYCV7L98RCL8DSLTLKG7NMA","86","0","BASKET","1","5","1","3088","basket","1","2017-05-03 00:28:25","45243"
"A2HHGI5CNSS5PD","cs_wg_v3_real3","33JKGHPFYCV7L98RCL8DSLTLKG7NMA","87","0","STRUCTURE","9","5","0","3352","structure","9","2017-05-03 00:28:39","45244"
"A2HHGI5CNSS5PD","cs_wg_v3_real3","33JKGHPFYCV7L98RCL8DSLTLKG7NMA","88","0","FOOTBALL","0","5","1","1749","football","0","2017-05-03 00:28:50","45245"
"A2HHGI5CNSS5PD","cs_wg_v3_real3","33JKGHPFYCV7L98RCL8DSLTLKG7NMA","89","0","STRUCTURE","9","5","0","2640","structure","9","2017-05-03 00:29:03","45246"
"A2HHGI5CNSS5PD","cs_wg_v3_real3","33JKGHPFYCV7L98RCL8DSLTLKG7NMA","90","0","TRAFFIC","2","5","1","3130","traffic","2","2017-05-03 00:29:17","45247"
"A2HHGI5CNSS5PD","cs_wg_v3_real3","33JKGHPFYCV7L98RCL8DSLTLKG7NMA","91","0","TRAFFIC","2","5","1","2081","traffic","2","2017-05-03 00:29:27","45248"
"A2HHGI5CNSS5PD","cs_wg_v3_real3","33JKGHPFYCV7L98RCL8DSLTLKG7NMA","92","0","LADDER","10","5","0","3556","ladder","10","2017-05-03 00:29:40","45249"
"A2HHGI5CNSS5PD","cs_wg_v3_real3","33JKGHPFYCV7L98RCL8DSLTLKG7NMA","93","0","MACHINE","1","5","1","2560","machine","1","2017-05-03 00:29:51","45250"
"A2HHGI5CNSS5PD","cs_wg_v3_real3","33JKGHPFYCV7L98RCL8DSLTLKG7NMA","94","0","STOMACH","9","5","0","3327","stomach","9","2017-05-03 00:30:07","45251"
"A2HHGI5CNSS5PD","cs_wg_v3_real3","33JKGHPFYCV7L98RCL8DSLTLKG7NMA","95","0","DOORWAY","8","5","0","5957","doorway","8","2017-05-03 00:30:22","45252"
"A2HHGI5CNSS5PD","cs_wg_v3_real3","33JKGHPFYCV7L98RCL8DSLTLKG7NMA","96","0","STRUCTURE","9","5","0","2744","structure","9","2017-05-03 00:30:36","45253"
"A2HHGI5CNSS5PD","cs_wg_v3_real3","33JKGHPFYCV7L98RCL8DSLTLKG7NMA","97","0","WEDDING","0","5","1","1835","wedding","0","2017-05-03 00:30:46","45254"
"A2HHGI5CNSS5PD","cs_wg_v3_real3","33JKGHPFYCV7L98RCL8DSLTLKG7NMA","98","0","FOOTBALL","0","5","1","2004","football","0","2017-05-03 00:30:57","45255"
"A2HHGI5CNSS5PD","cs_wg_v3_real3","33JKGHPFYCV7L98RCL8DSLTLKG7NMA","99","0","HELICOPTER","10","5","0","1600","helicopter","10","2017-05-03 00:31:09","45256"
"A2HHGI5CNSS5PD","cs_wg_v3_real3","33JKGHPFYCV7L98RCL8DSLTLKG7NMA","100","0","KEYBOARD","2","5","1","2577","keyboard","2","2017-05-03 00:31:22","45257"
"A2HHGI5CNSS5PD","cs_wg_v3_real3","33JKGHPFYCV7L98RCL8DSLTLKG7NMA","101","0","COMMUNITY","8","5","0","2100","community","8","2017-05-03 00:31:34","45258"
"A2HHGI5CNSS5PD","cs_wg_v3_real3","33JKGHPFYCV7L98RCL8DSLTLKG7NMA","102","0","KEYBOARD","2","5","1","3150","keyboard","2","2017-05-03 00:31:46","45259"
"A2HHGI5CNSS5PD","cs_wg_v3_real3","33JKGHPFYCV7L98RCL8DSLTLKG7NMA","103","0","KEYBOARD","2","5","1","1630","keyboard","2","2017-05-03 00:31:57","45260"
"A2HHGI5CNSS5PD","cs_wg_v3_real3","33JKGHPFYCV7L98RCL8DSLTLKG7NMA","104","0","HELICOPTER","10","5","0","2153","helicopter","10","2017-05-03 00:32:09","45261"
"A2HHGI5CNSS5PD","cs_wg_v3_real3","33JKGHPFYCV7L98RCL8DSLTLKG7NMA","105","0","COMMUNITY","8","5","0","3497","community","8","2017-05-03 00:32:22","45262"
"A2HHGI5CNSS5PD","cs_wg_v3_real3","33JKGHPFYCV7L98RCL8DSLTLKG7NMA","106","0","COMMUNITY","8","5","0","1693","community","8","2017-05-03 00:32:33","45263"
"A2HHGI5CNSS5PD","cs_wg_v3_real3","33JKGHPFYCV7L98RCL8DSLTLKG7NMA","107","0","BASKET","1","5","1","2641","basket","1","2017-05-03 00:32:44","45264"
"A2HHGI5CNSS5PD","cs_wg_v3_real3","33JKGHPFYCV7L98RCL8DSLTLKG7NMA","108","0","UMBRELLA","10","5","0","1730","umbrella","10","2017-05-03 00:32:56","45265"
"A2HHGI5CNSS5PD","cs_wg_v3_real3","33JKGHPFYCV7L98RCL8DSLTLKG7NMA","109","0","DOORWAY","8","5","0","2895","doorway","8","2017-05-03 00:33:09","45266"
"A2HHGI5CNSS5PD","cs_wg_v3_real3","33JKGHPFYCV7L98RCL8DSLTLKG7NMA","110","0","BASKET","1","5","1","3004","basket","1","2017-05-03 00:33:20","45267"
"A2HHGI5CNSS5PD","cs_wg_v3_real3","33JKGHPFYCV7L98RCL8DSLTLKG7NMA","111","0","STOMACH","9","5","0","4122","stomach","9","2017-05-03 00:33:34","45268"
