"subject","version","assignmentId","trial","trial_type","word","value","alt","value2","choice","rt","resp","resp2","resp3","resp4","used_hint","stamp","id"
"A2Z2OSTA6PD0E","cs_wg_rev_conf_pilot1","3KXIR214I4HVSXUSKYAXE39QF2P24B","0","0","COWBOY","7","ACROBAT","5","0","6560",,,,,"1","2018-09-25 21:48:12","223427"
"A3MVLRCP54PYC8","cs_wg_rev_conf_pilot1","3CTOC39K37RSHGAJTHEWGWFH8F17JN","0","0","BANANA","6","CRICKET","15","1","9064",,,,,"1","2018-09-25 21:48:19","223428"
"A2Z2OSTA6PD0E","cs_wg_rev_conf_pilot1","3KXIR214I4HVSXUSKYAXE39QF2P24B","1","0","BICYCLE","5","CHICKEN","15","1","6502",,,,,"1","2018-09-25 21:48:22","223429"
"A2Z2OSTA6PD0E","cs_wg_rev_conf_pilot1","3KXIR214I4HVSXUSKYAXE39QF2P24B","2","0","BANANA","7","COWBOY","7","1","5330",,,,,"1","2018-09-25 21:48:30","223430"
"A3MVLRCP54PYC8","cs_wg_rev_conf_pilot1","3CTOC39K37RSHGAJTHEWGWFH8F17JN","1","0","PEBBLE","5","BANANA","6","1","11261",,,,,"1","2018-09-25 21:48:34","223431"
"A2Z2OSTA6PD0E","cs_wg_rev_conf_pilot1","3KXIR214I4HVSXUSKYAXE39QF2P24B","3","0","COWBOY","7","BANANA","7","0","2442",,,,,"0","2018-09-25 21:48:35","223432"
"A3MVLRCP54PYC8","cs_wg_rev_conf_pilot1","3CTOC39K37RSHGAJTHEWGWFH8F17JN","2","0","POTATO","5","CANCER","6","1","3971",,,,,"1","2018-09-25 21:48:40","223433"
"A2Z2OSTA6PD0E","cs_wg_rev_conf_pilot1","3KXIR214I4HVSXUSKYAXE39QF2P24B","4","0","PEBBLE","5","COWBOY","7","1","3698",,,,,"1","2018-09-25 21:48:41","223434"
"A3MVLRCP54PYC8","cs_wg_rev_conf_pilot1","3CTOC39K37RSHGAJTHEWGWFH8F17JN","3","0","PEBBLE","5","POTATO","5","1","4299",,,,,"1","2018-09-25 21:48:46","223435"
"A2Z2OSTA6PD0E","cs_wg_rev_conf_pilot1","3KXIR214I4HVSXUSKYAXE39QF2P24B","5","0","ACROBAT","5","PELICAN","7","1","3325",,,,,"1","2018-09-25 21:48:47","223436"
"A3MVLRCP54PYC8","cs_wg_rev_conf_pilot1","3CTOC39K37RSHGAJTHEWGWFH8F17JN","4","0","POTATO","5","ARCADE","7","1","3156",,,,,"1","2018-09-25 21:48:52","223437"
"A2Z2OSTA6PD0E","cs_wg_rev_conf_pilot1","3KXIR214I4HVSXUSKYAXE39QF2P24B","6","0","PELICAN","7","PEBBLE","5","0","3524",,,,,"1","2018-09-25 21:48:53","223438"
"A1PF1TUEBW499M","cs_wg_rev_conf_pilot1","3DH6GAKTYYQ1WFBOYC7IH3N4VCMZY0","0","0","SMOKER","1","SPATULA","6","1","7910",,,,,"1","2018-09-25 21:48:55","223439"
"A2Z2OSTA6PD0E","cs_wg_rev_conf_pilot1","3KXIR214I4HVSXUSKYAXE39QF2P24B","7","0","PELICAN","7","PUMPKIN","1","0","2496",,,,,"1","2018-09-25 21:48:58","223440"
"A3MVLRCP54PYC8","cs_wg_rev_conf_pilot1","3CTOC39K37RSHGAJTHEWGWFH8F17JN","5","0","SQUARE","7","PEBBLE","5","0","5183",,,,,"1","2018-09-25 21:49:00","223441"
"A1PF1TUEBW499M","cs_wg_rev_conf_pilot1","3DH6GAKTYYQ1WFBOYC7IH3N4VCMZY0","1","0","SMOKER","1","SPATULA","6","1","2137",,,,,"0","2018-09-25 21:49:00","223442"
"A2Z2OSTA6PD0E","cs_wg_rev_conf_pilot1","3KXIR214I4HVSXUSKYAXE39QF2P24B","8","0","PUMPKIN","1","CHICKEN","15","1","3204",,,,,"1","2018-09-25 21:49:03","223443"
"A1PF1TUEBW499M","cs_wg_rev_conf_pilot1","3DH6GAKTYYQ1WFBOYC7IH3N4VCMZY0","2","0","CHICKEN","15","TURKEY","8","0","4203",,,,,"1","2018-09-25 21:49:07","223444"
"A3MVLRCP54PYC8","cs_wg_rev_conf_pilot1","3CTOC39K37RSHGAJTHEWGWFH8F17JN","6","0","BANANA","6","PEBBLE","5","0","5415",,,,,"1","2018-09-25 21:49:08","223445"
"A2Z2OSTA6PD0E","cs_wg_rev_conf_pilot1","3KXIR214I4HVSXUSKYAXE39QF2P24B","9","0","ACROBAT","5","TOMATO","6","1","3093",,,,,"1","2018-09-25 21:49:09","223446"
"A1PF1TUEBW499M","cs_wg_rev_conf_pilot1","3DH6GAKTYYQ1WFBOYC7IH3N4VCMZY0","3","0","TURKEY","8","SPATULA","6","0","4382",,,,,"1","2018-09-25 21:49:13","223447"
"A2Z2OSTA6PD0E","cs_wg_rev_conf_pilot1","3KXIR214I4HVSXUSKYAXE39QF2P24B","10","0","SUNBURN","6","PUMPKIN","1","0","2302",,,,,"1","2018-09-25 21:49:14","223448"
"A3MVLRCP54PYC8","cs_wg_rev_conf_pilot1","3CTOC39K37RSHGAJTHEWGWFH8F17JN","7","0","PEBBLE","5","SQUARE","7","1","4068",,,,,"1","2018-09-25 21:49:14","223449"
"A1PF1TUEBW499M","cs_wg_rev_conf_pilot1","3DH6GAKTYYQ1WFBOYC7IH3N4VCMZY0","4","0","CHICKEN","15","SMOKER","1","0","3059",,,,,"1","2018-09-25 21:49:18","223450"
"A2Z2OSTA6PD0E","cs_wg_rev_conf_pilot1","3KXIR214I4HVSXUSKYAXE39QF2P24B","11","0","CHICKEN","15","AIRBAG","6","0","3532",,,,,"1","2018-09-25 21:49:19","223451"
"A1PF1TUEBW499M","cs_wg_rev_conf_pilot1","3DH6GAKTYYQ1WFBOYC7IH3N4VCMZY0","5","0","SPATULA","6","ACROBAT","6","0","2720",,,,,"1","2018-09-25 21:49:23","223452"
"A3MVLRCP54PYC8","cs_wg_rev_conf_pilot1","3CTOC39K37RSHGAJTHEWGWFH8F17JN","8","0","POTATO","5","CRICKET","15","1","6936",,,,,"1","2018-09-25 21:49:23","223453"
"A2Z2OSTA6PD0E","cs_wg_rev_conf_pilot1","3KXIR214I4HVSXUSKYAXE39QF2P24B","12","0","PEBBLE","5","AIRBAG","6","1","2804",,,,,"1","2018-09-25 21:49:25","223454"
"A1PF1TUEBW499M","cs_wg_rev_conf_pilot1","3DH6GAKTYYQ1WFBOYC7IH3N4VCMZY0","6","0","TURKEY","8","CHICKEN","15","1","2307",,,,,"0","2018-09-25 21:49:28","223455"
"A3MVLRCP54PYC8","cs_wg_rev_conf_pilot1","3CTOC39K37RSHGAJTHEWGWFH8F17JN","9","0","ARCADE","7","BASKET","1","0","4146",,,,,"1","2018-09-25 21:49:30","223456"
"A2Z2OSTA6PD0E","cs_wg_rev_conf_pilot1","3KXIR214I4HVSXUSKYAXE39QF2P24B","13","0","PEBBLE","5","PELICAN","7","1","2796",,,,,"1","2018-09-25 21:49:30","223457"
"A1PF1TUEBW499M","cs_wg_rev_conf_pilot1","3DH6GAKTYYQ1WFBOYC7IH3N4VCMZY0","7","0","ACROBAT","6","SPATULA","6","0","3008",,,,,"1","2018-09-25 21:49:33","223458"
"A3MVLRCP54PYC8","cs_wg_rev_conf_pilot1","3CTOC39K37RSHGAJTHEWGWFH8F17JN","10","0","TURKEY","8","BANQUET","6","0","3636",,,,,"1","2018-09-25 21:49:35","223459"
"A2Z2OSTA6PD0E","cs_wg_rev_conf_pilot1","3KXIR214I4HVSXUSKYAXE39QF2P24B","14","0","PELICAN","7","CHICKEN","15","1","3673",,,,,"1","2018-09-25 21:49:37","223460"
"A1PF1TUEBW499M","cs_wg_rev_conf_pilot1","3DH6GAKTYYQ1WFBOYC7IH3N4VCMZY0","8","0","SPATULA","6","CHICKEN","15","1","2356",,,,,"0","2018-09-25 21:49:37","223461"
"A3MVLRCP54PYC8","cs_wg_rev_conf_pilot1","3CTOC39K37RSHGAJTHEWGWFH8F17JN","11","0","ARCADE","7","BANANA","6","0","3788",,,,,"1","2018-09-25 21:49:41","223462"
"A2Z2OSTA6PD0E","cs_wg_rev_conf_pilot1","3KXIR214I4HVSXUSKYAXE39QF2P24B","15","0","BANANA","7","ACROBAT","5","0","3087",,,,,"1","2018-09-25 21:49:42","223463"
"A1PF1TUEBW499M","cs_wg_rev_conf_pilot1","3DH6GAKTYYQ1WFBOYC7IH3N4VCMZY0","9","0","CHICKEN","15","SPATULA","6","0","2882",,,,,"1","2018-09-25 21:49:42","223464"
"A3MVLRCP54PYC8","cs_wg_rev_conf_pilot1","3CTOC39K37RSHGAJTHEWGWFH8F17JN","12","0","BASKET","1","POTATO","5","1","2781",,,,,"1","2018-09-25 21:49:46","223465"
"A2Z2OSTA6PD0E","cs_wg_rev_conf_pilot1","3KXIR214I4HVSXUSKYAXE39QF2P24B","16","0","TOMATO","6","PELICAN","7","1","3030",,,,,"1","2018-09-25 21:49:48","223466"
"A1PF1TUEBW499M","cs_wg_rev_conf_pilot1","3DH6GAKTYYQ1WFBOYC7IH3N4VCMZY0","10","0","TURKEY","8","SPATULA","6","0","2724",,,,,"0","2018-09-25 21:49:49","223467"
"A3MVLRCP54PYC8","cs_wg_rev_conf_pilot1","3CTOC39K37RSHGAJTHEWGWFH8F17JN","13","0","TURKEY","8","CRICKET","15","1","2234",,,,,"1","2018-09-25 21:49:50","223468"
"A1PF1TUEBW499M","cs_wg_rev_conf_pilot1","3DH6GAKTYYQ1WFBOYC7IH3N4VCMZY0","11","0","TURKEY","8","SMOKER","1","0","1511",,,,,"0","2018-09-25 21:49:53","223469"
"A2Z2OSTA6PD0E","cs_wg_rev_conf_pilot1","3KXIR214I4HVSXUSKYAXE39QF2P24B","17","0","SUNBURN","6","AIRBAG","6","0","3057",,,,,"1","2018-09-25 21:49:53","223470"
"A1PF1TUEBW499M","cs_wg_rev_conf_pilot1","3DH6GAKTYYQ1WFBOYC7IH3N4VCMZY0","12","0","SPATULA","6","CHICKEN","15","1","1449",,,,,"0","2018-09-25 21:49:57","223471"
"A2Z2OSTA6PD0E","cs_wg_rev_conf_pilot1","3KXIR214I4HVSXUSKYAXE39QF2P24B","18","0","BICYCLE","5","JACKET","8","1","2545",,,,,"1","2018-09-25 21:49:58","223472"
"A3MVLRCP54PYC8","cs_wg_rev_conf_pilot1","3CTOC39K37RSHGAJTHEWGWFH8F17JN","14","0","BANQUET","6","VOLCANO","7","1","6717",,,,,"1","2018-09-25 21:49:59","223473"
"A1PF1TUEBW499M","cs_wg_rev_conf_pilot1","3DH6GAKTYYQ1WFBOYC7IH3N4VCMZY0","13","0","CHICKEN","15","ACROBAT","6","0","1547",,,,,"0","2018-09-25 21:50:00","223474"
"A11D6T3OPPZIE1","cs_wg_rev_conf_pilot1","33C7UALJVLZPMDZYDX0WQWFQPI7180","0","0","CRICKET","1","BASKET","15","1","7065",,,,,"1","2018-09-25 21:50:03","223475"
"A1PF1TUEBW499M","cs_wg_rev_conf_pilot1","3DH6GAKTYYQ1WFBOYC7IH3N4VCMZY0","14","0","ACROBAT","6","CHICKEN","15","1","1545",,,,,"0","2018-09-25 21:50:03","223476"
"A2Z2OSTA6PD0E","cs_wg_rev_conf_pilot1","3KXIR214I4HVSXUSKYAXE39QF2P24B","19","0","ACROBAT","5","AIRBAG","6","1","2784",,,,,"1","2018-09-25 21:50:04","223477"
"A3MVLRCP54PYC8","cs_wg_rev_conf_pilot1","3CTOC39K37RSHGAJTHEWGWFH8F17JN","15","0","ARCADE","7","BANQUET","6","0","2943",,,,,"1","2018-09-25 21:50:04","223478"
"A1PF1TUEBW499M","cs_wg_rev_conf_pilot1","3DH6GAKTYYQ1WFBOYC7IH3N4VCMZY0","15","0","TURKEY","8","SPATULA","6","0","2219",,,,,"0","2018-09-25 21:50:08","223479"
"A3MVLRCP54PYC8","cs_wg_rev_conf_pilot1","3CTOC39K37RSHGAJTHEWGWFH8F17JN","16","0","BANQUET","6","CANCER","6","1","2702",,,,,"1","2018-09-25 21:50:08","223480"
"A11D6T3OPPZIE1","cs_wg_rev_conf_pilot1","33C7UALJVLZPMDZYDX0WQWFQPI7180","1","0","CRICKET","1","BASKET","15","1","2175",,,,,"0","2018-09-25 21:50:09","223481"
"A2Z2OSTA6PD0E","cs_wg_rev_conf_pilot1","3KXIR214I4HVSXUSKYAXE39QF2P24B","20","0","AIRBAG","6","JACKET","8","1","3057",,,,,"1","2018-09-25 21:50:09","223482"
"A3MVLRCP54PYC8","cs_wg_rev_conf_pilot1","3CTOC39K37RSHGAJTHEWGWFH8F17JN","17","0","BASKET","1","CRICKET","15","1","1589",,,,,"0","2018-09-25 21:50:12","223483"
"A1PF1TUEBW499M","cs_wg_rev_conf_pilot1","3DH6GAKTYYQ1WFBOYC7IH3N4VCMZY0","16","0","SPATULA","6","TURKEY","8","1","3134",,,,,"0","2018-09-25 21:50:13","223484"
"A2Z2OSTA6PD0E","cs_wg_rev_conf_pilot1","3KXIR214I4HVSXUSKYAXE39QF2P24B","21","0","PEBBLE","5","BANANA","7","1","3014",,,,,"1","2018-09-25 21:50:14","223485"
"A1PF1TUEBW499M","cs_wg_rev_conf_pilot1","3DH6GAKTYYQ1WFBOYC7IH3N4VCMZY0","17","0","ACROBAT","6","CHICKEN","15","1","1185",,,,,"0","2018-09-25 21:50:16","223486"
"A3MVLRCP54PYC8","cs_wg_rev_conf_pilot1","3CTOC39K37RSHGAJTHEWGWFH8F17JN","18","0","POTATO","5","VOLCANO","7","1","3018",,,,,"1","2018-09-25 21:50:17","223487"
"A2Z2OSTA6PD0E","cs_wg_rev_conf_pilot1","3KXIR214I4HVSXUSKYAXE39QF2P24B","22","0","AIRBAG","6","CHICKEN","15","1","1951",,,,,"1","2018-09-25 21:50:19","223488"
"A11D6T3OPPZIE1","cs_wg_rev_conf_pilot1","33C7UALJVLZPMDZYDX0WQWFQPI7180","2","0","LIQUID","6","CRICKET","1","0","7583",,,,,"0","2018-09-25 21:50:20","223489"
"A1PF1TUEBW499M","cs_wg_rev_conf_pilot1","3DH6GAKTYYQ1WFBOYC7IH3N4VCMZY0","18","0","ACROBAT","6","SPATULA","6","0","1831",,,,,"0","2018-09-25 21:50:20","223490"
"A3MVLRCP54PYC8","cs_wg_rev_conf_pilot1","3CTOC39K37RSHGAJTHEWGWFH8F17JN","19","0","PEBBLE","5","CRICKET","15","1","3096",,,,,"1","2018-09-25 21:50:22","223491"
"A1PF1TUEBW499M","cs_wg_rev_conf_pilot1","3DH6GAKTYYQ1WFBOYC7IH3N4VCMZY0","19","0","SPATULA","6","CHICKEN","15","1","1010",,,,,"0","2018-09-25 21:50:23","223492"
"A2Z2OSTA6PD0E","cs_wg_rev_conf_pilot1","3KXIR214I4HVSXUSKYAXE39QF2P24B","23","0","TOMATO","6","CHICKEN","15","1","3578",,,,,"1","2018-09-25 21:50:25","223493"
"A11D6T3OPPZIE1","cs_wg_rev_conf_pilot1","33C7UALJVLZPMDZYDX0WQWFQPI7180","3","0","BASKET","15","SQUARE","6","0","3136",,,,,"0","2018-09-25 21:50:26","223494"
"A1PF1TUEBW499M","cs_wg_rev_conf_pilot1","3DH6GAKTYYQ1WFBOYC7IH3N4VCMZY0","20","0","CHICKEN","15","SMOKER","1","0","960",,,,,"0","2018-09-25 21:50:26","223495"
"A3MVLRCP54PYC8","cs_wg_rev_conf_pilot1","3CTOC39K37RSHGAJTHEWGWFH8F17JN","20","0","SQUARE","7","BASKET","1","0","2682",,,,,"1","2018-09-25 21:50:26","223496"
"A1PF1TUEBW499M","cs_wg_rev_conf_pilot1","3DH6GAKTYYQ1WFBOYC7IH3N4VCMZY0","21","0","ACROBAT","6","TURKEY","8","1","2203",,,,,"0","2018-09-25 21:50:30","223497"
"A11D6T3OPPZIE1","cs_wg_rev_conf_pilot1","33C7UALJVLZPMDZYDX0WQWFQPI7180","4","0","CRICKET","1","JACKET","8","0","2093",,,,,"0","2018-09-25 21:50:31","223498"
"A3MVLRCP54PYC8","cs_wg_rev_conf_pilot1","3CTOC39K37RSHGAJTHEWGWFH8F17JN","21","0","ISLAND","5","CRICKET","15","1","2454",,,,,"1","2018-09-25 21:50:31","223499"
"A1PF1TUEBW499M","cs_wg_rev_conf_pilot1","3DH6GAKTYYQ1WFBOYC7IH3N4VCMZY0","22","0","SMOKER","1","CHICKEN","15","1","967",,,,,"0","2018-09-25 21:50:33","223500"
"A2Z2OSTA6PD0E","cs_wg_rev_conf_pilot1","3KXIR214I4HVSXUSKYAXE39QF2P24B","24","0","PUMPKIN","1","AIRBAG","6","1","3196",,,,,"1","2018-09-25 21:50:33","223501"
"A11D6T3OPPZIE1","cs_wg_rev_conf_pilot1","33C7UALJVLZPMDZYDX0WQWFQPI7180","5","0","BASKET","15","JACKET","8","0","2590",,,,,"0","2018-09-25 21:50:35","223502"
"A3MVLRCP54PYC8","cs_wg_rev_conf_pilot1","3CTOC39K37RSHGAJTHEWGWFH8F17JN","22","0","CANCER","6","BANQUET","6","0","3224",,,,,"1","2018-09-25 21:50:36","223503"
"A1PF1TUEBW499M","cs_wg_rev_conf_pilot1","3DH6GAKTYYQ1WFBOYC7IH3N4VCMZY0","23","0","SMOKER","1","SPATULA","6","1","2980",,,,,"0","2018-09-25 21:50:37","223504"
"A2Z2OSTA6PD0E","cs_wg_rev_conf_pilot1","3KXIR214I4HVSXUSKYAXE39QF2P24B","25","0","TOMATO","6","AIRBAG","6","0","2993",,,,,"1","2018-09-25 21:50:38","223505"
"A11D6T3OPPZIE1","cs_wg_rev_conf_pilot1","33C7UALJVLZPMDZYDX0WQWFQPI7180","6","0","BASKET","15","CRICKET","1","0","1312",,,,,"0","2018-09-25 21:50:39","223506"
"A1PF1TUEBW499M","cs_wg_rev_conf_pilot1","3DH6GAKTYYQ1WFBOYC7IH3N4VCMZY0","24","0","CHICKEN","15","SMOKER","1","0","956",,,,,"0","2018-09-25 21:50:40","223507"
"A3MVLRCP54PYC8","cs_wg_rev_conf_pilot1","3CTOC39K37RSHGAJTHEWGWFH8F17JN","23","0","BANQUET","6","SQUARE","7","1","2530",,,,,"1","2018-09-25 21:50:40","223508"
"A1PF1TUEBW499M","cs_wg_rev_conf_pilot1","3DH6GAKTYYQ1WFBOYC7IH3N4VCMZY0","25","0","CHICKEN","15","TURKEY","8","0","915",,,,,"0","2018-09-25 21:50:42","223509"
"A2Z2OSTA6PD0E","cs_wg_rev_conf_pilot1","3KXIR214I4HVSXUSKYAXE39QF2P24B","26","0","PELICAN","7","TOMATO","6","0","2239",,,,,"1","2018-09-25 21:50:43","223510"
"A11D6T3OPPZIE1","cs_wg_rev_conf_pilot1","33C7UALJVLZPMDZYDX0WQWFQPI7180","7","0","BASKET","15","LIQUID","6","0","1305",,,,,"0","2018-09-25 21:50:43","223511"
"A3MVLRCP54PYC8","cs_wg_rev_conf_pilot1","3CTOC39K37RSHGAJTHEWGWFH8F17JN","24","0","CRICKET","15","SQUARE","7","0","2537",,,,,"1","2018-09-25 21:50:44","223512"
"A1PF1TUEBW499M","cs_wg_rev_conf_pilot1","3DH6GAKTYYQ1WFBOYC7IH3N4VCMZY0","26","0","TURKEY","8","SMOKER","1","0","1983",,,,,"0","2018-09-25 21:50:46","223513"
"A11D6T3OPPZIE1","cs_wg_rev_conf_pilot1","33C7UALJVLZPMDZYDX0WQWFQPI7180","8","0","BASKET","15","LIQUID","6","0","1515",,,,,"0","2018-09-25 21:50:46","223514"
"A2Z2OSTA6PD0E","cs_wg_rev_conf_pilot1","3KXIR214I4HVSXUSKYAXE39QF2P24B","27","0","TOMATO","6","BANANA","7","1","2330",,,,,"1","2018-09-25 21:50:47","223515"
"A1PF1TUEBW499M","cs_wg_rev_conf_pilot1","3DH6GAKTYYQ1WFBOYC7IH3N4VCMZY0","27","0","TURKEY","8","ACROBAT","6","0","1038",,,,,"0","2018-09-25 21:50:49","223516"
"A3MVLRCP54PYC8","cs_wg_rev_conf_pilot1","3CTOC39K37RSHGAJTHEWGWFH8F17JN","25","0","ARCADE","7","ISLAND","5","0","2952",,,,,"1","2018-09-25 21:50:49","223517"
"A11D6T3OPPZIE1","cs_wg_rev_conf_pilot1","33C7UALJVLZPMDZYDX0WQWFQPI7180","9","0","SQUARE","6","JACKET","8","0","2209",,,,,"0","2018-09-25 21:50:51","223518"
"A2Z2OSTA6PD0E","cs_wg_rev_conf_pilot1","3KXIR214I4HVSXUSKYAXE39QF2P24B","28","0","ACROBAT","5","BANANA","7","1","2921",,,,,"1","2018-09-25 21:50:53","223519"
"A3MVLRCP54PYC8","cs_wg_rev_conf_pilot1","3CTOC39K37RSHGAJTHEWGWFH8F17JN","26","0","VOLCANO","7","CANCER","6","0","2453",,,,,"1","2018-09-25 21:50:53","223520"
"A1PF1TUEBW499M","cs_wg_rev_conf_pilot1","3DH6GAKTYYQ1WFBOYC7IH3N4VCMZY0","28","0","SPATULA","6","TURKEY","8","1","2987",,,,,"0","2018-09-25 21:50:54","223521"
"A11D6T3OPPZIE1","cs_wg_rev_conf_pilot1","33C7UALJVLZPMDZYDX0WQWFQPI7180","10","0","SQUARE","6","LIQUID","6","1","1045",,,,,"0","2018-09-25 21:50:55","223522"
"A1PF1TUEBW499M","cs_wg_rev_conf_pilot1","3DH6GAKTYYQ1WFBOYC7IH3N4VCMZY0","29","0","SMOKER","1","CHICKEN","15","1","982",,,,,"0","2018-09-25 21:50:56","223523"
"A2Z2OSTA6PD0E","cs_wg_rev_conf_pilot1","3KXIR214I4HVSXUSKYAXE39QF2P24B","29","0","SUNBURN","6","TOMATO","6","1","3127",,,,,"1","2018-09-25 21:50:58","223524"
"A3MVLRCP54PYC8","cs_wg_rev_conf_pilot1","3CTOC39K37RSHGAJTHEWGWFH8F17JN","27","0","TURKEY","8","CANCER","6","0","2752",,,,,"1","2018-09-25 21:50:58","223525"
"A11D6T3OPPZIE1","cs_wg_rev_conf_pilot1","33C7UALJVLZPMDZYDX0WQWFQPI7180","11","0","SQUARE","6","LIQUID","6","1","1505",,,,,"0","2018-09-25 21:50:59","223526"
"A1PF1TUEBW499M","cs_wg_rev_conf_pilot1","3DH6GAKTYYQ1WFBOYC7IH3N4VCMZY0","30","0","SMOKER","1","TURKEY","8","1","1684",,,,,"0","2018-09-25 21:51:00","223527"
"A1PF1TUEBW499M","cs_wg_rev_conf_pilot1","3DH6GAKTYYQ1WFBOYC7IH3N4VCMZY0","31","0","ACROBAT","6","SPATULA","6","1","1147",,,,,"0","2018-09-25 21:51:02","223528"
"A2Z2OSTA6PD0E","cs_wg_rev_conf_pilot1","3KXIR214I4HVSXUSKYAXE39QF2P24B","30","0","BANANA","7","TOMATO","6","0","2176",,,,,"1","2018-09-25 21:51:02","223529"
"A3MVLRCP54PYC8","cs_wg_rev_conf_pilot1","3CTOC39K37RSHGAJTHEWGWFH8F17JN","28","0","ISLAND","5","PEBBLE","5","0","2342",,,,,"1","2018-09-25 21:51:02","223530"
"A11D6T3OPPZIE1","cs_wg_rev_conf_pilot1","33C7UALJVLZPMDZYDX0WQWFQPI7180","12","0","LIQUID","6","SQUARE","6","1","1648",,,,,"0","2018-09-25 21:51:03","223531"
"A1PF1TUEBW499M","cs_wg_rev_conf_pilot1","3DH6GAKTYYQ1WFBOYC7IH3N4VCMZY0","32","0","ACROBAT","6","SMOKER","1","0","1591",,,,,"0","2018-09-25 21:51:05","223532"
"A3MVLRCP54PYC8","cs_wg_rev_conf_pilot1","3CTOC39K37RSHGAJTHEWGWFH8F17JN","29","0","SQUARE","7","ARCADE","7","0","1709",,,,,"1","2018-09-25 21:51:06","223533"
"A11D6T3OPPZIE1","cs_wg_rev_conf_pilot1","33C7UALJVLZPMDZYDX0WQWFQPI7180","13","0","LIQUID","6","BASKET","15","1","1567",,,,,"0","2018-09-25 21:51:07","223534"
"A2Z2OSTA6PD0E","cs_wg_rev_conf_pilot1","3KXIR214I4HVSXUSKYAXE39QF2P24B","31","0","SUNBURN","6","JACKET","8","1","2649",,,,,"1","2018-09-25 21:51:07","223535"
"A1PF1TUEBW499M","cs_wg_rev_conf_pilot1","3DH6GAKTYYQ1WFBOYC7IH3N4VCMZY0","33","0","TURKEY","8","CHICKEN","15","1","971",,,,,"0","2018-09-25 21:51:08","223536"
"A3MVLRCP54PYC8","cs_wg_rev_conf_pilot1","3CTOC39K37RSHGAJTHEWGWFH8F17JN","30","0","POTATO","5","BANQUET","6","0","2207",,,,,"1","2018-09-25 21:51:10","223537"
"A1PF1TUEBW499M","cs_wg_rev_conf_pilot1","3DH6GAKTYYQ1WFBOYC7IH3N4VCMZY0","34","0","SMOKER","1","ACROBAT","6","1","1904",,,,,"0","2018-09-25 21:51:11","223538"
"A2Z2OSTA6PD0E","cs_wg_rev_conf_pilot1","3KXIR214I4HVSXUSKYAXE39QF2P24B","32","0","PUMPKIN","1","ACROBAT","5","1","3270",,,,,"1","2018-09-25 21:51:13","223539"
"A11D6T3OPPZIE1","cs_wg_rev_conf_pilot1","33C7UALJVLZPMDZYDX0WQWFQPI7180","14","0","JACKET","8","CRICKET","1","0","4230",,,,,"0","2018-09-25 21:51:14","223540"
"A1PF1TUEBW499M","cs_wg_rev_conf_pilot1","3DH6GAKTYYQ1WFBOYC7IH3N4VCMZY0","35","0","CHICKEN","15","ACROBAT","6","0","1027",,,,,"0","2018-09-25 21:51:14","223541"
"A3MVLRCP54PYC8","cs_wg_rev_conf_pilot1","3CTOC39K37RSHGAJTHEWGWFH8F17JN","31","0","POTATO","5","TURKEY","8","1","2301",,,,,"1","2018-09-25 21:51:14","223542"
"A11D6T3OPPZIE1","cs_wg_rev_conf_pilot1","33C7UALJVLZPMDZYDX0WQWFQPI7180","15","0","JACKET","8","SQUARE","6","0","1372",,,,,"0","2018-09-25 21:51:18","223543"
"A1PF1TUEBW499M","cs_wg_rev_conf_pilot1","3DH6GAKTYYQ1WFBOYC7IH3N4VCMZY0","36","0","TURKEY","8","ACROBAT","6","0","1585",,,,,"0","2018-09-25 21:51:18","223544"
"A2Z2OSTA6PD0E","cs_wg_rev_conf_pilot1","3KXIR214I4HVSXUSKYAXE39QF2P24B","33","0","TOMATO","6","BICYCLE","5","0","2829",,,,,"1","2018-09-25 21:51:18","223545"
"A3MVLRCP54PYC8","cs_wg_rev_conf_pilot1","3CTOC39K37RSHGAJTHEWGWFH8F17JN","32","0","CRICKET","15","ARCADE","7","0","2303",,,,,"0","2018-09-25 21:51:18","223546"
"A11D6T3OPPZIE1","cs_wg_rev_conf_pilot1","33C7UALJVLZPMDZYDX0WQWFQPI7180","16","0","SQUARE","6","BASKET","15","1","1135",,,,,"0","2018-09-25 21:51:21","223547"
"A1PF1TUEBW499M","cs_wg_rev_conf_pilot1","3DH6GAKTYYQ1WFBOYC7IH3N4VCMZY0","37","0","SPATULA","6","SMOKER","1","0","2115",,,,,"0","2018-09-25 21:51:21","223548"
"A2Z2OSTA6PD0E","cs_wg_rev_conf_pilot1","3KXIR214I4HVSXUSKYAXE39QF2P24B","34","0","BICYCLE","5","SUNBURN","6","1","2661",,,,,"1","2018-09-25 21:51:23","223549"
"A1PF1TUEBW499M","cs_wg_rev_conf_pilot1","3DH6GAKTYYQ1WFBOYC7IH3N4VCMZY0","38","0","SMOKER","1","TURKEY","8","1","976",,,,,"0","2018-09-25 21:51:24","223550"
"A3MVLRCP54PYC8","cs_wg_rev_conf_pilot1","3CTOC39K37RSHGAJTHEWGWFH8F17JN","33","0","BANQUET","6","POTATO","5","0","3910",,,,,"1","2018-09-25 21:51:24","223551"
"A11D6T3OPPZIE1","cs_wg_rev_conf_pilot1","33C7UALJVLZPMDZYDX0WQWFQPI7180","17","0","CRICKET","1","LIQUID","6","0","1746",,,,,"0","2018-09-25 21:51:26","223552"
"A1PF1TUEBW499M","cs_wg_rev_conf_pilot1","3DH6GAKTYYQ1WFBOYC7IH3N4VCMZY0","39","0","TURKEY","8","CHICKEN","15","1","1007",,,,,"0","2018-09-25 21:51:26","223553"
"A11D6T3OPPZIE1","cs_wg_rev_conf_pilot1","33C7UALJVLZPMDZYDX0WQWFQPI7180","18","0","BASKET","15","CRICKET","1","0","825",,,,,"0","2018-09-25 21:51:28","223554"
"A3MVLRCP54PYC8","cs_wg_rev_conf_pilot1","3CTOC39K37RSHGAJTHEWGWFH8F17JN","34","0","SQUARE","7","TURKEY","8","1","3048",,,,,"1","2018-09-25 21:51:29","223555"
"A2Z2OSTA6PD0E","cs_wg_rev_conf_pilot1","3KXIR214I4HVSXUSKYAXE39QF2P24B","35","0","SUNBURN","6","BANANA","7","1","3549",,,,,"1","2018-09-25 21:51:29","223556"
"A1PF1TUEBW499M","cs_wg_rev_conf_pilot1","3DH6GAKTYYQ1WFBOYC7IH3N4VCMZY0","40","0","SPATULA","6","SMOKER","1","0","1206",,,,,"0","2018-09-25 21:51:29","223557"
"A1PF1TUEBW499M","cs_wg_rev_conf_pilot1","3DH6GAKTYYQ1WFBOYC7IH3N4VCMZY0","41","0","CHICKEN","15","ACROBAT","6","0","903",,,,,"0","2018-09-25 21:51:32","223558"
"A2Z2OSTA6PD0E","cs_wg_rev_conf_pilot1","3KXIR214I4HVSXUSKYAXE39QF2P24B","36","0","PELICAN","7","AIRBAG","6","0","2067",,,,,"1","2018-09-25 21:51:33","223559"
"A11D6T3OPPZIE1","cs_wg_rev_conf_pilot1","33C7UALJVLZPMDZYDX0WQWFQPI7180","19","0","LIQUID","6","JACKET","8","1","2921",,,,,"0","2018-09-25 21:51:33","223560"
"A3MVLRCP54PYC8","cs_wg_rev_conf_pilot1","3CTOC39K37RSHGAJTHEWGWFH8F17JN","35","0","POTATO","5","SQUARE","7","1","3409",,,,,"1","2018-09-25 21:51:34","223561"
"A1PF1TUEBW499M","cs_wg_rev_conf_pilot1","3DH6GAKTYYQ1WFBOYC7IH3N4VCMZY0","42","0","SPATULA","6","TURKEY","8","1","2443",,,,,"0","2018-09-25 21:51:36","223562"
"A2Z2OSTA6PD0E","cs_wg_rev_conf_pilot1","3KXIR214I4HVSXUSKYAXE39QF2P24B","37","0","SUNBURN","6","BICYCLE","5","0","2386",,,,,"1","2018-09-25 21:51:37","223563"
"A1PF1TUEBW499M","cs_wg_rev_conf_pilot1","3DH6GAKTYYQ1WFBOYC7IH3N4VCMZY0","43","0","CHICKEN","15","SPATULA","6","0","1146",,,,,"0","2018-09-25 21:51:39","223564"
"A3MVLRCP54PYC8","cs_wg_rev_conf_pilot1","3CTOC39K37RSHGAJTHEWGWFH8F17JN","36","0","BANANA","6","ARCADE","7","1","3750",,,,,"1","2018-09-25 21:51:40","223565"
"A2Z2OSTA6PD0E","cs_wg_rev_conf_pilot1","3KXIR214I4HVSXUSKYAXE39QF2P24B","38","0","PUMPKIN","1","BICYCLE","5","0","1476",,,,,"0","2018-09-25 21:51:41","223566"
"A1PF1TUEBW499M","cs_wg_rev_conf_pilot1","3DH6GAKTYYQ1WFBOYC7IH3N4VCMZY0","44","0","SMOKER","1","TURKEY","8","1","1251",,,,,"0","2018-09-25 21:51:42","223567"
"A3MVLRCP54PYC8","cs_wg_rev_conf_pilot1","3CTOC39K37RSHGAJTHEWGWFH8F17JN","37","0","CRICKET","15","TURKEY","8","0","1604",,,,,"0","2018-09-25 21:51:43","223568"
"A11D6T3OPPZIE1","cs_wg_rev_conf_pilot1","33C7UALJVLZPMDZYDX0WQWFQPI7180","20","0","SQUARE","6","CRICKET","1","0","5012",,,,,"0","2018-09-25 21:51:44","223569"
"A1PF1TUEBW499M","cs_wg_rev_conf_pilot1","3DH6GAKTYYQ1WFBOYC7IH3N4VCMZY0","45","0","ACROBAT","6","TURKEY","8","1","2855",,,,,"0","2018-09-25 21:51:46","223570"
"A2Z2OSTA6PD0E","cs_wg_rev_conf_pilot1","3KXIR214I4HVSXUSKYAXE39QF2P24B","39","0","PUMPKIN","1","PEBBLE","5","1","2152",,,,,"0","2018-09-25 21:51:47","223571"
"A3MVLRCP54PYC8","cs_wg_rev_conf_pilot1","3CTOC39K37RSHGAJTHEWGWFH8F17JN","38","0","TURKEY","8","BASKET","1","0","2243",,,,,"0","2018-09-25 21:51:47","223572"
"A1PF1TUEBW499M","cs_wg_rev_conf_pilot1","3DH6GAKTYYQ1WFBOYC7IH3N4VCMZY0","46","0","TURKEY","8","ACROBAT","6","0","2287",,,,,"0","2018-09-25 21:51:50","223573"
"A11D6T3OPPZIE1","cs_wg_rev_conf_pilot1","33C7UALJVLZPMDZYDX0WQWFQPI7180","21","0","SQUARE","6","JACKET","8","0","3778",,,,,"0","2018-09-25 21:51:51","223574"
"A3MVLRCP54PYC8","cs_wg_rev_conf_pilot1","3CTOC39K37RSHGAJTHEWGWFH8F17JN","39","0","TURKEY","8","POTATO","5","0","2168",,,,,"1","2018-09-25 21:51:51","223575"
"A2Z2OSTA6PD0E","cs_wg_rev_conf_pilot1","3KXIR214I4HVSXUSKYAXE39QF2P24B","40","0","BICYCLE","5","PELICAN","7","1","2939",,,,,"1","2018-09-25 21:51:52","223576"
"A1PF1TUEBW499M","cs_wg_rev_conf_pilot1","3DH6GAKTYYQ1WFBOYC7IH3N4VCMZY0","47","0","CHICKEN","15","TURKEY","8","0","735",,,,,"0","2018-09-25 21:51:52","223577"
"A11D6T3OPPZIE1","cs_wg_rev_conf_pilot1","33C7UALJVLZPMDZYDX0WQWFQPI7180","22","0","BASKET","15","JACKET","8","0","1014",,,,,"0","2018-09-25 21:51:54","223578"
"A3MVLRCP54PYC8","cs_wg_rev_conf_pilot1","3CTOC39K37RSHGAJTHEWGWFH8F17JN","40","0","BASKET","1","VOLCANO","7","1","1747",,,,,"0","2018-09-25 21:51:55","223579"
"A1PF1TUEBW499M","cs_wg_rev_conf_pilot1","3DH6GAKTYYQ1WFBOYC7IH3N4VCMZY0","48","0","ACROBAT","6","TURKEY","8","1","1395",,,,,"0","2018-09-25 21:51:55","223580"
"A2Z2OSTA6PD0E","cs_wg_rev_conf_pilot1","3KXIR214I4HVSXUSKYAXE39QF2P24B","41","0","COWBOY","7","JACKET","8","0","2323",,,,,"0","2018-09-25 21:51:57","223581"
"A11D6T3OPPZIE1","cs_wg_rev_conf_pilot1","33C7UALJVLZPMDZYDX0WQWFQPI7180","23","0","LIQUID","6","BASKET","15","1","1256",,,,,"0","2018-09-25 21:51:57","223582"
"A1PF1TUEBW499M","cs_wg_rev_conf_pilot1","3DH6GAKTYYQ1WFBOYC7IH3N4VCMZY0","49","0","SPATULA","6","SMOKER","1","0","1207",,,,,"0","2018-09-25 21:51:58","223583"
"A3MVLRCP54PYC8","cs_wg_rev_conf_pilot1","3CTOC39K37RSHGAJTHEWGWFH8F17JN","41","0","VOLCANO","7","BANQUET","6","0","3394",,,,,"1","2018-09-25 21:52:00","223584"
"A11D6T3OPPZIE1","cs_wg_rev_conf_pilot1","33C7UALJVLZPMDZYDX0WQWFQPI7180","24","0","BASKET","15","JACKET","8","0","1258",,,,,"0","2018-09-25 21:52:00","223585"
"A2Z2OSTA6PD0E","cs_wg_rev_conf_pilot1","3KXIR214I4HVSXUSKYAXE39QF2P24B","42","0","AIRBAG","6","COWBOY","7","1","1722",,,,,"0","2018-09-25 21:52:00","223586"
"A1PF1TUEBW499M","cs_wg_rev_conf_pilot1","3DH6GAKTYYQ1WFBOYC7IH3N4VCMZY0","50","0","CHICKEN","15","SPATULA","6","0","1246",,,,,"0","2018-09-25 21:52:01","223587"
"A3MVLRCP54PYC8","cs_wg_rev_conf_pilot1","3CTOC39K37RSHGAJTHEWGWFH8F17JN","42","0","ARCADE","7","SQUARE","7","0","1701",,,,,"1","2018-09-25 21:52:04","223588"
"A1PF1TUEBW499M","cs_wg_rev_conf_pilot1","3DH6GAKTYYQ1WFBOYC7IH3N4VCMZY0","51","0","SMOKER","1","ACROBAT","6","1","1252",,,,,"0","2018-09-25 21:52:04","223589"
"A2Z2OSTA6PD0E","cs_wg_rev_conf_pilot1","3KXIR214I4HVSXUSKYAXE39QF2P24B","43","0","TOMATO","6","PUMPKIN","1","0","1691",,,,,"0","2018-09-25 21:52:04","223590"
"A11D6T3OPPZIE1","cs_wg_rev_conf_pilot1","33C7UALJVLZPMDZYDX0WQWFQPI7180","25","0","LIQUID","6","CRICKET","1","0","1547",,,,,"0","2018-09-25 21:52:06","223591"
"A3MVLRCP54PYC8","cs_wg_rev_conf_pilot1","3CTOC39K37RSHGAJTHEWGWFH8F17JN","43","0","CANCER","6","POTATO","5","0","1913",,,,,"1","2018-09-25 21:52:07","223592"
"A2Z2OSTA6PD0E","cs_wg_rev_conf_pilot1","3KXIR214I4HVSXUSKYAXE39QF2P24B","44","0","AIRBAG","6","PEBBLE","5","0","1613",,,,,"0","2018-09-25 21:52:08","223593"
"A1PF1TUEBW499M","cs_wg_rev_conf_pilot1","3DH6GAKTYYQ1WFBOYC7IH3N4VCMZY0","52","0","SPATULA","6","ACROBAT","6","0","4726",,,,,"0","2018-09-25 21:52:10","223594"
"A11D6T3OPPZIE1","cs_wg_rev_conf_pilot1","33C7UALJVLZPMDZYDX0WQWFQPI7180","26","0","SQUARE","6","LIQUID","6","1","4537",,,,,"0","2018-09-25 21:52:12","223595"
"A2Z2OSTA6PD0E","cs_wg_rev_conf_pilot1","3KXIR214I4HVSXUSKYAXE39QF2P24B","45","0","JACKET","8","TOMATO","6","0","2037",,,,,"0","2018-09-25 21:52:12","223596"
"A1PF1TUEBW499M","cs_wg_rev_conf_pilot1","3DH6GAKTYYQ1WFBOYC7IH3N4VCMZY0","53","0","SMOKER","1","ACROBAT","6","1","1775",,,,,"0","2018-09-25 21:52:13","223597"
"A3MVLRCP54PYC8","cs_wg_rev_conf_pilot1","3CTOC39K37RSHGAJTHEWGWFH8F17JN","44","0","TURKEY","8","VOLCANO","7","0","5341",,,,,"0","2018-09-25 21:52:15","223598"
"A2Z2OSTA6PD0E","cs_wg_rev_conf_pilot1","3KXIR214I4HVSXUSKYAXE39QF2P24B","46","0","PELICAN","7","COWBOY","7","1","2030",,,,,"0","2018-09-25 21:52:16","223599"
"A11D6T3OPPZIE1","cs_wg_rev_conf_pilot1","33C7UALJVLZPMDZYDX0WQWFQPI7180","27","0","BASKET","15","CRICKET","1","0","982",,,,,"0","2018-09-25 21:52:16","223600"
"A1PF1TUEBW499M","cs_wg_rev_conf_pilot1","3DH6GAKTYYQ1WFBOYC7IH3N4VCMZY0","54","0","SPATULA","6","ACROBAT","6","1","1643",,,,,"0","2018-09-25 21:52:17","223601"
"A2RQMEPIHW5BOS","cs_wg_rev_conf_pilot1","3PM8NZGV8YH3IIKN6K237W4RO38QXS","0","0","BASKET","8","PEBBLE","6","0","11346",,,,,"1","2018-09-25 21:52:18","223602"
"A1PF1TUEBW499M","cs_wg_rev_conf_pilot1","3DH6GAKTYYQ1WFBOYC7IH3N4VCMZY0","55","0","ACROBAT","6","CHICKEN","15","1","820",,,,,"0","2018-09-25 21:52:19","223603"
"A3MVLRCP54PYC8","cs_wg_rev_conf_pilot1","3CTOC39K37RSHGAJTHEWGWFH8F17JN","45","0","VOLCANO","7","BANANA","6","1","3043",,,,,"0","2018-09-25 21:52:20","223604"
"A2Z2OSTA6PD0E","cs_wg_rev_conf_pilot1","3KXIR214I4HVSXUSKYAXE39QF2P24B","47","0","JACKET","8","CHICKEN","15","1","2375",,,,,"0","2018-09-25 21:52:20","223605"
"A11D6T3OPPZIE1","cs_wg_rev_conf_pilot1","33C7UALJVLZPMDZYDX0WQWFQPI7180","28","0","JACKET","8","LIQUID","6","0","2497",,,,,"0","2018-09-25 21:52:21","223606"
"A1PF1TUEBW499M","cs_wg_rev_conf_pilot1","3DH6GAKTYYQ1WFBOYC7IH3N4VCMZY0","56","0","SMOKER","1","CHICKEN","15","1","783",,,,,"0","2018-09-25 21:52:22","223607"
"A2Z2OSTA6PD0E","cs_wg_rev_conf_pilot1","3KXIR214I4HVSXUSKYAXE39QF2P24B","48","0","CHICKEN","15","PUMPKIN","1","0","1052",,,,,"0","2018-09-25 21:52:23","223608"
"A3MVLRCP54PYC8","cs_wg_rev_conf_pilot1","3CTOC39K37RSHGAJTHEWGWFH8F17JN","46","0","PEBBLE","5","TURKEY","8","1","2587",,,,,"0","2018-09-25 21:52:24","223609"
"A11D6T3OPPZIE1","cs_wg_rev_conf_pilot1","33C7UALJVLZPMDZYDX0WQWFQPI7180","29","0","LIQUID","6","SQUARE","6","1","1450",,,,,"0","2018-09-25 21:52:24","223610"
"A1PF1TUEBW499M","cs_wg_rev_conf_pilot1","3DH6GAKTYYQ1WFBOYC7IH3N4VCMZY0","57","0","ACROBAT","6","SMOKER","1","0","1295",,,,,"0","2018-09-25 21:52:24","223611"
"A2RQMEPIHW5BOS","cs_wg_rev_conf_pilot1","3PM8NZGV8YH3IIKN6K237W4RO38QXS","1","0","SMOKER","15","BASKET","8","1","3571",,,,,"0","2018-09-25 21:52:25","223612"
"A2Z2OSTA6PD0E","cs_wg_rev_conf_pilot1","3KXIR214I4HVSXUSKYAXE39QF2P24B","49","0","JACKET","8","PEBBLE","5","0","1413",,,,,"0","2018-09-25 21:52:26","223613"
"A3MVLRCP54PYC8","cs_wg_rev_conf_pilot1","3CTOC39K37RSHGAJTHEWGWFH8F17JN","47","0","BASKET","1","TURKEY","8","1","1124",,,,,"0","2018-09-25 21:52:27","223614"
"A11D6T3OPPZIE1","cs_wg_rev_conf_pilot1","33C7UALJVLZPMDZYDX0WQWFQPI7180","30","0","JACKET","8","BASKET","15","1","1139",,,,,"0","2018-09-25 21:52:27","223615"
"A1PF1TUEBW499M","cs_wg_rev_conf_pilot1","3DH6GAKTYYQ1WFBOYC7IH3N4VCMZY0","58","0","TURKEY","8","SMOKER","1","0","1026",,,,,"0","2018-09-25 21:52:27","223616"
"A2RQMEPIHW5BOS","cs_wg_rev_conf_pilot1","3PM8NZGV8YH3IIKN6K237W4RO38QXS","2","0","LIQUID","6","BASKET","8","0","1825",,,,,"0","2018-09-25 21:52:30","223617"
"A2Z2OSTA6PD0E","cs_wg_rev_conf_pilot1","3KXIR214I4HVSXUSKYAXE39QF2P24B","50","0","ACROBAT","5","CHICKEN","15","1","1901",,,,,"0","2018-09-25 21:52:30","223618"
"A3MVLRCP54PYC8","cs_wg_rev_conf_pilot1","3CTOC39K37RSHGAJTHEWGWFH8F17JN","48","0","ISLAND","5","CANCER","6","0","1959",,,,,"0","2018-09-25 21:52:31","223619"
"A1PF1TUEBW499M","cs_wg_rev_conf_pilot1","3DH6GAKTYYQ1WFBOYC7IH3N4VCMZY0","59","0","ACROBAT","6","SMOKER","1","0","3247",,,,,"0","2018-09-25 21:52:33","223620"
"A11D6T3OPPZIE1","cs_wg_rev_conf_pilot1","33C7UALJVLZPMDZYDX0WQWFQPI7180","31","0","BASKET","15","SQUARE","6","0","2261",,,,,"0","2018-09-25 21:52:33","223621"
"A3MVLRCP54PYC8","cs_wg_rev_conf_pilot1","3CTOC39K37RSHGAJTHEWGWFH8F17JN","49","0","TURKEY","8","ARCADE","7","0","1052",,,,,"0","2018-09-25 21:52:34","223622"
"A2Z2OSTA6PD0E","cs_wg_rev_conf_pilot1","3KXIR214I4HVSXUSKYAXE39QF2P24B","51","0","TOMATO","6","ACROBAT","5","1","3223",,,,,"0","2018-09-25 21:52:36","223623"
"A11D6T3OPPZIE1","cs_wg_rev_conf_pilot1","33C7UALJVLZPMDZYDX0WQWFQPI7180","32","0","JACKET","8","CRICKET","1","0","2169",,,,,"0","2018-09-25 21:52:37","223624"
"A3MVLRCP54PYC8","cs_wg_rev_conf_pilot1","3CTOC39K37RSHGAJTHEWGWFH8F17JN","50","0","PEBBLE","5","VOLCANO","7","1","1650",,,,,"0","2018-09-25 21:52:37","223625"
"A2Z2OSTA6PD0E","cs_wg_rev_conf_pilot1","3KXIR214I4HVSXUSKYAXE39QF2P24B","52","0","PEBBLE","5","CHICKEN","15","1","1671",,,,,"0","2018-09-25 21:52:39","223626"
"A2RQMEPIHW5BOS","cs_wg_rev_conf_pilot1","3PM8NZGV8YH3IIKN6K237W4RO38QXS","3","0","MONKEY","1","LIQUID","6","1","7128",,,,,"1","2018-09-25 21:52:39","223627"
"A11D6T3OPPZIE1","cs_wg_rev_conf_pilot1","33C7UALJVLZPMDZYDX0WQWFQPI7180","33","0","JACKET","8","LIQUID","6","0","1521",,,,,"0","2018-09-25 21:52:41","223628"
"A3MVLRCP54PYC8","cs_wg_rev_conf_pilot1","3CTOC39K37RSHGAJTHEWGWFH8F17JN","51","0","ARCADE","7","PEBBLE","5","0","3960",,,,,"0","2018-09-25 21:52:43","223629"
"A2Z2OSTA6PD0E","cs_wg_rev_conf_pilot1","3KXIR214I4HVSXUSKYAXE39QF2P24B","53","0","ACROBAT","5","SUNBURN","6","1","3041",,,,,"0","2018-09-25 21:52:44","223630"
"A11D6T3OPPZIE1","cs_wg_rev_conf_pilot1","33C7UALJVLZPMDZYDX0WQWFQPI7180","34","0","LIQUID","6","JACKET","8","1","1678",,,,,"0","2018-09-25 21:52:46","223631"
"A3MVLRCP54PYC8","cs_wg_rev_conf_pilot1","3CTOC39K37RSHGAJTHEWGWFH8F17JN","52","0","VOLCANO","7","POTATO","5","0","1814",,,,,"0","2018-09-25 21:52:46","223632"
"A2Z2OSTA6PD0E","cs_wg_rev_conf_pilot1","3KXIR214I4HVSXUSKYAXE39QF2P24B","54","0","SUNBURN","6","PEBBLE","5","0","2306",,,,,"0","2018-09-25 21:52:48","223633"
"A3MVLRCP54PYC8","cs_wg_rev_conf_pilot1","3CTOC39K37RSHGAJTHEWGWFH8F17JN","53","0","PEBBLE","5","BASKET","1","0","1997",,,,,"0","2018-09-25 21:52:50","223634"
"A11D6T3OPPZIE1","cs_wg_rev_conf_pilot1","33C7UALJVLZPMDZYDX0WQWFQPI7180","35","0","SQUARE","6","CRICKET","1","0","4031",,,,,"0","2018-09-25 21:52:52","223635"
"A2RQMEPIHW5BOS","cs_wg_rev_conf_pilot1","3PM8NZGV8YH3IIKN6K237W4RO38QXS","4","0","MONKEY","1","SMOKER","15","1","9072",,,,,"0","2018-09-25 21:52:53","223636"
"A2Z2OSTA6PD0E","cs_wg_rev_conf_pilot1","3KXIR214I4HVSXUSKYAXE39QF2P24B","55","0","BANANA","7","BICYCLE","5","0","2924",,,,,"0","2018-09-25 21:52:53","223637"
"A3MVLRCP54PYC8","cs_wg_rev_conf_pilot1","3CTOC39K37RSHGAJTHEWGWFH8F17JN","54","0","SQUARE","7","ISLAND","5","1","2492",,,,,"0","2018-09-25 21:52:55","223638"
"A11D6T3OPPZIE1","cs_wg_rev_conf_pilot1","33C7UALJVLZPMDZYDX0WQWFQPI7180","36","0","SQUARE","6","BASKET","15","1","1410",,,,,"0","2018-09-25 21:52:56","223639"
"A1KY4GGUD89W8Z","cs_wg_rev_conf_pilot1","3J4Q2Z4UTY4OTIFXWF6H5DQKF12WQ5","0","0","CHICKEN","8","PICTURE","6","0","8810",,,,,"1","2018-09-25 21:52:57","223640"
"A2Z2OSTA6PD0E","cs_wg_rev_conf_pilot1","3KXIR214I4HVSXUSKYAXE39QF2P24B","56","0","BANANA","7","SUNBURN","6","0","2538",,,,,"0","2018-09-25 21:52:57","223641"
"A3MVLRCP54PYC8","cs_wg_rev_conf_pilot1","3CTOC39K37RSHGAJTHEWGWFH8F17JN","55","0","SQUARE","7","CRICKET","15","1","1474",,,,,"0","2018-09-25 21:52:58","223642"
"A2RQMEPIHW5BOS","cs_wg_rev_conf_pilot1","3PM8NZGV8YH3IIKN6K237W4RO38QXS","5","0","BASKET","8","LIQUID","6","0","4000",,,,,"1","2018-09-25 21:53:00","223643"
"A11D6T3OPPZIE1","cs_wg_rev_conf_pilot1","33C7UALJVLZPMDZYDX0WQWFQPI7180","37","0","SQUARE","6","BASKET","15","1","2268",,,,,"0","2018-09-25 21:53:00","223644"
"A3MVLRCP54PYC8","cs_wg_rev_conf_pilot1","3CTOC39K37RSHGAJTHEWGWFH8F17JN","56","0","CRICKET","15","PEBBLE","5","0","1319",,,,,"0","2018-09-25 21:53:01","223645"
"A2Z2OSTA6PD0E","cs_wg_rev_conf_pilot1","3KXIR214I4HVSXUSKYAXE39QF2P24B","57","0","SUNBURN","6","PELICAN","7","1","2897",,,,,"0","2018-09-25 21:53:03","223646"
"A3MVLRCP54PYC8","cs_wg_rev_conf_pilot1","3CTOC39K37RSHGAJTHEWGWFH8F17JN","57","0","CRICKET","15","BASKET","1","0","1136",,,,,"0","2018-09-25 21:53:03","223647"
"A2RQMEPIHW5BOS","cs_wg_rev_conf_pilot1","3PM8NZGV8YH3IIKN6K237W4RO38QXS","6","0","SMOKER","15","MONKEY","1","1","1866",,,,,"0","2018-09-25 21:53:05","223648"
"A1KY4GGUD89W8Z","cs_wg_rev_conf_pilot1","3J4Q2Z4UTY4OTIFXWF6H5DQKF12WQ5","1","0","PICKLE","1","CHICKEN","8","1","4857",,,,,"0","2018-09-25 21:53:05","223649"
"A11D6T3OPPZIE1","cs_wg_rev_conf_pilot1","33C7UALJVLZPMDZYDX0WQWFQPI7180","38","0","SQUARE","6","CRICKET","1","0","1182",,,,,"0","2018-09-25 21:53:06","223650"
"A3MVLRCP54PYC8","cs_wg_rev_conf_pilot1","3CTOC39K37RSHGAJTHEWGWFH8F17JN","58","0","CRICKET","15","BANQUET","6","0","1641",,,,,"0","2018-09-25 21:53:07","223651"
"A2Z2OSTA6PD0E","cs_wg_rev_conf_pilot1","3KXIR214I4HVSXUSKYAXE39QF2P24B","58","0","PEBBLE","5","ACROBAT","5","1","2179",,,,,"0","2018-09-25 21:53:07","223652"
"A11D6T3OPPZIE1","cs_wg_rev_conf_pilot1","33C7UALJVLZPMDZYDX0WQWFQPI7180","39","0","JACKET","8","SQUARE","6","0","2068",,,,,"0","2018-09-25 21:53:08","223653"
"A3MVLRCP54PYC8","cs_wg_rev_conf_pilot1","3CTOC39K37RSHGAJTHEWGWFH8F17JN","59","0","ISLAND","5","POTATO","5","0","1964",,,,,"0","2018-09-25 21:53:10","223654"
"A2Z2OSTA6PD0E","cs_wg_rev_conf_pilot1","3KXIR214I4HVSXUSKYAXE39QF2P24B","59","0","ACROBAT","5","COWBOY","7","1","1753",,,,,"0","2018-09-25 21:53:10","223655"
"A2RQMEPIHW5BOS","cs_wg_rev_conf_pilot1","3PM8NZGV8YH3IIKN6K237W4RO38QXS","7","0","PEBBLE","6","BASKET","8","1","4902",,,,,"1","2018-09-25 21:53:12","223656"
"A1KY4GGUD89W8Z","cs_wg_rev_conf_pilot1","3J4Q2Z4UTY4OTIFXWF6H5DQKF12WQ5","2","0","CHICKEN","8","PICKLE","1","0","4342",,,,,"0","2018-09-25 21:53:12","223657"
"A3MVLRCP54PYC8","cs_wg_rev_conf_pilot1","3CTOC39K37RSHGAJTHEWGWFH8F17JN","60","0","BANANA","6","POTATO","5","0","1440",,,,,"0","2018-09-25 21:53:14","223658"
"A11D6T3OPPZIE1","cs_wg_rev_conf_pilot1","33C7UALJVLZPMDZYDX0WQWFQPI7180","40","0","CRICKET","1","LIQUID","6","1","1990",,,,,"0","2018-09-25 21:53:15","223659"
"A11D6T3OPPZIE1","cs_wg_rev_conf_pilot1","33C7UALJVLZPMDZYDX0WQWFQPI7180","41","0","JACKET","8","BASKET","15","1","2277",,,,,"0","2018-09-25 21:53:17","223660"
"A2Z2OSTA6PD0E","cs_wg_rev_conf_pilot1","3KXIR214I4HVSXUSKYAXE39QF2P24B","60","0","BICYCLE","5","AIRBAG","6","0","4339",,,,,"0","2018-09-25 21:53:17","223661"
"A2RQMEPIHW5BOS","cs_wg_rev_conf_pilot1","3PM8NZGV8YH3IIKN6K237W4RO38QXS","8","0","BASKET","8","SMOKER","15","1","2604",,,,,"0","2018-09-25 21:53:17","223662"
"A3MVLRCP54PYC8","cs_wg_rev_conf_pilot1","3CTOC39K37RSHGAJTHEWGWFH8F17JN","61","0","BANQUET","6","TURKEY","8","1","1880",,,,,"0","2018-09-25 21:53:17","223663"
"A3MVLRCP54PYC8","cs_wg_rev_conf_pilot1","3CTOC39K37RSHGAJTHEWGWFH8F17JN","62","0","CRICKET","15","CANCER","6","0","1079",,,,,"0","2018-09-25 21:53:20","223664"
"A11D6T3OPPZIE1","cs_wg_rev_conf_pilot1","33C7UALJVLZPMDZYDX0WQWFQPI7180","42","0","LIQUID","6","JACKET","8","1","1445",,,,,"0","2018-09-25 21:53:21","223665"
"A2Z2OSTA6PD0E","cs_wg_rev_conf_pilot1","3KXIR214I4HVSXUSKYAXE39QF2P24B","61","0","COWBOY","7","TOMATO","6","0","1986",,,,,"0","2018-09-25 21:53:21","223666"
"A2RQMEPIHW5BOS","cs_wg_rev_conf_pilot1","3PM8NZGV8YH3IIKN6K237W4RO38QXS","9","0","SMOKER","15","BASKET","8","0","1716",,,,,"0","2018-09-25 21:53:21","223667"
"A1KY4GGUD89W8Z","cs_wg_rev_conf_pilot1","3J4Q2Z4UTY4OTIFXWF6H5DQKF12WQ5","3","0","PICTURE","6","PICKLE","1","0","7190",,,,,"1","2018-09-25 21:53:22","223668"
"A3MVLRCP54PYC8","cs_wg_rev_conf_pilot1","3CTOC39K37RSHGAJTHEWGWFH8F17JN","63","0","VOLCANO","7","CRICKET","15","1","1273",,,,,"0","2018-09-25 21:53:23","223669"
"A2RQMEPIHW5BOS","cs_wg_rev_conf_pilot1","3PM8NZGV8YH3IIKN6K237W4RO38QXS","10","0","SMOKER","15","BASKET","8","0","731",,,,,"0","2018-09-25 21:53:24","223670"
"A2Z2OSTA6PD0E","cs_wg_rev_conf_pilot1","3KXIR214I4HVSXUSKYAXE39QF2P24B","62","0","PUMPKIN","1","TOMATO","6","1","1752",,,,,"0","2018-09-25 21:53:25","223671"
"A11D6T3OPPZIE1","cs_wg_rev_conf_pilot1","33C7UALJVLZPMDZYDX0WQWFQPI7180","43","0","LIQUID","6","CRICKET","1","0","1920",,,,,"0","2018-09-25 21:53:25","223672"
"A2RQMEPIHW5BOS","cs_wg_rev_conf_pilot1","3PM8NZGV8YH3IIKN6K237W4RO38QXS","11","0","SMOKER","15","MONKEY","1","0","869",,,,,"0","2018-09-25 21:53:26","223673"
"A3MVLRCP54PYC8","cs_wg_rev_conf_pilot1","3CTOC39K37RSHGAJTHEWGWFH8F17JN","64","0","ARCADE","7","CANCER","6","0","3217",,,,,"0","2018-09-25 21:53:28","223674"
"A2Z2OSTA6PD0E","cs_wg_rev_conf_pilot1","3KXIR214I4HVSXUSKYAXE39QF2P24B","63","0","CHICKEN","15","JACKET","8","0","1593",,,,,"0","2018-09-25 21:53:28","223675"
"A1KY4GGUD89W8Z","cs_wg_rev_conf_pilot1","3J4Q2Z4UTY4OTIFXWF6H5DQKF12WQ5","4","0","TOMATO","6","PICTURE","6","0","4119",,,,,"1","2018-09-25 21:53:28","223676"
"A11D6T3OPPZIE1","cs_wg_rev_conf_pilot1","33C7UALJVLZPMDZYDX0WQWFQPI7180","44","0","CRICKET","1","JACKET","8","1","1047",,,,,"0","2018-09-25 21:53:29","223677"
"A2Z2OSTA6PD0E","cs_wg_rev_conf_pilot1","3KXIR214I4HVSXUSKYAXE39QF2P24B","64","0","COWBOY","7","PEBBLE","5","0","1505",,,,,"0","2018-09-25 21:53:31","223678"
"A3MVLRCP54PYC8","cs_wg_rev_conf_pilot1","3CTOC39K37RSHGAJTHEWGWFH8F17JN","65","0","VOLCANO","7","ARCADE","7","0","2895",,,,,"0","2018-09-25 21:53:32","223679"
"A1KY4GGUD89W8Z","cs_wg_rev_conf_pilot1","3J4Q2Z4UTY4OTIFXWF6H5DQKF12WQ5","5","0","CHICKEN","8","PICKLE","1","0","2577",,,,,"0","2018-09-25 21:53:33","223680"
"A2RQMEPIHW5BOS","cs_wg_rev_conf_pilot1","3PM8NZGV8YH3IIKN6K237W4RO38QXS","12","0","LIQUID","6","MONKEY","1","0","3359",,,,,"1","2018-09-25 21:53:33","223681"
"A2Z2OSTA6PD0E","cs_wg_rev_conf_pilot1","3KXIR214I4HVSXUSKYAXE39QF2P24B","65","0","TOMATO","6","PEBBLE","5","0","2164",,,,,"0","2018-09-25 21:53:35","223682"
"A11D6T3OPPZIE1","cs_wg_rev_conf_pilot1","33C7UALJVLZPMDZYDX0WQWFQPI7180","45","0","LIQUID","6","SQUARE","6","1","3825",,,,,"0","2018-09-25 21:53:35","223683"
"A3MVLRCP54PYC8","cs_wg_rev_conf_pilot1","3CTOC39K37RSHGAJTHEWGWFH8F17JN","66","0","VOLCANO","7","ISLAND","5","0","1408",,,,,"0","2018-09-25 21:53:36","223684"
"A11D6T3OPPZIE1","cs_wg_rev_conf_pilot1","33C7UALJVLZPMDZYDX0WQWFQPI7180","46","0","BASKET","15","LIQUID","6","0","767",,,,,"0","2018-09-25 21:53:38","223685"
"A2Z2OSTA6PD0E","cs_wg_rev_conf_pilot1","3KXIR214I4HVSXUSKYAXE39QF2P24B","66","0","TOMATO","6","JACKET","8","1","1794",,,,,"0","2018-09-25 21:53:39","223686"
"A3MVLRCP54PYC8","cs_wg_rev_conf_pilot1","3CTOC39K37RSHGAJTHEWGWFH8F17JN","67","0","BANANA","6","TURKEY","8","1","1533",,,,,"0","2018-09-25 21:53:39","223687"
"A1KY4GGUD89W8Z","cs_wg_rev_conf_pilot1","3J4Q2Z4UTY4OTIFXWF6H5DQKF12WQ5","6","0","SMOKER","15","TOMATO","6","0","3384",,,,,"1","2018-09-25 21:53:39","223688"
"A2RQMEPIHW5BOS","cs_wg_rev_conf_pilot1","3PM8NZGV8YH3IIKN6K237W4RO38QXS","13","0","SMOKER","15","PEBBLE","6","0","1009",,,,,"0","2018-09-25 21:53:41","223689"
"A11D6T3OPPZIE1","cs_wg_rev_conf_pilot1","33C7UALJVLZPMDZYDX0WQWFQPI7180","47","0","LIQUID","6","BASKET","15","1","1202",,,,,"0","2018-09-25 21:53:42","223690"
"A2Z2OSTA6PD0E","cs_wg_rev_conf_pilot1","3KXIR214I4HVSXUSKYAXE39QF2P24B","67","0","BANANA","7","PEBBLE","5","0","1634",,,,,"0","2018-09-25 21:53:42","223691"
"A11D6T3OPPZIE1","cs_wg_rev_conf_pilot1","33C7UALJVLZPMDZYDX0WQWFQPI7180","48","0","CRICKET","1","SQUARE","6","1","1690",,,,,"0","2018-09-25 21:53:46","223692"
"A2Z2OSTA6PD0E","cs_wg_rev_conf_pilot1","3KXIR214I4HVSXUSKYAXE39QF2P24B","68","0","AIRBAG","6","TOMATO","6","1","2242",,,,,"0","2018-09-25 21:53:46","223693"
"A3MVLRCP54PYC8","cs_wg_rev_conf_pilot1","3CTOC39K37RSHGAJTHEWGWFH8F17JN","68","0","BASKET","1","BANANA","6","1","7953",,,,,"0","2018-09-25 21:53:48","223694"
"A11D6T3OPPZIE1","cs_wg_rev_conf_pilot1","33C7UALJVLZPMDZYDX0WQWFQPI7180","49","0","CRICKET","1","BASKET","15","1","927",,,,,"0","2018-09-25 21:53:49","223695"
"A2Z2OSTA6PD0E","cs_wg_rev_conf_pilot1","3KXIR214I4HVSXUSKYAXE39QF2P24B","69","0","PUMPKIN","1","BANANA","7","1","1606",,,,,"0","2018-09-25 21:53:50","223696"
"A3MVLRCP54PYC8","cs_wg_rev_conf_pilot1","3CTOC39K37RSHGAJTHEWGWFH8F17JN","69","0","ARCADE","7","VOLCANO","7","1","1413",,,,,"0","2018-09-25 21:53:52","223697"
"A2Z2OSTA6PD0E","cs_wg_rev_conf_pilot1","3KXIR214I4HVSXUSKYAXE39QF2P24B","70","0","PEBBLE","5","PUMPKIN","1","0","1592",,,,,"0","2018-09-25 21:53:54","223698"
"A11D6T3OPPZIE1","cs_wg_rev_conf_pilot1","33C7UALJVLZPMDZYDX0WQWFQPI7180","50","0","CRICKET","1","SQUARE","6","1","2823",,,,,"0","2018-09-25 21:53:54","223699"
"A3MVLRCP54PYC8","cs_wg_rev_conf_pilot1","3CTOC39K37RSHGAJTHEWGWFH8F17JN","70","0","BANANA","6","CANCER","6","0","1593",,,,,"0","2018-09-25 21:53:55","223700"
"A2RQMEPIHW5BOS","cs_wg_rev_conf_pilot1","3PM8NZGV8YH3IIKN6K237W4RO38QXS","14","0","BASKET","8","MONKEY","1","0","10383",,,,,"1","2018-09-25 21:53:56","223701"
"A2Z2OSTA6PD0E","cs_wg_rev_conf_pilot1","3KXIR214I4HVSXUSKYAXE39QF2P24B","71","0","COWBOY","7","PELICAN","7","0","1431",,,,,"0","2018-09-25 21:53:57","223702"
"A11D6T3OPPZIE1","cs_wg_rev_conf_pilot1","33C7UALJVLZPMDZYDX0WQWFQPI7180","51","0","JACKET","8","SQUARE","6","0","1000",,,,,"0","2018-09-25 21:53:57","223703"
"A3MVLRCP54PYC8","cs_wg_rev_conf_pilot1","3CTOC39K37RSHGAJTHEWGWFH8F17JN","71","0","ISLAND","5","ARCADE","7","0","1509",,,,,"0","2018-09-25 21:53:58","223704"
"A2RQMEPIHW5BOS","cs_wg_rev_conf_pilot1","3PM8NZGV8YH3IIKN6K237W4RO38QXS","15","0","PEBBLE","6","SMOKER","15","1","1613",,,,,"0","2018-09-25 21:53:59","223705"
"A2Z2OSTA6PD0E","cs_wg_rev_conf_pilot1","3KXIR214I4HVSXUSKYAXE39QF2P24B","72","0","JACKET","8","SUNBURN","6","0","1326",,,,,"0","2018-09-25 21:54:00","223706"
"A3MVLRCP54PYC8","cs_wg_rev_conf_pilot1","3CTOC39K37RSHGAJTHEWGWFH8F17JN","72","0","ISLAND","5","TURKEY","8","1","1083",,,,,"0","2018-09-25 21:54:01","223707"
"A11D6T3OPPZIE1","cs_wg_rev_conf_pilot1","33C7UALJVLZPMDZYDX0WQWFQPI7180","52","0","CRICKET","1","JACKET","8","1","1560",,,,,"0","2018-09-25 21:54:01","223708"
"A1KY4GGUD89W8Z","cs_wg_rev_conf_pilot1","3J4Q2Z4UTY4OTIFXWF6H5DQKF12WQ5","7","0","CHICKEN","8","SMOKER","15","1","19106",,,,,"1","2018-09-25 21:54:01","223709"
"A2RQMEPIHW5BOS","cs_wg_rev_conf_pilot1","3PM8NZGV8YH3IIKN6K237W4RO38QXS","16","0","SMOKER","15","PEBBLE","6","0","957",,,,,"0","2018-09-25 21:54:02","223710"
"A2Z2OSTA6PD0E","cs_wg_rev_conf_pilot1","3KXIR214I4HVSXUSKYAXE39QF2P24B","73","0","CHICKEN","15","COWBOY","7","0","2283",,,,,"0","2018-09-25 21:54:04","223711"
"A11D6T3OPPZIE1","cs_wg_rev_conf_pilot1","33C7UALJVLZPMDZYDX0WQWFQPI7180","53","0","JACKET","8","LIQUID","6","0","1654",,,,,"0","2018-09-25 21:54:05","223712"
"A2RQMEPIHW5BOS","cs_wg_rev_conf_pilot1","3PM8NZGV8YH3IIKN6K237W4RO38QXS","17","0","BASKET","8","LIQUID","6","0","3982",,,,,"1","2018-09-25 21:54:08","223713"
"A3MVLRCP54PYC8","cs_wg_rev_conf_pilot1","3CTOC39K37RSHGAJTHEWGWFH8F17JN","73","0","ARCADE","7","POTATO","5","1","5170",,,,,"0","2018-09-25 21:54:08","223714"
"A2Z2OSTA6PD0E","cs_wg_rev_conf_pilot1","3KXIR214I4HVSXUSKYAXE39QF2P24B","74","0","BANANA","7","PUMPKIN","1","0","2208",,,,,"0","2018-09-25 21:54:09","223715"
"A11D6T3OPPZIE1","cs_wg_rev_conf_pilot1","33C7UALJVLZPMDZYDX0WQWFQPI7180","54","0","SQUARE","6","JACKET","8","1","1787",,,,,"0","2018-09-25 21:54:09","223716"
"A1KY4GGUD89W8Z","cs_wg_rev_conf_pilot1","3J4Q2Z4UTY4OTIFXWF6H5DQKF12WQ5","8","0","CHICKEN","8","TOMATO","6","0","6446",,,,,"1","2018-09-25 21:54:10","223717"
"A3MVLRCP54PYC8","cs_wg_rev_conf_pilot1","3CTOC39K37RSHGAJTHEWGWFH8F17JN","74","0","BANANA","6","ISLAND","5","1","1650",,,,,"0","2018-09-25 21:54:11","223718"
"A2RQMEPIHW5BOS","cs_wg_rev_conf_pilot1","3PM8NZGV8YH3IIKN6K237W4RO38QXS","18","0","MONKEY","1","SMOKER","15","1","1513",,,,,"0","2018-09-25 21:54:11","223719"
"A2Z2OSTA6PD0E","cs_wg_rev_conf_pilot1","3KXIR214I4HVSXUSKYAXE39QF2P24B","75","0","JACKET","8","BICYCLE","5","0","1588",,,,,"0","2018-09-25 21:54:12","223720"
"A11D6T3OPPZIE1","cs_wg_rev_conf_pilot1","33C7UALJVLZPMDZYDX0WQWFQPI7180","55","0","CRICKET","1","SQUARE","6","1","1554",,,,,"0","2018-09-25 21:54:14","223721"
"A3MVLRCP54PYC8","cs_wg_rev_conf_pilot1","3CTOC39K37RSHGAJTHEWGWFH8F17JN","75","0","CANCER","6","BANANA","6","1","2611",,,,,"0","2018-09-25 21:54:16","223722"
"A1KY4GGUD89W8Z","cs_wg_rev_conf_pilot1","3J4Q2Z4UTY4OTIFXWF6H5DQKF12WQ5","9","0","CHICKEN","8","TOMATO","6","0","4294",,,,,"0","2018-09-25 21:54:16","223723"
"A11D6T3OPPZIE1","cs_wg_rev_conf_pilot1","33C7UALJVLZPMDZYDX0WQWFQPI7180","56","0","CRICKET","1","LIQUID","6","1","1344",,,,,"0","2018-09-25 21:54:17","223724"
"A2RQMEPIHW5BOS","cs_wg_rev_conf_pilot1","3PM8NZGV8YH3IIKN6K237W4RO38QXS","19","0","PEBBLE","6","LIQUID","6","0","4273",,,,,"1","2018-09-25 21:54:17","223725"
"A2Z2OSTA6PD0E","cs_wg_rev_conf_pilot1","3KXIR214I4HVSXUSKYAXE39QF2P24B","76","0","TOMATO","6","COWBOY","7","1","2748",,,,,"0","2018-09-25 21:54:18","223726"
"A3MVLRCP54PYC8","cs_wg_rev_conf_pilot1","3CTOC39K37RSHGAJTHEWGWFH8F17JN","76","0","CANCER","6","ISLAND","5","0","2329",,,,,"0","2018-09-25 21:54:19","223727"
"A11D6T3OPPZIE1","cs_wg_rev_conf_pilot1","33C7UALJVLZPMDZYDX0WQWFQPI7180","57","0","BASKET","15","SQUARE","6","0","910",,,,,"0","2018-09-25 21:54:20","223728"
"A2Z2OSTA6PD0E","cs_wg_rev_conf_pilot1","3KXIR214I4HVSXUSKYAXE39QF2P24B","77","0","COWBOY","7","AIRBAG","6","0","1357",,,,,"0","2018-09-25 21:54:21","223729"
"A3MVLRCP54PYC8","cs_wg_rev_conf_pilot1","3CTOC39K37RSHGAJTHEWGWFH8F17JN","77","0","PEBBLE","5","ARCADE","7","1","1609",,,,,"0","2018-09-25 21:54:23","223730"
"A1KY4GGUD89W8Z","cs_wg_rev_conf_pilot1","3J4Q2Z4UTY4OTIFXWF6H5DQKF12WQ5","10","0","PICTURE","6","CHICKEN","8","1","4235",,,,,"1","2018-09-25 21:54:24","223731"
"A11D6T3OPPZIE1","cs_wg_rev_conf_pilot1","33C7UALJVLZPMDZYDX0WQWFQPI7180","58","0","JACKET","8","BASKET","15","0","1090",,,,,"0","2018-09-25 21:54:24","223732"
"A2Z2OSTA6PD0E","cs_wg_rev_conf_pilot1","3KXIR214I4HVSXUSKYAXE39QF2P24B","78","0","COWBOY","7","CHICKEN","15","1","1655",,,,,"0","2018-09-25 21:54:24","223733"
"A2RQMEPIHW5BOS","cs_wg_rev_conf_pilot1","3PM8NZGV8YH3IIKN6K237W4RO38QXS","20","0","LIQUID","6","BASKET","8","0","4863",,,,,"0","2018-09-25 21:54:25","223734"
"A3MVLRCP54PYC8","cs_wg_rev_conf_pilot1","3CTOC39K37RSHGAJTHEWGWFH8F17JN","78","0","ISLAND","5","BASKET","1","0","1521",,,,,"0","2018-09-25 21:54:26","223735"
"A2Z2OSTA6PD0E","cs_wg_rev_conf_pilot1","3KXIR214I4HVSXUSKYAXE39QF2P24B","79","0","COWBOY","7","SUNBURN","6","0","1303",,,,,"0","2018-09-25 21:54:27","223736"
"A2RQMEPIHW5BOS","cs_wg_rev_conf_pilot1","3PM8NZGV8YH3IIKN6K237W4RO38QXS","21","0","PEBBLE","6","MONKEY","1","0","1395",,,,,"0","2018-09-25 21:54:28","223737"
"A11D6T3OPPZIE1","cs_wg_rev_conf_pilot1","33C7UALJVLZPMDZYDX0WQWFQPI7180","59","0","JACKET","8","CRICKET","1","0","2136",,,,,"0","2018-09-25 21:54:28","223738"
"A3MVLRCP54PYC8","cs_wg_rev_conf_pilot1","3CTOC39K37RSHGAJTHEWGWFH8F17JN","79","0","ISLAND","5","BANANA","6","0","1817",,,,,"0","2018-09-25 21:54:30","223739"
"A2Z2OSTA6PD0E","cs_wg_rev_conf_pilot1","3KXIR214I4HVSXUSKYAXE39QF2P24B","80","0","SUNBURN","6","CHICKEN","15","1","1616",,,,,"0","2018-09-25 21:54:31","223740"
"A1KY4GGUD89W8Z","cs_wg_rev_conf_pilot1","3J4Q2Z4UTY4OTIFXWF6H5DQKF12WQ5","11","0","TOMATO","6","SMOKER","15","1","5263",,,,,"0","2018-09-25 21:54:32","223741"
"A2RQMEPIHW5BOS","cs_wg_rev_conf_pilot1","3PM8NZGV8YH3IIKN6K237W4RO38QXS","22","0","MONKEY","1","PEBBLE","6","0","1284",,,,,"0","2018-09-25 21:54:32","223742"
"A3MVLRCP54PYC8","cs_wg_rev_conf_pilot1","3CTOC39K37RSHGAJTHEWGWFH8F17JN","80","0","POTATO","5","ISLAND","5","0","1693",,,,,"0","2018-09-25 21:54:33","223743"
"A2Z2OSTA6PD0E","cs_wg_rev_conf_pilot1","3KXIR214I4HVSXUSKYAXE39QF2P24B","81","0","PUMPKIN","1","SUNBURN","6","1","2008",,,,,"0","2018-09-25 21:54:35","223744"
"A2RQMEPIHW5BOS","cs_wg_rev_conf_pilot1","3PM8NZGV8YH3IIKN6K237W4RO38QXS","23","0","SMOKER","15","MONKEY","1","0","1383",,,,,"0","2018-09-25 21:54:35","223745"
"A3MVLRCP54PYC8","cs_wg_rev_conf_pilot1","3CTOC39K37RSHGAJTHEWGWFH8F17JN","81","0","BANANA","6","VOLCANO","7","1","2449",,,,,"0","2018-09-25 21:54:37","223746"
"A1KY4GGUD89W8Z","cs_wg_rev_conf_pilot1","3J4Q2Z4UTY4OTIFXWF6H5DQKF12WQ5","12","0","SMOKER","15","TOMATO","6","0","4157",,,,,"0","2018-09-25 21:54:38","223747"
"A2Z2OSTA6PD0E","cs_wg_rev_conf_pilot1","3KXIR214I4HVSXUSKYAXE39QF2P24B","82","0","BICYCLE","5","BANANA","7","0","1991",,,,,"0","2018-09-25 21:54:38","223748"
"A2RQMEPIHW5BOS","cs_wg_rev_conf_pilot1","3PM8NZGV8YH3IIKN6K237W4RO38QXS","24","0","LIQUID","6","SMOKER","15","1","2338",,,,,"0","2018-09-25 21:54:40","223749"
"A3MVLRCP54PYC8","cs_wg_rev_conf_pilot1","3CTOC39K37RSHGAJTHEWGWFH8F17JN","82","0","ISLAND","5","SQUARE","7","1","2863",,,,,"0","2018-09-25 21:54:42","223750"
"A2Z2OSTA6PD0E","cs_wg_rev_conf_pilot1","3KXIR214I4HVSXUSKYAXE39QF2P24B","83","0","SUNBURN","6","COWBOY","7","1","1950",,,,,"0","2018-09-25 21:54:42","223751"
"A1KY4GGUD89W8Z","cs_wg_rev_conf_pilot1","3J4Q2Z4UTY4OTIFXWF6H5DQKF12WQ5","13","0","PICKLE","1","SMOKER","15","1","3935",,,,,"1","2018-09-25 21:54:44","223752"
"A3MVLRCP54PYC8","cs_wg_rev_conf_pilot1","3CTOC39K37RSHGAJTHEWGWFH8F17JN","83","0","SQUARE","7","CANCER","6","0","1183",,,,,"0","2018-09-25 21:54:44","223753"
"A2Z2OSTA6PD0E","cs_wg_rev_conf_pilot1","3KXIR214I4HVSXUSKYAXE39QF2P24B","84","0","CHICKEN","15","TOMATO","6","0","1625",,,,,"0","2018-09-25 21:54:45","223754"
"A3MVLRCP54PYC8","cs_wg_rev_conf_pilot1","3CTOC39K37RSHGAJTHEWGWFH8F17JN","84","0","SQUARE","7","VOLCANO","7","0","1466",,,,,"0","2018-09-25 21:54:47","223755"
"A1KY4GGUD89W8Z","cs_wg_rev_conf_pilot1","3J4Q2Z4UTY4OTIFXWF6H5DQKF12WQ5","14","0","PICKLE","1","CHICKEN","8","1","3224",,,,,"0","2018-09-25 21:54:50","223756"
"A2Z2OSTA6PD0E","cs_wg_rev_conf_pilot1","3KXIR214I4HVSXUSKYAXE39QF2P24B","85","0","BICYCLE","5","COWBOY","7","1","2393",,,,,"0","2018-09-25 21:54:50","223757"
"A3MVLRCP54PYC8","cs_wg_rev_conf_pilot1","3CTOC39K37RSHGAJTHEWGWFH8F17JN","85","0","POTATO","5","PEBBLE","5","0","1397",,,,,"0","2018-09-25 21:54:51","223758"
"A2Z2OSTA6PD0E","cs_wg_rev_conf_pilot1","3KXIR214I4HVSXUSKYAXE39QF2P24B","86","0","BICYCLE","5","TOMATO","6","1","2526",,,,,"0","2018-09-25 21:54:54","223759"
"A3MVLRCP54PYC8","cs_wg_rev_conf_pilot1","3CTOC39K37RSHGAJTHEWGWFH8F17JN","86","0","PEBBLE","5","BANQUET","6","1","2480",,,,,"0","2018-09-25 21:54:55","223760"
"A1KY4GGUD89W8Z","cs_wg_rev_conf_pilot1","3J4Q2Z4UTY4OTIFXWF6H5DQKF12WQ5","15","0","PICTURE","6","SMOKER","15","1","3619",,,,,"0","2018-09-25 21:54:55","223761"
"A3MVLRCP54PYC8","cs_wg_rev_conf_pilot1","3CTOC39K37RSHGAJTHEWGWFH8F17JN","87","0","ISLAND","5","VOLCANO","7","1","1249",,,,,"0","2018-09-25 21:54:58","223762"
"A2Z2OSTA6PD0E","cs_wg_rev_conf_pilot1","3KXIR214I4HVSXUSKYAXE39QF2P24B","87","0","CHICKEN","15","BICYCLE","5","0","1917",,,,,"0","2018-09-25 21:54:58","223763"
"A1KY4GGUD89W8Z","cs_wg_rev_conf_pilot1","3J4Q2Z4UTY4OTIFXWF6H5DQKF12WQ5","16","0","SMOKER","15","PICTURE","6","0","1229",,,,,"0","2018-09-25 21:54:59","223764"
"A2RQMEPIHW5BOS","cs_wg_rev_conf_pilot1","3PM8NZGV8YH3IIKN6K237W4RO38QXS","25","0","BASKET","8","PEBBLE","6","0","17647",,,,,"0","2018-09-25 21:55:00","223765"
"A1KY4GGUD89W8Z","cs_wg_rev_conf_pilot1","3J4Q2Z4UTY4OTIFXWF6H5DQKF12WQ5","17","0","SMOKER","15","TOMATO","6","0","968",,,,,"0","2018-09-25 21:55:01","223766"
"A3MVLRCP54PYC8","cs_wg_rev_conf_pilot1","3CTOC39K37RSHGAJTHEWGWFH8F17JN","88","0","SQUARE","7","BANQUET","6","0","3047",,,,,"0","2018-09-25 21:55:02","223767"
"A2Z2OSTA6PD0E","cs_wg_rev_conf_pilot1","3KXIR214I4HVSXUSKYAXE39QF2P24B","88","0","JACKET","8","COWBOY","7","0","2525",,,,,"0","2018-09-25 21:55:02","223768"
"A1PF1TUEBW499M","cs_wg_rev_conf_pilot1","3DH6GAKTYYQ1WFBOYC7IH3N4VCMZY0","0","0","CRICKET","8","GRENADE","7","0","3938",,,,,"1","2018-09-25 21:55:04","223769"
"A3MVLRCP54PYC8","cs_wg_rev_conf_pilot1","3CTOC39K37RSHGAJTHEWGWFH8F17JN","89","0","BANQUET","6","BASKET","1","0","1560",,,,,"0","2018-09-25 21:55:05","223770"
"A1KY4GGUD89W8Z","cs_wg_rev_conf_pilot1","3J4Q2Z4UTY4OTIFXWF6H5DQKF12WQ5","18","0","CHICKEN","8","TOMATO","6","0","2433",,,,,"0","2018-09-25 21:55:06","223771"
"A2Z2OSTA6PD0E","cs_wg_rev_conf_pilot1","3KXIR214I4HVSXUSKYAXE39QF2P24B","89","0","AIRBAG","6","BANANA","7","0","1691",,,,,"0","2018-09-25 21:55:06","223772"
"A1KY4GGUD89W8Z","cs_wg_rev_conf_pilot1","3J4Q2Z4UTY4OTIFXWF6H5DQKF12WQ5","19","0","SMOKER","15","PICTURE","6","0","1008",,,,,"0","2018-09-25 21:55:08","223773"
"A1PF1TUEBW499M","cs_wg_rev_conf_pilot1","3DH6GAKTYYQ1WFBOYC7IH3N4VCMZY0","1","0","BANQUET","6","BANANA","5","0","2638",,,,,"1","2018-09-25 21:55:09","223774"
"A2Z2OSTA6PD0E","cs_wg_rev_conf_pilot1","3KXIR214I4HVSXUSKYAXE39QF2P24B","90","0","CHICKEN","15","ACROBAT","5","0","1517",,,,,"0","2018-09-25 21:55:09","223775"
"A3MVLRCP54PYC8","cs_wg_rev_conf_pilot1","3CTOC39K37RSHGAJTHEWGWFH8F17JN","90","0","BANANA","6","BANQUET","6","1","2466",,,,,"0","2018-09-25 21:55:09","223776"
"A1KY4GGUD89W8Z","cs_wg_rev_conf_pilot1","3J4Q2Z4UTY4OTIFXWF6H5DQKF12WQ5","20","0","CHICKEN","8","SMOKER","15","1","1981",,,,,"0","2018-09-25 21:55:12","223777"
"A2RQMEPIHW5BOS","cs_wg_rev_conf_pilot1","3PM8NZGV8YH3IIKN6K237W4RO38QXS","26","0","PEBBLE","6","MONKEY","1","0","10453",,,,,"0","2018-09-25 21:55:13","223778"
"A1PF1TUEBW499M","cs_wg_rev_conf_pilot1","3DH6GAKTYYQ1WFBOYC7IH3N4VCMZY0","2","0","GRENADE","7","PEBBLE","7","0","2641",,,,,"1","2018-09-25 21:55:14","223779"
"A2Z2OSTA6PD0E","cs_wg_rev_conf_pilot1","3KXIR214I4HVSXUSKYAXE39QF2P24B","91","0","PUMPKIN","1","COWBOY","7","1","2101",,,,,"0","2018-09-25 21:55:14","223780"
"A3MVLRCP54PYC8","cs_wg_rev_conf_pilot1","3CTOC39K37RSHGAJTHEWGWFH8F17JN","91","0","CANCER","6","ARCADE","7","1","2922",,,,,"0","2018-09-25 21:55:14","223781"
"A2RQMEPIHW5BOS","cs_wg_rev_conf_pilot1","3PM8NZGV8YH3IIKN6K237W4RO38QXS","27","0","SMOKER","15","PEBBLE","6","0","772",,,,,"0","2018-09-25 21:55:16","223782"
"A1KY4GGUD89W8Z","cs_wg_rev_conf_pilot1","3J4Q2Z4UTY4OTIFXWF6H5DQKF12WQ5","21","0","TOMATO","6","CHICKEN","8","1","2235",,,,,"0","2018-09-25 21:55:16","223783"
"A3MVLRCP54PYC8","cs_wg_rev_conf_pilot1","3CTOC39K37RSHGAJTHEWGWFH8F17JN","92","0","ARCADE","7","CRICKET","15","1","1225",,,,,"0","2018-09-25 21:55:17","223784"
"A2Z2OSTA6PD0E","cs_wg_rev_conf_pilot1","3KXIR214I4HVSXUSKYAXE39QF2P24B","92","0","PELICAN","7","BICYCLE","5","0","2074",,,,,"0","2018-09-25 21:55:17","223785"
"A1PF1TUEBW499M","cs_wg_rev_conf_pilot1","3DH6GAKTYYQ1WFBOYC7IH3N4VCMZY0","3","0","POTATO","5","GRENADE","7","1","2185",,,,,"1","2018-09-25 21:55:18","223786"
"A2RQMEPIHW5BOS","cs_wg_rev_conf_pilot1","3PM8NZGV8YH3IIKN6K237W4RO38QXS","28","0","SMOKER","15","LIQUID","6","0","918",,,,,"0","2018-09-25 21:55:19","223787"
"A3MVLRCP54PYC8","cs_wg_rev_conf_pilot1","3CTOC39K37RSHGAJTHEWGWFH8F17JN","93","0","CRICKET","15","BANANA","6","0","1099",,,,,"0","2018-09-25 21:55:19","223788"
"A1KY4GGUD89W8Z","cs_wg_rev_conf_pilot1","3J4Q2Z4UTY4OTIFXWF6H5DQKF12WQ5","22","0","PICTURE","6","SMOKER","15","1","1705",,,,,"0","2018-09-25 21:55:20","223789"
"A2Z2OSTA6PD0E","cs_wg_rev_conf_pilot1","3KXIR214I4HVSXUSKYAXE39QF2P24B","93","0","CHICKEN","15","BANANA","7","0","1522",,,,,"0","2018-09-25 21:55:20","223790"
"A3MVLRCP54PYC8","cs_wg_rev_conf_pilot1","3CTOC39K37RSHGAJTHEWGWFH8F17JN","94","0","VOLCANO","7","BASKET","1","0","1573",,,,,"0","2018-09-25 21:55:22","223791"
"A1PF1TUEBW499M","cs_wg_rev_conf_pilot1","3DH6GAKTYYQ1WFBOYC7IH3N4VCMZY0","4","0","BLANKET","1","CRICKET","8","1","2791",,,,,"1","2018-09-25 21:55:22","223792"
"A2RQMEPIHW5BOS","cs_wg_rev_conf_pilot1","3PM8NZGV8YH3IIKN6K237W4RO38QXS","29","0","MONKEY","1","LIQUID","6","1","2007",,,,,"0","2018-09-25 21:55:23","223793"
"A2Z2OSTA6PD0E","cs_wg_rev_conf_pilot1","3KXIR214I4HVSXUSKYAXE39QF2P24B","94","0","COWBOY","7","PUMPKIN","1","0","1124",,,,,"0","2018-09-25 21:55:23","223794"
"A1KY4GGUD89W8Z","cs_wg_rev_conf_pilot1","3J4Q2Z4UTY4OTIFXWF6H5DQKF12WQ5","23","0","CHICKEN","8","PICKLE","1","0","1244",,,,,"0","2018-09-25 21:55:23","223795"
"A2RQMEPIHW5BOS","cs_wg_rev_conf_pilot1","3PM8NZGV8YH3IIKN6K237W4RO38QXS","30","0","SMOKER","15","LIQUID","6","0","1328",,,,,"0","2018-09-25 21:55:26","223796"
"A1PF1TUEBW499M","cs_wg_rev_conf_pilot1","3DH6GAKTYYQ1WFBOYC7IH3N4VCMZY0","5","0","BANANA","5","CRICKET","8","1","2302",,,,,"1","2018-09-25 21:55:27","223797"
"A2Z2OSTA6PD0E","cs_wg_rev_conf_pilot1","3KXIR214I4HVSXUSKYAXE39QF2P24B","95","0","JACKET","8","BANANA","7","0","2223",,,,,"0","2018-09-25 21:55:27","223798"
"A3MVLRCP54PYC8","cs_wg_rev_conf_pilot1","3CTOC39K37RSHGAJTHEWGWFH8F17JN","95","0","TURKEY","8","BANANA","6","0","3600",,,,,"0","2018-09-25 21:55:27","223799"
"A2RQMEPIHW5BOS","cs_wg_rev_conf_pilot1","3PM8NZGV8YH3IIKN6K237W4RO38QXS","31","0","MONKEY","1","PEBBLE","6","1","1461",,,,,"0","2018-09-25 21:55:29","223800"
"A1KY4GGUD89W8Z","cs_wg_rev_conf_pilot1","3J4Q2Z4UTY4OTIFXWF6H5DQKF12WQ5","24","0","PICKLE","1","PICTURE","6","1","3532",,,,,"0","2018-09-25 21:55:30","223801"
"A3MVLRCP54PYC8","cs_wg_rev_conf_pilot1","3CTOC39K37RSHGAJTHEWGWFH8F17JN","96","0","SQUARE","7","POTATO","5","0","1121",,,,,"0","2018-09-25 21:55:30","223802"
"A2Z2OSTA6PD0E","cs_wg_rev_conf_pilot1","3KXIR214I4HVSXUSKYAXE39QF2P24B","96","0","ACROBAT","5","PEBBLE","5","1","1511",,,,,"0","2018-09-25 21:55:30","223803"
"A1PF1TUEBW499M","cs_wg_rev_conf_pilot1","3DH6GAKTYYQ1WFBOYC7IH3N4VCMZY0","6","0","POTATO","5","WIZARD","5","1","2978",,,,,"1","2018-09-25 21:55:31","223804"
"A3MVLRCP54PYC8","cs_wg_rev_conf_pilot1","3CTOC39K37RSHGAJTHEWGWFH8F17JN","97","0","SQUARE","7","BANANA","6","0","1021",,,,,"0","2018-09-25 21:55:32","223805"
"A2RQMEPIHW5BOS","cs_wg_rev_conf_pilot1","3PM8NZGV8YH3IIKN6K237W4RO38QXS","32","0","LIQUID","6","MONKEY","1","0","1896",,,,,"0","2018-09-25 21:55:33","223806"
"A2Z2OSTA6PD0E","cs_wg_rev_conf_pilot1","3KXIR214I4HVSXUSKYAXE39QF2P24B","97","0","CHICKEN","15","PEBBLE","5","0","1397",,,,,"0","2018-09-25 21:55:33","223807"
"A1KY4GGUD89W8Z","cs_wg_rev_conf_pilot1","3J4Q2Z4UTY4OTIFXWF6H5DQKF12WQ5","25","0","TOMATO","6","PICTURE","6","1","1782",,,,,"0","2018-09-25 21:55:33","223808"
"A3MVLRCP54PYC8","cs_wg_rev_conf_pilot1","3CTOC39K37RSHGAJTHEWGWFH8F17JN","98","0","TURKEY","8","PEBBLE","5","0","812",,,,,"0","2018-09-25 21:55:35","223809"
"A1KY4GGUD89W8Z","cs_wg_rev_conf_pilot1","3J4Q2Z4UTY4OTIFXWF6H5DQKF12WQ5","26","0","SMOKER","15","PICKLE","1","0","877",,,,,"0","2018-09-25 21:55:36","223810"
"A1PF1TUEBW499M","cs_wg_rev_conf_pilot1","3DH6GAKTYYQ1WFBOYC7IH3N4VCMZY0","7","0","BANQUET","6","PEBBLE","7","1","2732",,,,,"1","2018-09-25 21:55:36","223811"
"A2RQMEPIHW5BOS","cs_wg_rev_conf_pilot1","3PM8NZGV8YH3IIKN6K237W4RO38QXS","33","0","LIQUID","6","PEBBLE","6","0","2487",,,,,"0","2018-09-25 21:55:38","223812"
"A2Z2OSTA6PD0E","cs_wg_rev_conf_pilot1","3KXIR214I4HVSXUSKYAXE39QF2P24B","98","0","PELICAN","7","BANANA","7","1","3376",,,,,"0","2018-09-25 21:55:38","223813"
"A3MVLRCP54PYC8","cs_wg_rev_conf_pilot1","3CTOC39K37RSHGAJTHEWGWFH8F17JN","99","0","PEBBLE","5","ISLAND","5","0","1654",,,,,"0","2018-09-25 21:55:38","223814"
"A2Z2OSTA6PD0E","cs_wg_rev_conf_pilot1","3KXIR214I4HVSXUSKYAXE39QF2P24B","99","0","BANANA","7","CHICKEN","15","1","1435",,,,,"0","2018-09-25 21:55:41","223815"
"A1PF1TUEBW499M","cs_wg_rev_conf_pilot1","3DH6GAKTYYQ1WFBOYC7IH3N4VCMZY0","8","0","COWBOY","6","BANANA","5","0","2976",,,,,"1","2018-09-25 21:55:42","223816"
"A3MVLRCP54PYC8","cs_wg_rev_conf_pilot1","3CTOC39K37RSHGAJTHEWGWFH8F17JN","100","0","BANANA","6","BASKET","1","0","2041",,,,,"0","2018-09-25 21:55:42","223817"
"A2RQMEPIHW5BOS","cs_wg_rev_conf_pilot1","3PM8NZGV8YH3IIKN6K237W4RO38QXS","34","0","PEBBLE","6","BASKET","8","1","1971",,,,,"0","2018-09-25 21:55:42","223818"
"A1VL7AAOUPDN72","cs_wg_rev_conf_pilot1","3BGYGHDBBXLLPJF5GKR9LOCSVOT22F","0","0","CHICKEN","15","PICKLE","1","0","31689",,,,,"1","2018-09-25 21:55:44","223819"
"A1KY4GGUD89W8Z","cs_wg_rev_conf_pilot1","3J4Q2Z4UTY4OTIFXWF6H5DQKF12WQ5","27","0","PICKLE","1","TOMATO","6","1","6068",,,,,"0","2018-09-25 21:55:44","223820"
"A2Z2OSTA6PD0E","cs_wg_rev_conf_pilot1","3KXIR214I4HVSXUSKYAXE39QF2P24B","100","0","ACROBAT","5","JACKET","8","0","1670",,,,,"0","2018-09-25 21:55:45","223821"
"A2RQMEPIHW5BOS","cs_wg_rev_conf_pilot1","3PM8NZGV8YH3IIKN6K237W4RO38QXS","35","0","PEBBLE","6","LIQUID","6","0","1806",,,,,"0","2018-09-25 21:55:46","223822"
"A1PF1TUEBW499M","cs_wg_rev_conf_pilot1","3DH6GAKTYYQ1WFBOYC7IH3N4VCMZY0","9","0","BLANKET","1","BANQUET","6","1","3484",,,,,"1","2018-09-25 21:55:46","223823"
"A3MVLRCP54PYC8","cs_wg_rev_conf_pilot1","3CTOC39K37RSHGAJTHEWGWFH8F17JN","101","0","ISLAND","5","BANQUET","6","1","3008",,,,,"0","2018-09-25 21:55:46","223824"
"A1KY4GGUD89W8Z","cs_wg_rev_conf_pilot1","3J4Q2Z4UTY4OTIFXWF6H5DQKF12WQ5","28","0","TOMATO","6","PICKLE","1","0","1730",,,,,"0","2018-09-25 21:55:48","223825"
"A2RQMEPIHW5BOS","cs_wg_rev_conf_pilot1","3PM8NZGV8YH3IIKN6K237W4RO38QXS","36","0","PEBBLE","6","LIQUID","6","0","807",,,,,"0","2018-09-25 21:55:49","223826"
"A2Z2OSTA6PD0E","cs_wg_rev_conf_pilot1","3KXIR214I4HVSXUSKYAXE39QF2P24B","101","0","PUMPKIN","1","PELICAN","7","1","2565",,,,,"0","2018-09-25 21:55:49","223827"
"A1PF1TUEBW499M","cs_wg_rev_conf_pilot1","3DH6GAKTYYQ1WFBOYC7IH3N4VCMZY0","10","0","ARCADE","7","WIZARD","5","0","1807",,,,,"1","2018-09-25 21:55:50","223828"
"A3MVLRCP54PYC8","cs_wg_rev_conf_pilot1","3CTOC39K37RSHGAJTHEWGWFH8F17JN","102","0","BANQUET","6","BANANA","6","0","2322",,,,,"0","2018-09-25 21:55:50","223829"
"A2RQMEPIHW5BOS","cs_wg_rev_conf_pilot1","3PM8NZGV8YH3IIKN6K237W4RO38QXS","37","0","MONKEY","1","BASKET","8","1","1797",,,,,"0","2018-09-25 21:55:52","223830"
"A2Z2OSTA6PD0E","cs_wg_rev_conf_pilot1","3KXIR214I4HVSXUSKYAXE39QF2P24B","102","0","ACROBAT","5","BICYCLE","5","0","1494",,,,,"0","2018-09-25 21:55:52","223831"
"A3MVLRCP54PYC8","cs_wg_rev_conf_pilot1","3CTOC39K37RSHGAJTHEWGWFH8F17JN","103","0","POTATO","5","BASKET","1","0","1946",,,,,"0","2018-09-25 21:55:54","223832"
"A1PF1TUEBW499M","cs_wg_rev_conf_pilot1","3DH6GAKTYYQ1WFBOYC7IH3N4VCMZY0","11","0","PEBBLE","7","PUMPKIN","15","1","2036",,,,,"1","2018-09-25 21:55:54","223833"
"A2RQMEPIHW5BOS","cs_wg_rev_conf_pilot1","3PM8NZGV8YH3IIKN6K237W4RO38QXS","38","0","PEBBLE","6","MONKEY","1","0","1647",,,,,"0","2018-09-25 21:55:55","223834"
"A2Z2OSTA6PD0E","cs_wg_rev_conf_pilot1","3KXIR214I4HVSXUSKYAXE39QF2P24B","103","0","SUNBURN","6","ACROBAT","5","0","2030",,,,,"0","2018-09-25 21:55:56","223835"
"A1KY4GGUD89W8Z","cs_wg_rev_conf_pilot1","3J4Q2Z4UTY4OTIFXWF6H5DQKF12WQ5","29","0","PICKLE","1","PICTURE","6","1","5019",,,,,"0","2018-09-25 21:55:56","223836"
"A2RQMEPIHW5BOS","cs_wg_rev_conf_pilot1","3PM8NZGV8YH3IIKN6K237W4RO38QXS","39","0","SMOKER","15","LIQUID","6","0","691",,,,,"0","2018-09-25 21:55:58","223837"
"A1PF1TUEBW499M","cs_wg_rev_conf_pilot1","3DH6GAKTYYQ1WFBOYC7IH3N4VCMZY0","12","0","GRENADE","7","BANQUET","6","0","2016",,,,,"1","2018-09-25 21:55:58","223838"
"A1KY4GGUD89W8Z","cs_wg_rev_conf_pilot1","3J4Q2Z4UTY4OTIFXWF6H5DQKF12WQ5","30","0","CHICKEN","8","SMOKER","15","1","1553",,,,,"0","2018-09-25 21:55:59","223839"
"A3MVLRCP54PYC8","cs_wg_rev_conf_pilot1","3CTOC39K37RSHGAJTHEWGWFH8F17JN","104","0","BANQUET","6","ISLAND","5","0","4144",,,,,"0","2018-09-25 21:55:59","223840"
"A2Z2OSTA6PD0E","cs_wg_rev_conf_pilot1","3KXIR214I4HVSXUSKYAXE39QF2P24B","104","0","PEBBLE","5","JACKET","8","1","2604",,,,,"0","2018-09-25 21:56:00","223841"
"A2RQMEPIHW5BOS","cs_wg_rev_conf_pilot1","3PM8NZGV8YH3IIKN6K237W4RO38QXS","40","0","MONKEY","1","SMOKER","15","1","1327",,,,,"0","2018-09-25 21:56:01","223842"
"A3MVLRCP54PYC8","cs_wg_rev_conf_pilot1","3CTOC39K37RSHGAJTHEWGWFH8F17JN","105","0","CRICKET","15","ISLAND","5","0","658",,,,,"0","2018-09-25 21:56:02","223843"
"A1PF1TUEBW499M","cs_wg_rev_conf_pilot1","3DH6GAKTYYQ1WFBOYC7IH3N4VCMZY0","13","0","ARCADE","7","GRENADE","7","0","2001",,,,,"1","2018-09-25 21:56:02","223844"
"A2Z2OSTA6PD0E","cs_wg_rev_conf_pilot1","3KXIR214I4HVSXUSKYAXE39QF2P24B","105","0","JACKET","8","ACROBAT","5","0","1058",,,,,"0","2018-09-25 21:56:03","223845"
"A1VL7AAOUPDN72","cs_wg_rev_conf_pilot1","3BGYGHDBBXLLPJF5GKR9LOCSVOT22F","1","0","CHICKEN","15","LIZARD","6","0","14687",,,,,"0","2018-09-25 21:56:03","223846"
"A3MVLRCP54PYC8","cs_wg_rev_conf_pilot1","3CTOC39K37RSHGAJTHEWGWFH8F17JN","106","0","CANCER","6","VOLCANO","7","1","1405",,,,,"0","2018-09-25 21:56:04","223847"
"A1KY4GGUD89W8Z","cs_wg_rev_conf_pilot1","3J4Q2Z4UTY4OTIFXWF6H5DQKF12WQ5","31","0","PICTURE","6","CHICKEN","8","1","3403",,,,,"0","2018-09-25 21:56:05","223848"
"A2RQMEPIHW5BOS","cs_wg_rev_conf_pilot1","3PM8NZGV8YH3IIKN6K237W4RO38QXS","41","0","MONKEY","1","BASKET","8","1","2323",,,,,"0","2018-09-25 21:56:05","223849"
"A1PF1TUEBW499M","cs_wg_rev_conf_pilot1","3DH6GAKTYYQ1WFBOYC7IH3N4VCMZY0","14","0","BANANA","5","WIZARD","5","1","2066",,,,,"1","2018-09-25 21:56:06","223850"
"A3MVLRCP54PYC8","cs_wg_rev_conf_pilot1","3CTOC39K37RSHGAJTHEWGWFH8F17JN","107","0","TURKEY","8","SQUARE","7","0","1075",,,,,"0","2018-09-25 21:56:07","223851"
"A2Z2OSTA6PD0E","cs_wg_rev_conf_pilot1","3KXIR214I4HVSXUSKYAXE39QF2P24B","106","0","PELICAN","7","ACROBAT","5","0","3028",,,,,"0","2018-09-25 21:56:08","223852"
"A2RQMEPIHW5BOS","cs_wg_rev_conf_pilot1","3PM8NZGV8YH3IIKN6K237W4RO38QXS","42","0","PEBBLE","6","SMOKER","15","1","1414",,,,,"0","2018-09-25 21:56:08","223853"
"A1KY4GGUD89W8Z","cs_wg_rev_conf_pilot1","3J4Q2Z4UTY4OTIFXWF6H5DQKF12WQ5","32","0","PICKLE","1","CHICKEN","8","1","3111",,,,,"0","2018-09-25 21:56:10","223854"
"A1PF1TUEBW499M","cs_wg_rev_conf_pilot1","3DH6GAKTYYQ1WFBOYC7IH3N4VCMZY0","15","0","BANANA","5","ARCADE","7","1","2434",,,,,"1","2018-09-25 21:56:10","223855"
"A3MVLRCP54PYC8","cs_wg_rev_conf_pilot1","3CTOC39K37RSHGAJTHEWGWFH8F17JN","108","0","BANANA","6","SQUARE","7","1","2149",,,,,"0","2018-09-25 21:56:11","223856"
"A2RQMEPIHW5BOS","cs_wg_rev_conf_pilot1","3PM8NZGV8YH3IIKN6K237W4RO38QXS","43","0","BASKET","8","PEBBLE","6","0","1214",,,,,"0","2018-09-25 21:56:11","223857"
"A2Z2OSTA6PD0E","cs_wg_rev_conf_pilot1","3KXIR214I4HVSXUSKYAXE39QF2P24B","107","0","ACROBAT","5","PUMPKIN","1","0","1792",,,,,"0","2018-09-25 21:56:11","223858"
"A2RQMEPIHW5BOS","cs_wg_rev_conf_pilot1","3PM8NZGV8YH3IIKN6K237W4RO38QXS","44","0","MONKEY","1","PEBBLE","6","1","1263",,,,,"0","2018-09-25 21:56:13","223859"
"A3MVLRCP54PYC8","cs_wg_rev_conf_pilot1","3CTOC39K37RSHGAJTHEWGWFH8F17JN","109","0","VOLCANO","7","SQUARE","7","0","1632",,,,,"0","2018-09-25 21:56:14","223860"
"A1PF1TUEBW499M","cs_wg_rev_conf_pilot1","3DH6GAKTYYQ1WFBOYC7IH3N4VCMZY0","16","0","WIZARD","5","AVOCADO","6","1","2267",,,,,"1","2018-09-25 21:56:14","223861"
"A2Z2OSTA6PD0E","cs_wg_rev_conf_pilot1","3KXIR214I4HVSXUSKYAXE39QF2P24B","108","0","BANANA","7","PELICAN","7","1","3066",,,,,"0","2018-09-25 21:56:16","223862"
"A1PF1TUEBW499M","cs_wg_rev_conf_pilot1","3DH6GAKTYYQ1WFBOYC7IH3N4VCMZY0","17","0","GRENADE","7","COWBOY","6","0","1783",,,,,"1","2018-09-25 21:56:18","223863"
"A1VL7AAOUPDN72","cs_wg_rev_conf_pilot1","3BGYGHDBBXLLPJF5GKR9LOCSVOT22F","2","0","CHICKEN","15","MONKEY","8","0","11272",,,,,"0","2018-09-25 21:56:19","223864"
"A2RQMEPIHW5BOS","cs_wg_rev_conf_pilot1","3PM8NZGV8YH3IIKN6K237W4RO38QXS","45","0","PEBBLE","6","BASKET","8","1","3940",,,,,"0","2018-09-25 21:56:19","223865"
"A2Z2OSTA6PD0E","cs_wg_rev_conf_pilot1","3KXIR214I4HVSXUSKYAXE39QF2P24B","109","0","JACKET","8","PELICAN","7","0","1520",,,,,"0","2018-09-25 21:56:20","223866"
"A3MVLRCP54PYC8","cs_wg_rev_conf_pilot1","3CTOC39K37RSHGAJTHEWGWFH8F17JN","110","0","BASKET","1","ARCADE","7","1","5310",,,,,"0","2018-09-25 21:56:21","223867"
"A1PF1TUEBW499M","cs_wg_rev_conf_pilot1","3DH6GAKTYYQ1WFBOYC7IH3N4VCMZY0","18","0","AVOCADO","6","CRICKET","8","1","2670",,,,,"1","2018-09-25 21:56:22","223868"
"A2RQMEPIHW5BOS","cs_wg_rev_conf_pilot1","3PM8NZGV8YH3IIKN6K237W4RO38QXS","46","0","LIQUID","6","PEBBLE","6","0","1571",,,,,"0","2018-09-25 21:56:23","223869"
"A1KY4GGUD89W8Z","cs_wg_rev_conf_pilot1","3J4Q2Z4UTY4OTIFXWF6H5DQKF12WQ5","33","0","PICTURE","6","CHICKEN","8","1","12369",,,,,"0","2018-09-25 21:56:24","223870"
"A2Z2OSTA6PD0E","cs_wg_rev_conf_pilot1","3KXIR214I4HVSXUSKYAXE39QF2P24B","110","0","AIRBAG","6","ACROBAT","5","1","2833",,,,,"0","2018-09-25 21:56:25","223871"
"A2RQMEPIHW5BOS","cs_wg_rev_conf_pilot1","3PM8NZGV8YH3IIKN6K237W4RO38QXS","47","0","BASKET","8","MONKEY","1","0","1013",,,,,"0","2018-09-25 21:56:25","223872"
"A3MVLRCP54PYC8","cs_wg_rev_conf_pilot1","3CTOC39K37RSHGAJTHEWGWFH8F17JN","111","0","VOLCANO","7","TURKEY","8","1","2233",,,,,"0","2018-09-25 21:56:26","223873"
"A1PF1TUEBW499M","cs_wg_rev_conf_pilot1","3DH6GAKTYYQ1WFBOYC7IH3N4VCMZY0","19","0","PUMPKIN","15","CRICKET","8","0","1807",,,,,"1","2018-09-25 21:56:26","223874"
"A2Z2OSTA6PD0E","cs_wg_rev_conf_pilot1","3KXIR214I4HVSXUSKYAXE39QF2P24B","111","0","PUMPKIN","1","JACKET","8","1","1440",,,,,"0","2018-09-25 21:56:28","223875"
"A3MVLRCP54PYC8","cs_wg_rev_conf_pilot1","3CTOC39K37RSHGAJTHEWGWFH8F17JN","112","0","BASKET","1","BANQUET","6","1","893",,,,,"0","2018-09-25 21:56:28","223876"
"A2RQMEPIHW5BOS","cs_wg_rev_conf_pilot1","3PM8NZGV8YH3IIKN6K237W4RO38QXS","48","0","BASKET","8","LIQUID","6","0","1032",,,,,"0","2018-09-25 21:56:28","223877"
"A1KY4GGUD89W8Z","cs_wg_rev_conf_pilot1","3J4Q2Z4UTY4OTIFXWF6H5DQKF12WQ5","34","0","PICKLE","1","PICTURE","6","1","3595",,,,,"0","2018-09-25 21:56:29","223878"
"A1PF1TUEBW499M","cs_wg_rev_conf_pilot1","3DH6GAKTYYQ1WFBOYC7IH3N4VCMZY0","20","0","COWBOY","6","ARCADE","7","1","1766",,,,,"1","2018-09-25 21:56:30","223879"
"A2Z2OSTA6PD0E","cs_wg_rev_conf_pilot1","3KXIR214I4HVSXUSKYAXE39QF2P24B","112","0","JACKET","8","PUMPKIN","1","0","1174",,,,,"0","2018-09-25 21:56:30","223880"
"A2RQMEPIHW5BOS","cs_wg_rev_conf_pilot1","3PM8NZGV8YH3IIKN6K237W4RO38QXS","49","0","LIQUID","6","PEBBLE","6","0","969",,,,,"0","2018-09-25 21:56:31","223881"
"A3MVLRCP54PYC8","cs_wg_rev_conf_pilot1","3CTOC39K37RSHGAJTHEWGWFH8F17JN","113","0","VOLCANO","7","PEBBLE","5","0","1373",,,,,"0","2018-09-25 21:56:31","223882"
"A1KY4GGUD89W8Z","cs_wg_rev_conf_pilot1","3J4Q2Z4UTY4OTIFXWF6H5DQKF12WQ5","35","0","PICTURE","6","SMOKER","15","1","1464",,,,,"0","2018-09-25 21:56:33","223883"
"A2RQMEPIHW5BOS","cs_wg_rev_conf_pilot1","3PM8NZGV8YH3IIKN6K237W4RO38QXS","50","0","MONKEY","1","LIQUID","6","1","1328",,,,,"0","2018-09-25 21:56:33","223884"
"A3MVLRCP54PYC8","cs_wg_rev_conf_pilot1","3CTOC39K37RSHGAJTHEWGWFH8F17JN","114","0","CANCER","6","TURKEY","8","1","1183",,,,,"0","2018-09-25 21:56:34","223885"
"A1VL7AAOUPDN72","cs_wg_rev_conf_pilot1","3BGYGHDBBXLLPJF5GKR9LOCSVOT22F","3","0","PENGUIN","6","MONKEY","8","1","6902",,,,,"0","2018-09-25 21:56:34","223886"
"A1PF1TUEBW499M","cs_wg_rev_conf_pilot1","3DH6GAKTYYQ1WFBOYC7IH3N4VCMZY0","21","0","WIZARD","5","ARCADE","7","1","2595",,,,,"1","2018-09-25 21:56:35","223887"
"A3MVLRCP54PYC8","cs_wg_rev_conf_pilot1","3CTOC39K37RSHGAJTHEWGWFH8F17JN","115","0","BASKET","1","SQUARE","7","1","910",,,,,"0","2018-09-25 21:56:36","223888"
"A2RQMEPIHW5BOS","cs_wg_rev_conf_pilot1","3PM8NZGV8YH3IIKN6K237W4RO38QXS","51","0","LIQUID","6","SMOKER","15","1","1264",,,,,"0","2018-09-25 21:56:36","223889"
"A2Z2OSTA6PD0E","cs_wg_rev_conf_pilot1","3KXIR214I4HVSXUSKYAXE39QF2P24B","113","0","AIRBAG","6","PELICAN","7","1","3639",,,,,"0","2018-09-25 21:56:37","223890"
"A1KY4GGUD89W8Z","cs_wg_rev_conf_pilot1","3J4Q2Z4UTY4OTIFXWF6H5DQKF12WQ5","36","0","TOMATO","6","PICKLE","1","0","2569",,,,,"0","2018-09-25 21:56:37","223891"
"A1PF1TUEBW499M","cs_wg_rev_conf_pilot1","3DH6GAKTYYQ1WFBOYC7IH3N4VCMZY0","22","0","GRENADE","7","POTATO","5","0","1467",,,,,"1","2018-09-25 21:56:38","223892"
"A2RQMEPIHW5BOS","cs_wg_rev_conf_pilot1","3PM8NZGV8YH3IIKN6K237W4RO38QXS","52","0","BASKET","8","SMOKER","15","1","1356",,,,,"0","2018-09-25 21:56:39","223893"
"A1KY4GGUD89W8Z","cs_wg_rev_conf_pilot1","3J4Q2Z4UTY4OTIFXWF6H5DQKF12WQ5","37","0","SMOKER","15","PICKLE","1","0","1213",,,,,"0","2018-09-25 21:56:40","223894"
"A2Z2OSTA6PD0E","cs_wg_rev_conf_pilot1","3KXIR214I4HVSXUSKYAXE39QF2P24B","114","0","BICYCLE","5","PUMPKIN","1","0","1696",,,,,"0","2018-09-25 21:56:40","223895"
"A2RQMEPIHW5BOS","cs_wg_rev_conf_pilot1","3PM8NZGV8YH3IIKN6K237W4RO38QXS","53","0","PEBBLE","6","SMOKER","15","1","788",,,,,"0","2018-09-25 21:56:41","223896"
"A3MVLRCP54PYC8","cs_wg_rev_conf_pilot1","3CTOC39K37RSHGAJTHEWGWFH8F17JN","116","0","POTATO","5","BANANA","6","1","2275",,,,,"0","2018-09-25 21:56:41","223897"
"A1PF1TUEBW499M","cs_wg_rev_conf_pilot1","3DH6GAKTYYQ1WFBOYC7IH3N4VCMZY0","23","0","CRICKET","8","WIZARD","5","0","1418",,,,,"1","2018-09-25 21:56:41","223898"
"A3MVLRCP54PYC8","cs_wg_rev_conf_pilot1","3CTOC39K37RSHGAJTHEWGWFH8F17JN","117","0","CRICKET","15","VOLCANO","7","0","1041",,,,,"0","2018-09-25 21:56:42","223899"
"A1VL7AAOUPDN72","cs_wg_rev_conf_pilot1","3BGYGHDBBXLLPJF5GKR9LOCSVOT22F","4","0","CHICKEN","15","PICKLE","1","0","5631",,,,,"0","2018-09-25 21:56:43","223900"
"A1KY4GGUD89W8Z","cs_wg_rev_conf_pilot1","3J4Q2Z4UTY4OTIFXWF6H5DQKF12WQ5","38","0","SMOKER","15","PICKLE","1","0","901",,,,,"0","2018-09-25 21:56:43","223901"
"A2Z2OSTA6PD0E","cs_wg_rev_conf_pilot1","3KXIR214I4HVSXUSKYAXE39QF2P24B","115","0","CHICKEN","15","SUNBURN","6","0","1040",,,,,"0","2018-09-25 21:56:43","223902"
"A2RQMEPIHW5BOS","cs_wg_rev_conf_pilot1","3PM8NZGV8YH3IIKN6K237W4RO38QXS","54","0","MONKEY","1","BASKET","8","1","1464",,,,,"0","2018-09-25 21:56:43","223903"
"A1PF1TUEBW499M","cs_wg_rev_conf_pilot1","3DH6GAKTYYQ1WFBOYC7IH3N4VCMZY0","24","0","BANQUET","6","GRENADE","7","1","2717",,,,,"1","2018-09-25 21:56:46","223904"
"A2RQMEPIHW5BOS","cs_wg_rev_conf_pilot1","3PM8NZGV8YH3IIKN6K237W4RO38QXS","55","0","LIQUID","6","MONKEY","1","0","1401",,,,,"0","2018-09-25 21:56:46","223905"
"A2Z2OSTA6PD0E","cs_wg_rev_conf_pilot1","3KXIR214I4HVSXUSKYAXE39QF2P24B","116","0","COWBOY","7","BICYCLE","5","0","1662",,,,,"0","2018-09-25 21:56:46","223906"
"A3MVLRCP54PYC8","cs_wg_rev_conf_pilot1","3CTOC39K37RSHGAJTHEWGWFH8F17JN","118","0","BANQUET","6","ARCADE","7","1","3798",,,,,"0","2018-09-25 21:56:48","223907"
"A2RQMEPIHW5BOS","cs_wg_rev_conf_pilot1","3PM8NZGV8YH3IIKN6K237W4RO38QXS","56","0","LIQUID","6","BASKET","8","1","1352",,,,,"0","2018-09-25 21:56:49","223908"
"A1PF1TUEBW499M","cs_wg_rev_conf_pilot1","3DH6GAKTYYQ1WFBOYC7IH3N4VCMZY0","25","0","AVOCADO","6","PUMPKIN","15","0","748",,,,,"0","2018-09-25 21:56:49","223909"
"A1KY4GGUD89W8Z","cs_wg_rev_conf_pilot1","3J4Q2Z4UTY4OTIFXWF6H5DQKF12WQ5","39","0","TOMATO","6","CHICKEN","8","1","2600",,,,,"0","2018-09-25 21:56:49","223910"
"A3MVLRCP54PYC8","cs_wg_rev_conf_pilot1","3CTOC39K37RSHGAJTHEWGWFH8F17JN","119","0","BANQUET","6","CRICKET","15","1","1381",,,,,"0","2018-09-25 21:56:50","223911"
"A2Z2OSTA6PD0E","cs_wg_rev_conf_pilot1","3KXIR214I4HVSXUSKYAXE39QF2P24B","117","0","BICYCLE","5","ACROBAT","5","1","2085",,,,,"0","2018-09-25 21:56:51","223912"
"A2RQMEPIHW5BOS","cs_wg_rev_conf_pilot1","3PM8NZGV8YH3IIKN6K237W4RO38QXS","57","0","BASKET","8","MONKEY","1","0","1312",,,,,"0","2018-09-25 21:56:51","223913"
"A1PF1TUEBW499M","cs_wg_rev_conf_pilot1","3DH6GAKTYYQ1WFBOYC7IH3N4VCMZY0","26","0","BLANKET","1","COWBOY","6","1","2223",,,,,"1","2018-09-25 21:56:53","223914"
"A3MVLRCP54PYC8","cs_wg_rev_conf_pilot1","3CTOC39K37RSHGAJTHEWGWFH8F17JN","120","0","ARCADE","7","TURKEY","8","1","1180",,,,,"0","2018-09-25 21:56:53","223915"
"A2RQMEPIHW5BOS","cs_wg_rev_conf_pilot1","3PM8NZGV8YH3IIKN6K237W4RO38QXS","58","0","BASKET","8","SMOKER","15","1","1386",,,,,"0","2018-09-25 21:56:54","223916"
"A1KY4GGUD89W8Z","cs_wg_rev_conf_pilot1","3J4Q2Z4UTY4OTIFXWF6H5DQKF12WQ5","40","0","TOMATO","6","CHICKEN","8","1","3117",,,,,"0","2018-09-25 21:56:55","223917"
"A2Z2OSTA6PD0E","cs_wg_rev_conf_pilot1","3KXIR214I4HVSXUSKYAXE39QF2P24B","118","0","PELICAN","7","JACKET","8","1","2315",,,,,"0","2018-09-25 21:56:55","223918"
"A3MVLRCP54PYC8","cs_wg_rev_conf_pilot1","3CTOC39K37RSHGAJTHEWGWFH8F17JN","121","0","TURKEY","8","ISLAND","5","0","982",,,,,"0","2018-09-25 21:56:56","223919"
"A2RQMEPIHW5BOS","cs_wg_rev_conf_pilot1","3PM8NZGV8YH3IIKN6K237W4RO38QXS","59","0","LIQUID","6","SMOKER","15","1","733",,,,,"0","2018-09-25 21:56:56","223920"
"A1PF1TUEBW499M","cs_wg_rev_conf_pilot1","3DH6GAKTYYQ1WFBOYC7IH3N4VCMZY0","27","0","BANQUET","6","PUMPKIN","15","1","2066",,,,,"1","2018-09-25 21:56:57","223921"
"A1KY4GGUD89W8Z","cs_wg_rev_conf_pilot1","3J4Q2Z4UTY4OTIFXWF6H5DQKF12WQ5","41","0","SMOKER","15","CHICKEN","8","0","996",,,,,"0","2018-09-25 21:56:57","223922"
"A2Z2OSTA6PD0E","cs_wg_rev_conf_pilot1","3KXIR214I4HVSXUSKYAXE39QF2P24B","119","0","CHICKEN","15","PELICAN","7","0","1631",,,,,"0","2018-09-25 21:56:58","223923"
"A3MVLRCP54PYC8","cs_wg_rev_conf_pilot1","3CTOC39K37RSHGAJTHEWGWFH8F17JN","122","0","BASKET","1","CANCER","6","1","1658",,,,,"0","2018-09-25 21:56:59","223924"
"A1VL7AAOUPDN72","cs_wg_rev_conf_pilot1","3BGYGHDBBXLLPJF5GKR9LOCSVOT22F","5","0","LIZARD","6","MONKEY","8","1","10692",,,,,"0","2018-09-25 21:57:00","223925"
"A1PF1TUEBW499M","cs_wg_rev_conf_pilot1","3DH6GAKTYYQ1WFBOYC7IH3N4VCMZY0","28","0","BLANKET","1","BANANA","5","1","1657",,,,,"0","2018-09-25 21:57:01","223926"
"A1KY4GGUD89W8Z","cs_wg_rev_conf_pilot1","3J4Q2Z4UTY4OTIFXWF6H5DQKF12WQ5","42","0","PICKLE","1","SMOKER","15","1","1342",,,,,"0","2018-09-25 21:57:01","223927"
"A3MVLRCP54PYC8","cs_wg_rev_conf_pilot1","3CTOC39K37RSHGAJTHEWGWFH8F17JN","123","0","BASKET","1","ISLAND","5","1","767",,,,,"0","2018-09-25 21:57:01","223928"
"A2Z2OSTA6PD0E","cs_wg_rev_conf_pilot1","3KXIR214I4HVSXUSKYAXE39QF2P24B","120","0","PEBBLE","5","BICYCLE","5","0","2297",,,,,"0","2018-09-25 21:57:03","223929"
"A3MVLRCP54PYC8","cs_wg_rev_conf_pilot1","3CTOC39K37RSHGAJTHEWGWFH8F17JN","124","0","BANQUET","6","PEBBLE","5","0","1520",,,,,"0","2018-09-25 21:57:04","223930"
"A1KY4GGUD89W8Z","cs_wg_rev_conf_pilot1","3J4Q2Z4UTY4OTIFXWF6H5DQKF12WQ5","43","0","CHICKEN","8","PICTURE","6","0","1468",,,,,"0","2018-09-25 21:57:04","223931"
"A2Z2OSTA6PD0E","cs_wg_rev_conf_pilot1","3KXIR214I4HVSXUSKYAXE39QF2P24B","121","0","PEBBLE","5","SUNBURN","6","1","1840",,,,,"0","2018-09-25 21:57:06","223932"
"A1PF1TUEBW499M","cs_wg_rev_conf_pilot1","3DH6GAKTYYQ1WFBOYC7IH3N4VCMZY0","29","0","BANQUET","6","WIZARD","5","0","3862",,,,,"1","2018-09-25 21:57:06","223933"
"A3MVLRCP54PYC8","cs_wg_rev_conf_pilot1","3CTOC39K37RSHGAJTHEWGWFH8F17JN","125","0","CRICKET","15","POTATO","5","0","1357",,,,,"0","2018-09-25 21:57:07","223934"
"A1KY4GGUD89W8Z","cs_wg_rev_conf_pilot1","3J4Q2Z4UTY4OTIFXWF6H5DQKF12WQ5","44","0","TOMATO","6","PICTURE","6","1","1712",,,,,"0","2018-09-25 21:57:08","223935"
"A3MVLRCP54PYC8","cs_wg_rev_conf_pilot1","3CTOC39K37RSHGAJTHEWGWFH8F17JN","126","0","CANCER","6","SQUARE","7","1","1270",,,,,"0","2018-09-25 21:57:10","223936"
"A2Z2OSTA6PD0E","cs_wg_rev_conf_pilot1","3KXIR214I4HVSXUSKYAXE39QF2P24B","122","0","PELICAN","7","SUNBURN","6","1","2598",,,,,"0","2018-09-25 21:57:11","223937"
"A1PF1TUEBW499M","cs_wg_rev_conf_pilot1","3DH6GAKTYYQ1WFBOYC7IH3N4VCMZY0","30","0","WIZARD","5","POTATO","5","0","2994",,,,,"1","2018-09-25 21:57:11","223938"
"A1KY4GGUD89W8Z","cs_wg_rev_conf_pilot1","3J4Q2Z4UTY4OTIFXWF6H5DQKF12WQ5","45","0","PICTURE","6","PICKLE","1","0","1495",,,,,"0","2018-09-25 21:57:11","223939"
"A1VL7AAOUPDN72","cs_wg_rev_conf_pilot1","3BGYGHDBBXLLPJF5GKR9LOCSVOT22F","6","0","LIZARD","6","PENGUIN","6","0","8202",,,,,"0","2018-09-25 21:57:13","223940"
"A3MVLRCP54PYC8","cs_wg_rev_conf_pilot1","3CTOC39K37RSHGAJTHEWGWFH8F17JN","127","0","PEBBLE","5","CANCER","6","1","1614",,,,,"0","2018-09-25 21:57:13","223941"
"A1KY4GGUD89W8Z","cs_wg_rev_conf_pilot1","3J4Q2Z4UTY4OTIFXWF6H5DQKF12WQ5","46","0","PICTURE","6","PICKLE","1","0","864",,,,,"0","2018-09-25 21:57:14","223942"
"A1PF1TUEBW499M","cs_wg_rev_conf_pilot1","3DH6GAKTYYQ1WFBOYC7IH3N4VCMZY0","31","0","POTATO","5","CRICKET","8","1","1455",,,,,"0","2018-09-25 21:57:14","223943"
"A2Z2OSTA6PD0E","cs_wg_rev_conf_pilot1","3KXIR214I4HVSXUSKYAXE39QF2P24B","123","0","AIRBAG","6","SUNBURN","6","0","2134",,,,,"0","2018-09-25 21:57:15","223944"
"A3MVLRCP54PYC8","cs_wg_rev_conf_pilot1","3CTOC39K37RSHGAJTHEWGWFH8F17JN","128","0","CANCER","6","CRICKET","15","1","821",,,,,"0","2018-09-25 21:57:15","223945"
"A1KY4GGUD89W8Z","cs_wg_rev_conf_pilot1","3J4Q2Z4UTY4OTIFXWF6H5DQKF12WQ5","47","0","CHICKEN","8","PICTURE","6","0","1874",,,,,"0","2018-09-25 21:57:17","223946"
"A1PF1TUEBW499M","cs_wg_rev_conf_pilot1","3DH6GAKTYYQ1WFBOYC7IH3N4VCMZY0","32","0","GRENADE","7","AVOCADO","6","0","1915",,,,,"0","2018-09-25 21:57:18","223947"
"A3MVLRCP54PYC8","cs_wg_rev_conf_pilot1","3CTOC39K37RSHGAJTHEWGWFH8F17JN","129","0","CANCER","6","BASKET","1","0","1746",,,,,"0","2018-09-25 21:57:18","223948"
"A2Z2OSTA6PD0E","cs_wg_rev_conf_pilot1","3KXIR214I4HVSXUSKYAXE39QF2P24B","124","0","BANANA","7","JACKET","8","1","2397",,,,,"0","2018-09-25 21:57:19","223949"
"A1KY4GGUD89W8Z","cs_wg_rev_conf_pilot1","3J4Q2Z4UTY4OTIFXWF6H5DQKF12WQ5","48","0","TOMATO","6","PICKLE","1","0","1813",,,,,"0","2018-09-25 21:57:21","223950"
"A3MVLRCP54PYC8","cs_wg_rev_conf_pilot1","3CTOC39K37RSHGAJTHEWGWFH8F17JN","130","0","BASKET","1","PEBBLE","5","1","2284",,,,,"0","2018-09-25 21:57:22","223951"
"A2Z2OSTA6PD0E","cs_wg_rev_conf_pilot1","3KXIR214I4HVSXUSKYAXE39QF2P24B","125","0","JACKET","8","AIRBAG","6","0","1849",,,,,"0","2018-09-25 21:57:23","223952"
"A1PF1TUEBW499M","cs_wg_rev_conf_pilot1","3DH6GAKTYYQ1WFBOYC7IH3N4VCMZY0","33","0","WIZARD","5","BANANA","5","0","4696",,,,,"1","2018-09-25 21:57:25","223953"
"A1KY4GGUD89W8Z","cs_wg_rev_conf_pilot1","3J4Q2Z4UTY4OTIFXWF6H5DQKF12WQ5","49","0","PICTURE","6","TOMATO","6","0","2530",,,,,"0","2018-09-25 21:57:25","223954"
"A3MVLRCP54PYC8","cs_wg_rev_conf_pilot1","3CTOC39K37RSHGAJTHEWGWFH8F17JN","131","0","CANCER","6","PEBBLE","5","0","1978",,,,,"0","2018-09-25 21:57:26","223955"
"A1VL7AAOUPDN72","cs_wg_rev_conf_pilot1","3BGYGHDBBXLLPJF5GKR9LOCSVOT22F","7","0","LIZARD","6","PENGUIN","6","0","8652",,,,,"0","2018-09-25 21:57:26","223956"
"A2Z2OSTA6PD0E","cs_wg_rev_conf_pilot1","3KXIR214I4HVSXUSKYAXE39QF2P24B","126","0","BANANA","7","AIRBAG","6","1","2308",,,,,"0","2018-09-25 21:57:27","223957"
"A1KY4GGUD89W8Z","cs_wg_rev_conf_pilot1","3J4Q2Z4UTY4OTIFXWF6H5DQKF12WQ5","50","0","TOMATO","6","SMOKER","15","1","1425",,,,,"0","2018-09-25 21:57:29","223958"
"A1PF1TUEBW499M","cs_wg_rev_conf_pilot1","3DH6GAKTYYQ1WFBOYC7IH3N4VCMZY0","34","0","POTATO","5","AVOCADO","6","1","3125",,,,,"1","2018-09-25 21:57:31","223959"
"A2Z2OSTA6PD0E","cs_wg_rev_conf_pilot1","3KXIR214I4HVSXUSKYAXE39QF2P24B","127","0","AIRBAG","6","BICYCLE","5","0","2351",,,,,"0","2018-09-25 21:57:31","223960"
"A1KY4GGUD89W8Z","cs_wg_rev_conf_pilot1","3J4Q2Z4UTY4OTIFXWF6H5DQKF12WQ5","51","0","PICKLE","1","TOMATO","6","1","1881",,,,,"0","2018-09-25 21:57:32","223961"
"A1KY4GGUD89W8Z","cs_wg_rev_conf_pilot1","3J4Q2Z4UTY4OTIFXWF6H5DQKF12WQ5","52","0","SMOKER","15","CHICKEN","8","0","1029",,,,,"0","2018-09-25 21:57:35","223962"
"A2Z2OSTA6PD0E","cs_wg_rev_conf_pilot1","3KXIR214I4HVSXUSKYAXE39QF2P24B","128","0","BICYCLE","5","PEBBLE","5","0","1894",,,,,"0","2018-09-25 21:57:35","223963"
"A1PF1TUEBW499M","cs_wg_rev_conf_pilot1","3DH6GAKTYYQ1WFBOYC7IH3N4VCMZY0","35","0","BANANA","5","AVOCADO","6","1","2673",,,,,"0","2018-09-25 21:57:38","223964"
"A1KY4GGUD89W8Z","cs_wg_rev_conf_pilot1","3J4Q2Z4UTY4OTIFXWF6H5DQKF12WQ5","53","0","PICKLE","1","TOMATO","6","1","2213",,,,,"0","2018-09-25 21:57:39","223965"
"A2Z2OSTA6PD0E","cs_wg_rev_conf_pilot1","3KXIR214I4HVSXUSKYAXE39QF2P24B","129","0","TOMATO","6","SUNBURN","6","0","2446",,,,,"0","2018-09-25 21:57:40","223966"
"A1VL7AAOUPDN72","cs_wg_rev_conf_pilot1","3BGYGHDBBXLLPJF5GKR9LOCSVOT22F","8","0","CHICKEN","15","PICKLE","1","1","10249",,,,,"0","2018-09-25 21:57:40","223967"
"A1KY4GGUD89W8Z","cs_wg_rev_conf_pilot1","3J4Q2Z4UTY4OTIFXWF6H5DQKF12WQ5","54","0","PICKLE","1","SMOKER","15","1","1322",,,,,"0","2018-09-25 21:57:42","223968"
"A2YR5M2I1YCH75","cs_wg_rev_conf_pilot1","3TXMY6UCAEPFFK9SFO6GTJJHNLJQCP","0","0","PICTURE","6","PUMPKIN","1","0","14938",,,,,"1","2018-09-25 21:57:42","223969"
"A2Z2OSTA6PD0E","cs_wg_rev_conf_pilot1","3KXIR214I4HVSXUSKYAXE39QF2P24B","130","0","AIRBAG","6","PUMPKIN","1","0","1174",,,,,"0","2018-09-25 21:57:42","223970"
"A1PF1TUEBW499M","cs_wg_rev_conf_pilot1","3DH6GAKTYYQ1WFBOYC7IH3N4VCMZY0","36","0","ARCADE","7","BANQUET","6","0","2691",,,,,"1","2018-09-25 21:57:42","223971"
"A1KY4GGUD89W8Z","cs_wg_rev_conf_pilot1","3J4Q2Z4UTY4OTIFXWF6H5DQKF12WQ5","55","0","SMOKER","15","PICTURE","6","0","1053",,,,,"0","2018-09-25 21:57:45","223972"
"A2Z2OSTA6PD0E","cs_wg_rev_conf_pilot1","3KXIR214I4HVSXUSKYAXE39QF2P24B","131","0","PEBBLE","5","TOMATO","6","0","1846",,,,,"0","2018-09-25 21:57:46","223973"
"A1PF1TUEBW499M","cs_wg_rev_conf_pilot1","3DH6GAKTYYQ1WFBOYC7IH3N4VCMZY0","37","0","BANQUET","6","AVOCADO","6","0","1690",,,,,"1","2018-09-25 21:57:46","223974"
"A1KY4GGUD89W8Z","cs_wg_rev_conf_pilot1","3J4Q2Z4UTY4OTIFXWF6H5DQKF12WQ5","56","0","PICTURE","6","TOMATO","6","0","2529",,,,,"0","2018-09-25 21:57:49","223975"
"A1PF1TUEBW499M","cs_wg_rev_conf_pilot1","3DH6GAKTYYQ1WFBOYC7IH3N4VCMZY0","38","0","POTATO","5","COWBOY","6","1","2174",,,,,"1","2018-09-25 21:57:50","223976"
"A2YR5M2I1YCH75","cs_wg_rev_conf_pilot1","3TXMY6UCAEPFFK9SFO6GTJJHNLJQCP","1","0","PICTURE","6","MONKEY","15","1","5648",,,,,"1","2018-09-25 21:57:52","223977"
"A1KY4GGUD89W8Z","cs_wg_rev_conf_pilot1","3J4Q2Z4UTY4OTIFXWF6H5DQKF12WQ5","57","0","SMOKER","15","CHICKEN","8","0","902",,,,,"0","2018-09-25 21:57:52","223978"
"A1PF1TUEBW499M","cs_wg_rev_conf_pilot1","3DH6GAKTYYQ1WFBOYC7IH3N4VCMZY0","39","0","COWBOY","6","POTATO","5","0","1166",,,,,"0","2018-09-25 21:57:53","223979"
"A1VL7AAOUPDN72","cs_wg_rev_conf_pilot1","3BGYGHDBBXLLPJF5GKR9LOCSVOT22F","9","0","PENGUIN","6","PICKLE","1","1","9360",,,,,"0","2018-09-25 21:57:54","223980"
"A1KY4GGUD89W8Z","cs_wg_rev_conf_pilot1","3J4Q2Z4UTY4OTIFXWF6H5DQKF12WQ5","58","0","TOMATO","6","SMOKER","15","1","1300",,,,,"0","2018-09-25 21:57:55","223981"
"A1PF1TUEBW499M","cs_wg_rev_conf_pilot1","3DH6GAKTYYQ1WFBOYC7IH3N4VCMZY0","40","0","WIZARD","5","GRENADE","7","1","3643",,,,,"1","2018-09-25 21:57:59","223982"
"A1KY4GGUD89W8Z","cs_wg_rev_conf_pilot1","3J4Q2Z4UTY4OTIFXWF6H5DQKF12WQ5","59","0","PICTURE","6","TOMATO","6","0","1853",,,,,"0","2018-09-25 21:57:59","223983"
"A1PF1TUEBW499M","cs_wg_rev_conf_pilot1","3DH6GAKTYYQ1WFBOYC7IH3N4VCMZY0","41","0","ARCADE","7","COWBOY","6","0","2110",,,,,"1","2018-09-25 21:58:03","223984"
"A1VL7AAOUPDN72","cs_wg_rev_conf_pilot1","3BGYGHDBBXLLPJF5GKR9LOCSVOT22F","10","0","PICKLE","1","CHICKEN","15","0","5121",,,,,"0","2018-09-25 21:58:03","223985"
"A2YR5M2I1YCH75","cs_wg_rev_conf_pilot1","3TXMY6UCAEPFFK9SFO6GTJJHNLJQCP","2","0","COWBOY","6","TURKEY","8","1","9163",,,,,"1","2018-09-25 21:58:05","223986"
"A1PF1TUEBW499M","cs_wg_rev_conf_pilot1","3DH6GAKTYYQ1WFBOYC7IH3N4VCMZY0","42","0","AVOCADO","6","BANANA","5","0","2118",,,,,"1","2018-09-25 21:58:07","223987"
"A1PF1TUEBW499M","cs_wg_rev_conf_pilot1","3DH6GAKTYYQ1WFBOYC7IH3N4VCMZY0","43","0","BLANKET","1","PUMPKIN","15","1","2191",,,,,"1","2018-09-25 21:58:11","223988"
"A1VL7AAOUPDN72","cs_wg_rev_conf_pilot1","3BGYGHDBBXLLPJF5GKR9LOCSVOT22F","11","0","MONKEY","8","CHICKEN","15","1","5527",,,,,"0","2018-09-25 21:58:11","223989"
"A2YR5M2I1YCH75","cs_wg_rev_conf_pilot1","3TXMY6UCAEPFFK9SFO6GTJJHNLJQCP","3","0","MONKEY","15","COWBOY","6","0","6110",,,,,"1","2018-09-25 21:58:15","223990"
"A1PF1TUEBW499M","cs_wg_rev_conf_pilot1","3DH6GAKTYYQ1WFBOYC7IH3N4VCMZY0","44","0","PEBBLE","7","WIZARD","5","0","4264",,,,,"0","2018-09-25 21:58:17","223991"
"A1VL7AAOUPDN72","cs_wg_rev_conf_pilot1","3BGYGHDBBXLLPJF5GKR9LOCSVOT22F","12","0","PENGUIN","6","MONKEY","8","1","5186",,,,,"0","2018-09-25 21:58:20","223992"
"A1PF1TUEBW499M","cs_wg_rev_conf_pilot1","3DH6GAKTYYQ1WFBOYC7IH3N4VCMZY0","45","0","POTATO","5","BANANA","5","0","2524",,,,,"0","2018-09-25 21:58:22","223993"
"A2YR5M2I1YCH75","cs_wg_rev_conf_pilot1","3TXMY6UCAEPFFK9SFO6GTJJHNLJQCP","4","0","MONKEY","15","PUMPKIN","1","0","4825",,,,,"1","2018-09-25 21:58:23","223994"
"A1PF1TUEBW499M","cs_wg_rev_conf_pilot1","3DH6GAKTYYQ1WFBOYC7IH3N4VCMZY0","46","0","CRICKET","8","PEBBLE","7","0","1267",,,,,"0","2018-09-25 21:58:25","223995"
"A1VL7AAOUPDN72","cs_wg_rev_conf_pilot1","3BGYGHDBBXLLPJF5GKR9LOCSVOT22F","13","0","CHICKEN","15","PENGUIN","6","0","4945",,,,,"0","2018-09-25 21:58:28","223996"
"A1PF1TUEBW499M","cs_wg_rev_conf_pilot1","3DH6GAKTYYQ1WFBOYC7IH3N4VCMZY0","47","0","BANQUET","6","ARCADE","7","1","1487",,,,,"0","2018-09-25 21:58:28","223997"
"A1PF1TUEBW499M","cs_wg_rev_conf_pilot1","3DH6GAKTYYQ1WFBOYC7IH3N4VCMZY0","48","0","CRICKET","8","BANANA","5","0","1411",,,,,"0","2018-09-25 21:58:31","223998"
"A2YR5M2I1YCH75","cs_wg_rev_conf_pilot1","3TXMY6UCAEPFFK9SFO6GTJJHNLJQCP","5","0","PUMPKIN","1","PICTURE","6","1","4760",,,,,"1","2018-09-25 21:58:31","223999"
"A1PF1TUEBW499M","cs_wg_rev_conf_pilot1","3DH6GAKTYYQ1WFBOYC7IH3N4VCMZY0","49","0","POTATO","5","ARCADE","7","1","1687",,,,,"0","2018-09-25 21:58:34","224000"
"A1VL7AAOUPDN72","cs_wg_rev_conf_pilot1","3BGYGHDBBXLLPJF5GKR9LOCSVOT22F","14","0","PICKLE","1","CHICKEN","15","1","5670",,,,,"0","2018-09-25 21:58:36","224001"
"A1PF1TUEBW499M","cs_wg_rev_conf_pilot1","3DH6GAKTYYQ1WFBOYC7IH3N4VCMZY0","50","0","GRENADE","7","BANANA","5","0","2127",,,,,"0","2018-09-25 21:58:38","224002"
"A1PF1TUEBW499M","cs_wg_rev_conf_pilot1","3DH6GAKTYYQ1WFBOYC7IH3N4VCMZY0","51","0","CRICKET","8","BLANKET","1","0","1900",,,,,"0","2018-09-25 21:58:42","224003"
"A2YR5M2I1YCH75","cs_wg_rev_conf_pilot1","3TXMY6UCAEPFFK9SFO6GTJJHNLJQCP","6","0","COWBOY","6","PICTURE","6","1","7206",,,,,"1","2018-09-25 21:58:42","224004"
"A1PF1TUEBW499M","cs_wg_rev_conf_pilot1","3DH6GAKTYYQ1WFBOYC7IH3N4VCMZY0","52","0","PUMPKIN","15","ARCADE","7","0","1467",,,,,"0","2018-09-25 21:58:45","224005"
"A1VL7AAOUPDN72","cs_wg_rev_conf_pilot1","3BGYGHDBBXLLPJF5GKR9LOCSVOT22F","15","0","PENGUIN","6","LIZARD","6","0","5499",,,,,"0","2018-09-25 21:58:45","224006"
"A1PF1TUEBW499M","cs_wg_rev_conf_pilot1","3DH6GAKTYYQ1WFBOYC7IH3N4VCMZY0","53","0","BLANKET","1","ARCADE","7","1","1489",,,,,"0","2018-09-25 21:58:48","224007"
"A2YR5M2I1YCH75","cs_wg_rev_conf_pilot1","3TXMY6UCAEPFFK9SFO6GTJJHNLJQCP","7","0","COWBOY","6","MONKEY","15","1","4606",,,,,"1","2018-09-25 21:58:49","224008"
"A1VL7AAOUPDN72","cs_wg_rev_conf_pilot1","3BGYGHDBBXLLPJF5GKR9LOCSVOT22F","16","0","LIZARD","6","PICKLE","1","1","4410",,,,,"0","2018-09-25 21:58:52","224009"
"A1PF1TUEBW499M","cs_wg_rev_conf_pilot1","3DH6GAKTYYQ1WFBOYC7IH3N4VCMZY0","54","0","POTATO","5","BLANKET","1","0","4827",,,,,"0","2018-09-25 21:58:55","224010"
"A2YR5M2I1YCH75","cs_wg_rev_conf_pilot1","3TXMY6UCAEPFFK9SFO6GTJJHNLJQCP","8","0","COWBOY","6","PUMPKIN","1","0","4440",,,,,"1","2018-09-25 21:58:58","224011"
"A1PF1TUEBW499M","cs_wg_rev_conf_pilot1","3DH6GAKTYYQ1WFBOYC7IH3N4VCMZY0","55","0","GRENADE","7","PUMPKIN","15","0","1523",,,,,"0","2018-09-25 21:58:58","224012"
"A1PF1TUEBW499M","cs_wg_rev_conf_pilot1","3DH6GAKTYYQ1WFBOYC7IH3N4VCMZY0","56","0","PUMPKIN","15","BANANA","5","0","806",,,,,"0","2018-09-25 21:59:01","224013"
"A1VL7AAOUPDN72","cs_wg_rev_conf_pilot1","3BGYGHDBBXLLPJF5GKR9LOCSVOT22F","17","0","MONKEY","8","PENGUIN","6","0","5014",,,,,"0","2018-09-25 21:59:01","224014"
"A1PF1TUEBW499M","cs_wg_rev_conf_pilot1","3DH6GAKTYYQ1WFBOYC7IH3N4VCMZY0","57","0","CRICKET","8","POTATO","5","0","1223",,,,,"0","2018-09-25 21:59:03","224015"
"A2YR5M2I1YCH75","cs_wg_rev_conf_pilot1","3TXMY6UCAEPFFK9SFO6GTJJHNLJQCP","9","0","PUMPKIN","1","TURKEY","8","1","4136",,,,,"1","2018-09-25 21:59:05","224016"
"A1PF1TUEBW499M","cs_wg_rev_conf_pilot1","3DH6GAKTYYQ1WFBOYC7IH3N4VCMZY0","58","0","WIZARD","5","PUMPKIN","15","1","1292",,,,,"0","2018-09-25 21:59:06","224017"
"A1VL7AAOUPDN72","cs_wg_rev_conf_pilot1","3BGYGHDBBXLLPJF5GKR9LOCSVOT22F","18","0","CHICKEN","15","MONKEY","8","1","4236",,,,,"0","2018-09-25 21:59:09","224018"
"A1PF1TUEBW499M","cs_wg_rev_conf_pilot1","3DH6GAKTYYQ1WFBOYC7IH3N4VCMZY0","59","0","BANANA","5","POTATO","5","1","2208",,,,,"0","2018-09-25 21:59:10","224019"
"A2YR5M2I1YCH75","cs_wg_rev_conf_pilot1","3TXMY6UCAEPFFK9SFO6GTJJHNLJQCP","10","0","PICTURE","6","PUMPKIN","1","0","3977",,,,,"1","2018-09-25 21:59:12","224020"
"A1PF1TUEBW499M","cs_wg_rev_conf_pilot1","3DH6GAKTYYQ1WFBOYC7IH3N4VCMZY0","60","0","BANQUET","6","COWBOY","6","1","2281",,,,,"0","2018-09-25 21:59:14","224021"
"A1PF1TUEBW499M","cs_wg_rev_conf_pilot1","3DH6GAKTYYQ1WFBOYC7IH3N4VCMZY0","61","0","COWBOY","6","PUMPKIN","15","1","1167",,,,,"0","2018-09-25 21:59:17","224022"
"A1VL7AAOUPDN72","cs_wg_rev_conf_pilot1","3BGYGHDBBXLLPJF5GKR9LOCSVOT22F","19","0","CHICKEN","15","LIZARD","6","1","6786",,,,,"0","2018-09-25 21:59:19","224023"
"A2YR5M2I1YCH75","cs_wg_rev_conf_pilot1","3TXMY6UCAEPFFK9SFO6GTJJHNLJQCP","11","0","TURKEY","8","MONKEY","15","1","4130",,,,,"1","2018-09-25 21:59:20","224024"
"A1PF1TUEBW499M","cs_wg_rev_conf_pilot1","3DH6GAKTYYQ1WFBOYC7IH3N4VCMZY0","62","0","BANANA","5","PUMPKIN","15","1","1619",,,,,"0","2018-09-25 21:59:21","224025"
"A2YR5M2I1YCH75","cs_wg_rev_conf_pilot1","3TXMY6UCAEPFFK9SFO6GTJJHNLJQCP","12","0","TURKEY","8","PICTURE","6","0","3974",,,,,"1","2018-09-25 21:59:27","224026"
"A1VL7AAOUPDN72","cs_wg_rev_conf_pilot1","3BGYGHDBBXLLPJF5GKR9LOCSVOT22F","20","0","MONKEY","8","CHICKEN","15","0","4404",,,,,"0","2018-09-25 21:59:27","224027"
"A1PF1TUEBW499M","cs_wg_rev_conf_pilot1","3DH6GAKTYYQ1WFBOYC7IH3N4VCMZY0","63","0","BANQUET","6","CRICKET","8","1","9608",,,,,"0","2018-09-25 21:59:32","224028"
"A1VL7AAOUPDN72","cs_wg_rev_conf_pilot1","3BGYGHDBBXLLPJF5GKR9LOCSVOT22F","21","0","MONKEY","8","LIZARD","6","1","4512",,,,,"0","2018-09-25 21:59:34","224029"
"A1PF1TUEBW499M","cs_wg_rev_conf_pilot1","3DH6GAKTYYQ1WFBOYC7IH3N4VCMZY0","64","0","BLANKET","1","PEBBLE","7","1","1764",,,,,"0","2018-09-25 21:59:36","224030"
"A2YR5M2I1YCH75","cs_wg_rev_conf_pilot1","3TXMY6UCAEPFFK9SFO6GTJJHNLJQCP","13","0","COWBOY","6","TURKEY","8","1","6208",,,,,"1","2018-09-25 21:59:36","224031"
"A1VL7AAOUPDN72","cs_wg_rev_conf_pilot1","3BGYGHDBBXLLPJF5GKR9LOCSVOT22F","22","0","PICKLE","1","PENGUIN","6","0","4323",,,,,"0","2018-09-25 21:59:41","224032"
"A1PF1TUEBW499M","cs_wg_rev_conf_pilot1","3DH6GAKTYYQ1WFBOYC7IH3N4VCMZY0","65","0","GRENADE","7","WIZARD","5","0","2326",,,,,"0","2018-09-25 21:59:41","224033"
"A2YR5M2I1YCH75","cs_wg_rev_conf_pilot1","3TXMY6UCAEPFFK9SFO6GTJJHNLJQCP","14","0","PUMPKIN","1","MONKEY","15","1","3464",,,,,"1","2018-09-25 21:59:42","224034"
"A1PF1TUEBW499M","cs_wg_rev_conf_pilot1","3DH6GAKTYYQ1WFBOYC7IH3N4VCMZY0","66","0","PUMPKIN","15","BLANKET","1","0","934",,,,,"0","2018-09-25 21:59:44","224035"
"A1PF1TUEBW499M","cs_wg_rev_conf_pilot1","3DH6GAKTYYQ1WFBOYC7IH3N4VCMZY0","67","0","ARCADE","7","PUMPKIN","15","1","1402",,,,,"0","2018-09-25 21:59:47","224036"
"A1VL7AAOUPDN72","cs_wg_rev_conf_pilot1","3BGYGHDBBXLLPJF5GKR9LOCSVOT22F","23","0","PENGUIN","6","MONKEY","8","0","3755",,,,,"0","2018-09-25 21:59:49","224037"
"A3S5UROKNNCNSB","cs_wg_rev_conf_pilot1","3CFJTT4SXTRWM5QDBZTW4V0HV0C7IB","0","0","SQUARE","7","ARCADE","7","0","8190",,,,,"1","2018-09-25 21:59:49","224038"
"A1PF1TUEBW499M","cs_wg_rev_conf_pilot1","3DH6GAKTYYQ1WFBOYC7IH3N4VCMZY0","68","0","WIZARD","5","BLANKET","1","0","1640",,,,,"0","2018-09-25 21:59:50","224039"
"A2YR5M2I1YCH75","cs_wg_rev_conf_pilot1","3TXMY6UCAEPFFK9SFO6GTJJHNLJQCP","15","0","PUMPKIN","1","PICTURE","6","1","4637",,,,,"1","2018-09-25 21:59:50","224040"
"A1PF1TUEBW499M","cs_wg_rev_conf_pilot1","3DH6GAKTYYQ1WFBOYC7IH3N4VCMZY0","69","0","AVOCADO","6","POTATO","5","0","1307",,,,,"0","2018-09-25 21:59:52","224041"
"A1VL7AAOUPDN72","cs_wg_rev_conf_pilot1","3BGYGHDBBXLLPJF5GKR9LOCSVOT22F","24","0","LIZARD","6","MONKEY","8","1","3236",,,,,"0","2018-09-25 21:59:55","224042"
"A1PF1TUEBW499M","cs_wg_rev_conf_pilot1","3DH6GAKTYYQ1WFBOYC7IH3N4VCMZY0","70","0","AVOCADO","6","COWBOY","6","0","1355",,,,,"0","2018-09-25 21:59:55","224043"
"A2YR5M2I1YCH75","cs_wg_rev_conf_pilot1","3TXMY6UCAEPFFK9SFO6GTJJHNLJQCP","16","0","MONKEY","15","PUMPKIN","1","0","3483",,,,,"1","2018-09-25 21:59:56","224044"
"A3S5UROKNNCNSB","cs_wg_rev_conf_pilot1","3CFJTT4SXTRWM5QDBZTW4V0HV0C7IB","1","0","POTATO","5","COMPANY","5","0","5763",,,,,"1","2018-09-25 21:59:57","224045"
"A1PF1TUEBW499M","cs_wg_rev_conf_pilot1","3DH6GAKTYYQ1WFBOYC7IH3N4VCMZY0","71","0","COWBOY","6","BANQUET","6","0","1949",,,,,"0","2018-09-25 21:59:59","224046"
"A1VL7AAOUPDN72","cs_wg_rev_conf_pilot1","3BGYGHDBBXLLPJF5GKR9LOCSVOT22F","25","0","LIZARD","6","PICKLE","1","1","3417",,,,,"0","2018-09-25 22:00:02","224047"
"A1PF1TUEBW499M","cs_wg_rev_conf_pilot1","3DH6GAKTYYQ1WFBOYC7IH3N4VCMZY0","72","0","PUMPKIN","15","PEBBLE","7","0","738",,,,,"0","2018-09-25 22:00:02","224048"
"A3S5UROKNNCNSB","cs_wg_rev_conf_pilot1","3CFJTT4SXTRWM5QDBZTW4V0HV0C7IB","2","0","COSTUME","6","BUCKET","8","1","4649",,,,,"1","2018-09-25 22:00:05","224049"
"A1PF1TUEBW499M","cs_wg_rev_conf_pilot1","3DH6GAKTYYQ1WFBOYC7IH3N4VCMZY0","73","0","AVOCADO","6","WIZARD","5","0","1461",,,,,"0","2018-09-25 22:00:05","224050"
"A2YR5M2I1YCH75","cs_wg_rev_conf_pilot1","3TXMY6UCAEPFFK9SFO6GTJJHNLJQCP","17","0","TURKEY","8","PUMPKIN","1","0","4605",,,,,"1","2018-09-25 22:00:05","224051"
