"subject","version","assignmentId","trial","trial_type","word","value","alt","value2","choice","rt","resp","resp2","resp3","resp4","stamp","id"
"A1BSL1VC7PQR04","cs_wg_full_v4_conf_pilot2","3C44YUNSI1Q4K0ERF7M2DKBPQ3SPDV","0",NULL,"JULY","1","MAY","10","0","2549","0",,,,"2018-07-24 15:36:48","497425"
"A2T11H7YI7QPGD","cs_wg_full_v4_conf_pilot2","3V5Q80FXIXSAA1BOKK5E4YHKOGC23O","0",NULL,"NOVEMBER","6","JANUARY","9","0","3460","0",,,,"2018-07-24 15:36:56","497426"
"A1BSL1VC7PQR04","cs_wg_full_v4_conf_pilot2","3C44YUNSI1Q4K0ERF7M2DKBPQ3SPDV","1",NULL,"SEPTEMBER","12","FEBRUARY","3","0","4441","1",,,,"2018-07-24 15:37:04","497427"
"A2T11H7YI7QPGD","cs_wg_full_v4_conf_pilot2","3V5Q80FXIXSAA1BOKK5E4YHKOGC23O","1",NULL,"MARCH","5","FEBRUARY","2","0","3214","1",,,,"2018-07-24 15:37:13","497428"
"AVUTKN1N2TIF4","cs_wg_full_v4_conf_pilot2","3Q5C1WP23M26ZVGWFZTTEC5ZA6P510","0",NULL,"MAY","10","FEBRUARY","1","0","10737","1",,,,"2018-07-24 15:37:14","497429"
"A1BSL1VC7PQR04","cs_wg_full_v4_conf_pilot2","3C44YUNSI1Q4K0ERF7M2DKBPQ3SPDV","2",NULL,"DECEMBER","7","MAY","10","0","6340","0",,,,"2018-07-24 15:37:22","497430"
"AVUTKN1N2TIF4","cs_wg_full_v4_conf_pilot2","3Q5C1WP23M26ZVGWFZTTEC5ZA6P510","1",NULL,"JULY","9","AUGUST","7","0","1615","1",,,,"2018-07-24 15:37:23","497431"
"A2SNM3YVWIDKLM","cs_wg_full_v4_conf_pilot2","3II4UPYCOJ8PKCF6FK1RDP1ZVZEDQA","0",NULL,"JULY","12","FEBRUARY","2","0","4717","1",,,,"2018-07-24 15:37:24","497432"
"AVUTKN1N2TIF4","cs_wg_full_v4_conf_pilot2","3Q5C1WP23M26ZVGWFZTTEC5ZA6P510","2",NULL,"JUNE","11","SEPTEMBER","3","0","915","1",,,,"2018-07-24 15:37:28","497433"
"A3TLI95L5GOBKG","cs_wg_full_v4_conf_pilot2","3HVVDCPGTET5A32PSKI0VFMNXUJYTH","0",NULL,"JUNE","1","AUGUST","6","0","10766","0",,,,"2018-07-24 15:37:30","497434"
"A3HKMZ9ML9EPUY","cs_wg_full_v4_conf_pilot2","3WR9XG3T63C2EYRYQARSAUQYDWU74U","0",NULL,"JANUARY","7","JUNE","11","0","4403","0",,,,"2018-07-24 15:37:30","497435"
"A2T11H7YI7QPGD","cs_wg_full_v4_conf_pilot2","3V5Q80FXIXSAA1BOKK5E4YHKOGC23O","2",NULL,"JUNE","4","MARCH","5","0","2998","1",,,,"2018-07-24 15:37:31","497436"
"A28MDXDNK6QHMS","cs_wg_full_v4_conf_pilot2","3EWIJTFFVO86OPO7UHIW41S2I7I0ET","0",NULL,"SEPTEMBER","7","NOVEMBER","9","1","11226","1",,,,"2018-07-24 15:37:33","497437"
"A1BSL1VC7PQR04","cs_wg_full_v4_conf_pilot2","3C44YUNSI1Q4K0ERF7M2DKBPQ3SPDV","3",NULL,"MAY","10","AUGUST","8","1","2696","0",,,,"2018-07-24 15:37:34","497438"
"A2W5RJFHZRE8IS","cs_wg_full_v4_conf_pilot2","382M9COHEHGM4B0NSOWGT8G9YWLUEP","0",NULL,"APRIL","11","OCTOBER","10","0","3838","1",,,,"2018-07-24 15:37:35","497439"
"AVUTKN1N2TIF4","cs_wg_full_v4_conf_pilot2","3Q5C1WP23M26ZVGWFZTTEC5ZA6P510","3",NULL,"MAY","10","APRIL","4","0","1477","1",,,,"2018-07-24 15:37:35","497440"
"A2SNM3YVWIDKLM","cs_wg_full_v4_conf_pilot2","3II4UPYCOJ8PKCF6FK1RDP1ZVZEDQA","1",NULL,"JULY","12","JUNE","5","0","2502","1",,,,"2018-07-24 15:37:35","497441"
"A3HKMZ9ML9EPUY","cs_wg_full_v4_conf_pilot2","3WR9XG3T63C2EYRYQARSAUQYDWU74U","1",NULL,"MARCH","10","SEPTEMBER","1","0","2286","1",,,,"2018-07-24 15:37:38","497442"
"A3TLI95L5GOBKG","cs_wg_full_v4_conf_pilot2","3HVVDCPGTET5A32PSKI0VFMNXUJYTH","1",NULL,"NOVEMBER","4","MARCH","8","1","2479","1",,,,"2018-07-24 15:37:39","497443"
"A2W5RJFHZRE8IS","cs_wg_full_v4_conf_pilot2","382M9COHEHGM4B0NSOWGT8G9YWLUEP","1",NULL,"SEPTEMBER","5","JULY","12","1","3185","1",,,,"2018-07-24 15:37:44","497444"
"A3HKMZ9ML9EPUY","cs_wg_full_v4_conf_pilot2","3WR9XG3T63C2EYRYQARSAUQYDWU74U","2",NULL,"AUGUST","8","JANUARY","7","1","1800","0",,,,"2018-07-24 15:37:45","497445"
"A2SNM3YVWIDKLM","cs_wg_full_v4_conf_pilot2","3II4UPYCOJ8PKCF6FK1RDP1ZVZEDQA","2",NULL,"JULY","12","AUGUST","4","1","3328","0",,,,"2018-07-24 15:37:45","497446"
"AVUTKN1N2TIF4","cs_wg_full_v4_conf_pilot2","3Q5C1WP23M26ZVGWFZTTEC5ZA6P510","4",NULL,"AUGUST","7","NOVEMBER","6","0","7398","1",,,,"2018-07-24 15:37:47","497447"
"A3TLI95L5GOBKG","cs_wg_full_v4_conf_pilot2","3HVVDCPGTET5A32PSKI0VFMNXUJYTH","2",NULL,"DECEMBER","5","MAY","11","0","3466","0",,,,"2018-07-24 15:37:47","497448"
"A2T11H7YI7QPGD","cs_wg_full_v4_conf_pilot2","3V5Q80FXIXSAA1BOKK5E4YHKOGC23O","3",NULL,"APRIL","8","OCTOBER","1","0","1927","1",,,,"2018-07-24 15:37:48","497449"
"A28MDXDNK6QHMS","cs_wg_full_v4_conf_pilot2","3EWIJTFFVO86OPO7UHIW41S2I7I0ET","1",NULL,"NOVEMBER","9","MAY","11","0","4634","0",,,,"2018-07-24 15:37:48","497450"
"A1BSL1VC7PQR04","cs_wg_full_v4_conf_pilot2","3C44YUNSI1Q4K0ERF7M2DKBPQ3SPDV","4",NULL,"AUGUST","8","JANUARY","11","0","6140","0",,,,"2018-07-24 15:37:50","497451"
"A3HKMZ9ML9EPUY","cs_wg_full_v4_conf_pilot2","3WR9XG3T63C2EYRYQARSAUQYDWU74U","3",NULL,"SEPTEMBER","1","FEBRUARY","6","0","2014","0",,,,"2018-07-24 15:37:52","497452"
"A3TLI95L5GOBKG","cs_wg_full_v4_conf_pilot2","3HVVDCPGTET5A32PSKI0VFMNXUJYTH","3",NULL,"AUGUST","6","OCTOBER","2","1","767","0",,,,"2018-07-24 15:37:53","497453"
"AVUTKN1N2TIF4","cs_wg_full_v4_conf_pilot2","3Q5C1WP23M26ZVGWFZTTEC5ZA6P510","5",NULL,"FEBRUARY","1","JULY","9","1","2305","1",,,,"2018-07-24 15:37:54","497454"
"A2W5RJFHZRE8IS","cs_wg_full_v4_conf_pilot2","382M9COHEHGM4B0NSOWGT8G9YWLUEP","2",NULL,"NOVEMBER","6","DECEMBER","7","0","4322","0",,,,"2018-07-24 15:37:54","497455"
"A2SNM3YVWIDKLM","cs_wg_full_v4_conf_pilot2","3II4UPYCOJ8PKCF6FK1RDP1ZVZEDQA","3",NULL,"MAY","3","APRIL","6","0","2223","0",,,,"2018-07-24 15:37:56","497456"
"A3HKMZ9ML9EPUY","cs_wg_full_v4_conf_pilot2","3WR9XG3T63C2EYRYQARSAUQYDWU74U","4",NULL,"DECEMBER","2","JULY","5","0","1596","0",,,,"2018-07-24 15:37:59","497457"
"A3TLI95L5GOBKG","cs_wg_full_v4_conf_pilot2","3HVVDCPGTET5A32PSKI0VFMNXUJYTH","4",NULL,"NOVEMBER","4","AUGUST","6","0","1192","0",,,,"2018-07-24 15:37:59","497458"
"A28MDXDNK6QHMS","cs_wg_full_v4_conf_pilot2","3EWIJTFFVO86OPO7UHIW41S2I7I0ET","2",NULL,"OCTOBER","5","NOVEMBER","9","1","2533","1",,,,"2018-07-24 15:37:59","497459"
"AVUTKN1N2TIF4","cs_wg_full_v4_conf_pilot2","3Q5C1WP23M26ZVGWFZTTEC5ZA6P510","6",NULL,"DECEMBER","2","AUGUST","7","1","1533","1",,,,"2018-07-24 15:38:01","497460"
"A1BSL1VC7PQR04","cs_wg_full_v4_conf_pilot2","3C44YUNSI1Q4K0ERF7M2DKBPQ3SPDV","5",NULL,"JUNE","6","NOVEMBER","9","0","2451","0",,,,"2018-07-24 15:38:04","497461"
"A3HKMZ9ML9EPUY","cs_wg_full_v4_conf_pilot2","3WR9XG3T63C2EYRYQARSAUQYDWU74U","5",NULL,"OCTOBER","4","JUNE","11","1","1282","1",,,,"2018-07-24 15:38:05","497462"
"A2W5RJFHZRE8IS","cs_wg_full_v4_conf_pilot2","382M9COHEHGM4B0NSOWGT8G9YWLUEP","3",NULL,"JUNE","8","OCTOBER","10","1","3882","1",,,,"2018-07-24 15:38:06","497463"
"A3TLI95L5GOBKG","cs_wg_full_v4_conf_pilot2","3HVVDCPGTET5A32PSKI0VFMNXUJYTH","5",NULL,"OCTOBER","2","JANUARY","12","1","1876","1",,,,"2018-07-24 15:38:06","497464"
"AVUTKN1N2TIF4","cs_wg_full_v4_conf_pilot2","3Q5C1WP23M26ZVGWFZTTEC5ZA6P510","7",NULL,"SEPTEMBER","3","AUGUST","7","1","1157","1",,,,"2018-07-24 15:38:07","497465"
"A2T11H7YI7QPGD","cs_wg_full_v4_conf_pilot2","3V5Q80FXIXSAA1BOKK5E4YHKOGC23O","4",NULL,"MARCH","5","AUGUST","12","1","7477","1",,,,"2018-07-24 15:38:07","497466"
"A2SNM3YVWIDKLM","cs_wg_full_v4_conf_pilot2","3II4UPYCOJ8PKCF6FK1RDP1ZVZEDQA","4",NULL,"JUNE","5","MARCH","1","1","5679","0",,,,"2018-07-24 15:38:07","497467"
"A3HKMZ9ML9EPUY","cs_wg_full_v4_conf_pilot2","3WR9XG3T63C2EYRYQARSAUQYDWU74U","6",NULL,"JULY","5","APRIL","3","0","1166","1",,,,"2018-07-24 15:38:10","497468"
"A3TLI95L5GOBKG","cs_wg_full_v4_conf_pilot2","3HVVDCPGTET5A32PSKI0VFMNXUJYTH","6",NULL,"JANUARY","12","DECEMBER","5","0","1938","1",,,,"2018-07-24 15:38:14","497469"
"AVUTKN1N2TIF4","cs_wg_full_v4_conf_pilot2","3Q5C1WP23M26ZVGWFZTTEC5ZA6P510","8",NULL,"JANUARY","8","APRIL","4","1","2130","0",,,,"2018-07-24 15:38:14","497470"
"A1BSL1VC7PQR04","cs_wg_full_v4_conf_pilot2","3C44YUNSI1Q4K0ERF7M2DKBPQ3SPDV","6",NULL,"NOVEMBER","9","SEPTEMBER","12","1","5250","1",,,,"2018-07-24 15:38:15","497471"
"A2W5RJFHZRE8IS","cs_wg_full_v4_conf_pilot2","382M9COHEHGM4B0NSOWGT8G9YWLUEP","4",NULL,"JANUARY","4","NOVEMBER","6","0","2551","1",,,,"2018-07-24 15:38:17","497472"
"A28MDXDNK6QHMS","cs_wg_full_v4_conf_pilot2","3EWIJTFFVO86OPO7UHIW41S2I7I0ET","3",NULL,"DECEMBER","12","JULY","4","1","3056","0",,,,"2018-07-24 15:38:17","497473"
"A2SNM3YVWIDKLM","cs_wg_full_v4_conf_pilot2","3II4UPYCOJ8PKCF6FK1RDP1ZVZEDQA","5",NULL,"MARCH","1","AUGUST","4","1","4598","1",,,,"2018-07-24 15:38:18","497474"
"A3HKMZ9ML9EPUY","cs_wg_full_v4_conf_pilot2","3WR9XG3T63C2EYRYQARSAUQYDWU74U","7",NULL,"JANUARY","7","DECEMBER","2","1","2473","0",,,,"2018-07-24 15:38:18","497475"
"AVUTKN1N2TIF4","cs_wg_full_v4_conf_pilot2","3Q5C1WP23M26ZVGWFZTTEC5ZA6P510","9",NULL,"AUGUST","7","MARCH","12","0","2523","0",,,,"2018-07-24 15:38:21","497476"
"A2JFNQK7HIFFC9","cs_wg_full_v4_conf_pilot2","3JRJSWSMQHM25HN4D40F6ZQ9LJ1E31","0",NULL,"AUGUST","7","SEPTEMBER","2","0","10509","1",,,,"2018-07-24 15:38:22","497477"
"A3TLI95L5GOBKG","cs_wg_full_v4_conf_pilot2","3HVVDCPGTET5A32PSKI0VFMNXUJYTH","7",NULL,"AUGUST","6","NOVEMBER","4","0","3409","1",,,,"2018-07-24 15:38:22","497478"
"A2T11H7YI7QPGD","cs_wg_full_v4_conf_pilot2","3V5Q80FXIXSAA1BOKK5E4YHKOGC23O","5",NULL,"JUNE","4","APRIL","8","1","7678","1",,,,"2018-07-24 15:38:23","497479"
"A2W5RJFHZRE8IS","cs_wg_full_v4_conf_pilot2","382M9COHEHGM4B0NSOWGT8G9YWLUEP","5",NULL,"OCTOBER","10","AUGUST","2","1","1998","0",,,,"2018-07-24 15:38:24","497480"
"A2SNM3YVWIDKLM","cs_wg_full_v4_conf_pilot2","3II4UPYCOJ8PKCF6FK1RDP1ZVZEDQA","6",NULL,"SEPTEMBER","9","JULY","12","1","2847","1",,,,"2018-07-24 15:38:27","497481"
"AVUTKN1N2TIF4","cs_wg_full_v4_conf_pilot2","3Q5C1WP23M26ZVGWFZTTEC5ZA6P510","10",NULL,"SEPTEMBER","3","JUNE","11","0","971","0",,,,"2018-07-24 15:38:28","497482"
"A3HKMZ9ML9EPUY","cs_wg_full_v4_conf_pilot2","3WR9XG3T63C2EYRYQARSAUQYDWU74U","8",NULL,"JUNE","11","JULY","5","1","1909","0",,,,"2018-07-24 15:38:28","497483"
"A2W5RJFHZRE8IS","cs_wg_full_v4_conf_pilot2","382M9COHEHGM4B0NSOWGT8G9YWLUEP","6",NULL,"SEPTEMBER","5","JUNE","8","0","754","0",,,,"2018-07-24 15:38:29","497484"
"A28MDXDNK6QHMS","cs_wg_full_v4_conf_pilot2","3EWIJTFFVO86OPO7UHIW41S2I7I0ET","4",NULL,"SEPTEMBER","7","AUGUST","6","0","2541","1",,,,"2018-07-24 15:38:30","497485"
"A1BSL1VC7PQR04","cs_wg_full_v4_conf_pilot2","3C44YUNSI1Q4K0ERF7M2DKBPQ3SPDV","7",NULL,"FEBRUARY","3","MAY","10","1","5971","1",,,,"2018-07-24 15:38:31","497486"
"A3TLI95L5GOBKG","cs_wg_full_v4_conf_pilot2","3HVVDCPGTET5A32PSKI0VFMNXUJYTH","8",NULL,"MARCH","8","JANUARY","12","1","1662","1",,,,"2018-07-24 15:38:31","497487"
"A3HKMZ9ML9EPUY","cs_wg_full_v4_conf_pilot2","3WR9XG3T63C2EYRYQARSAUQYDWU74U","9",NULL,"FEBRUARY","6","OCTOBER","4","0","782","1",,,,"2018-07-24 15:38:33","497488"
"A2JFNQK7HIFFC9","cs_wg_full_v4_conf_pilot2","3JRJSWSMQHM25HN4D40F6ZQ9LJ1E31","1",NULL,"OCTOBER","11","AUGUST","7","0","3044","1",,,,"2018-07-24 15:38:33","497489"
"A2SNM3YVWIDKLM","cs_wg_full_v4_conf_pilot2","3II4UPYCOJ8PKCF6FK1RDP1ZVZEDQA","7",NULL,"SEPTEMBER","9","MARCH","1","0","2415","1",,,,"2018-07-24 15:38:34","497490"
"A1TD4CM1NKIQ65","cs_wg_full_v4_conf_pilot2","3URFVVM165JKF6RJOBATEIHRM2UUZV","0",NULL,"JUNE","4","OCTOBER","8","0","3388","0",,,,"2018-07-24 15:38:35","497491"
"AVUTKN1N2TIF4","cs_wg_full_v4_conf_pilot2","3Q5C1WP23M26ZVGWFZTTEC5ZA6P510","11",NULL,"JANUARY","8","SEPTEMBER","3","0","2369","1",,,,"2018-07-24 15:38:35","497492"
"A2W5RJFHZRE8IS","cs_wg_full_v4_conf_pilot2","382M9COHEHGM4B0NSOWGT8G9YWLUEP","7",NULL,"JULY","12","SEPTEMBER","5","0","1659","1",,,,"2018-07-24 15:38:36","497493"
"A28MDXDNK6QHMS","cs_wg_full_v4_conf_pilot2","3EWIJTFFVO86OPO7UHIW41S2I7I0ET","5",NULL,"JANUARY","8","FEBRUARY","10","1","1973","1",,,,"2018-07-24 15:38:38","497494"
"A1BSL1VC7PQR04","cs_wg_full_v4_conf_pilot2","3C44YUNSI1Q4K0ERF7M2DKBPQ3SPDV","8",NULL,"FEBRUARY","3","JANUARY","11","1","2511","1",,,,"2018-07-24 15:38:39","497495"
"A3HKMZ9ML9EPUY","cs_wg_full_v4_conf_pilot2","3WR9XG3T63C2EYRYQARSAUQYDWU74U","10",NULL,"JULY","5","NOVEMBER","12","0","1865","0",,,,"2018-07-24 15:38:40","497496"
"A2T11H7YI7QPGD","cs_wg_full_v4_conf_pilot2","3V5Q80FXIXSAA1BOKK5E4YHKOGC23O","6",NULL,"SEPTEMBER","10","MARCH","5","0","5839","1",,,,"2018-07-24 15:38:40","497497"
"A3TLI95L5GOBKG","cs_wg_full_v4_conf_pilot2","3HVVDCPGTET5A32PSKI0VFMNXUJYTH","9",NULL,"FEBRUARY","9","JUNE","1","0","4006","1",,,,"2018-07-24 15:38:41","497498"
"A2W5RJFHZRE8IS","cs_wg_full_v4_conf_pilot2","382M9COHEHGM4B0NSOWGT8G9YWLUEP","8",NULL,"MARCH","1","MAY","3","0","1148","0",,,,"2018-07-24 15:38:42","497499"
"A2SNM3YVWIDKLM","cs_wg_full_v4_conf_pilot2","3II4UPYCOJ8PKCF6FK1RDP1ZVZEDQA","8",NULL,"OCTOBER","10","JULY","12","1","2056","1",,,,"2018-07-24 15:38:42","497500"
"AVUTKN1N2TIF4","cs_wg_full_v4_conf_pilot2","3Q5C1WP23M26ZVGWFZTTEC5ZA6P510","12",NULL,"JUNE","11","DECEMBER","2","0","2856","1",,,,"2018-07-24 15:38:43","497501"
"A1TD4CM1NKIQ65","cs_wg_full_v4_conf_pilot2","3URFVVM165JKF6RJOBATEIHRM2UUZV","1",NULL,"DECEMBER","1","FEBRUARY","12","1","1846","1",,,,"2018-07-24 15:38:46","497502"
"A2JFNQK7HIFFC9","cs_wg_full_v4_conf_pilot2","3JRJSWSMQHM25HN4D40F6ZQ9LJ1E31","2",NULL,"MAY","10","SEPTEMBER","2","0","3265","1",,,,"2018-07-24 15:38:46","497503"
"A3HKMZ9ML9EPUY","cs_wg_full_v4_conf_pilot2","3WR9XG3T63C2EYRYQARSAUQYDWU74U","11",NULL,"JULY","5","MARCH","10","0","1157","0",,,,"2018-07-24 15:38:47","497504"
"AVUTKN1N2TIF4","cs_wg_full_v4_conf_pilot2","3Q5C1WP23M26ZVGWFZTTEC5ZA6P510","13",NULL,"NOVEMBER","6","DECEMBER","2","0","1383","1",,,,"2018-07-24 15:38:49","497505"
"A2W5RJFHZRE8IS","cs_wg_full_v4_conf_pilot2","382M9COHEHGM4B0NSOWGT8G9YWLUEP","9",NULL,"JUNE","8","JANUARY","4","0","1535","1",,,,"2018-07-24 15:38:49","497506"
"A1BSL1VC7PQR04","cs_wg_full_v4_conf_pilot2","3C44YUNSI1Q4K0ERF7M2DKBPQ3SPDV","9",NULL,"JANUARY","11","AUGUST","8","0","6203","1",,,,"2018-07-24 15:38:50","497507"
"A2SNM3YVWIDKLM","cs_wg_full_v4_conf_pilot2","3II4UPYCOJ8PKCF6FK1RDP1ZVZEDQA","9",NULL,"OCTOBER","10","SEPTEMBER","9","0","1831","1",,,,"2018-07-24 15:38:51","497508"
"A28MDXDNK6QHMS","cs_wg_full_v4_conf_pilot2","3EWIJTFFVO86OPO7UHIW41S2I7I0ET","6",NULL,"SEPTEMBER","7","OCTOBER","5","1","1770","0",,,,"2018-07-24 15:38:51","497509"
"A3HKMZ9ML9EPUY","cs_wg_full_v4_conf_pilot2","3WR9XG3T63C2EYRYQARSAUQYDWU74U","12",NULL,"FEBRUARY","6","NOVEMBER","12","1","1513","1",,,,"2018-07-24 15:38:54","497510"
"A2W5RJFHZRE8IS","cs_wg_full_v4_conf_pilot2","382M9COHEHGM4B0NSOWGT8G9YWLUEP","10",NULL,"DECEMBER","7","NOVEMBER","6","0","1495","1",,,,"2018-07-24 15:38:55","497511"
"AVUTKN1N2TIF4","cs_wg_full_v4_conf_pilot2","3Q5C1WP23M26ZVGWFZTTEC5ZA6P510","14",NULL,"MARCH","12","NOVEMBER","6","0","2552","1",,,,"2018-07-24 15:38:56","497512"
"A1TD4CM1NKIQ65","cs_wg_full_v4_conf_pilot2","3URFVVM165JKF6RJOBATEIHRM2UUZV","2",NULL,"JULY","11","AUGUST","7","0","1606","1",,,,"2018-07-24 15:38:56","497513"
"A2T11H7YI7QPGD","cs_wg_full_v4_conf_pilot2","3V5Q80FXIXSAA1BOKK5E4YHKOGC23O","7",NULL,"NOVEMBER","6","FEBRUARY","2","0","8919","1",,,,"2018-07-24 15:38:56","497514"
"A3TLI95L5GOBKG","cs_wg_full_v4_conf_pilot2","3HVVDCPGTET5A32PSKI0VFMNXUJYTH","10",NULL,"DECEMBER","5","OCTOBER","2","1","5264","0",,,,"2018-07-24 15:38:56","497515"
"A3SJA2R2M8OHYL","cs_wg_full_v4_conf_pilot2","3OVHNO1VE62YY4GX2GK44ID302ZDZ4","0",NULL,"NOVEMBER","7","OCTOBER","12","0","8885","0",,,,"2018-07-24 15:38:57","497516"
"A1BSL1VC7PQR04","cs_wg_full_v4_conf_pilot2","3C44YUNSI1Q4K0ERF7M2DKBPQ3SPDV","10",NULL,"NOVEMBER","9","MAY","10","0","2067","0",,,,"2018-07-24 15:38:57","497517"
"A28MDXDNK6QHMS","cs_wg_full_v4_conf_pilot2","3EWIJTFFVO86OPO7UHIW41S2I7I0ET","7",NULL,"MARCH","1","JUNE","3","0","2031","1",,,,"2018-07-24 15:39:00","497518"
"A2SNM3YVWIDKLM","cs_wg_full_v4_conf_pilot2","3II4UPYCOJ8PKCF6FK1RDP1ZVZEDQA","10",NULL,"MAY","3","NOVEMBER","7","0","3206","0",,,,"2018-07-24 15:39:00","497519"
"AVUTKN1N2TIF4","cs_wg_full_v4_conf_pilot2","3Q5C1WP23M26ZVGWFZTTEC5ZA6P510","15",NULL,"JULY","9","APRIL","4","0","1557","1",,,,"2018-07-24 15:39:02","497520"
"A3HKMZ9ML9EPUY","cs_wg_full_v4_conf_pilot2","3WR9XG3T63C2EYRYQARSAUQYDWU74U","13",NULL,"FEBRUARY","6","JANUARY","7","1","3870","1",,,,"2018-07-24 15:39:02","497521"
"A2W5RJFHZRE8IS","cs_wg_full_v4_conf_pilot2","382M9COHEHGM4B0NSOWGT8G9YWLUEP","11",NULL,"OCTOBER","10","APRIL","11","0","1405","0",,,,"2018-07-24 15:39:03","497522"
"A2JFNQK7HIFFC9","cs_wg_full_v4_conf_pilot2","3JRJSWSMQHM25HN4D40F6ZQ9LJ1E31","3",NULL,"MARCH","8","JANUARY","12","1","9693","1",,,,"2018-07-24 15:39:04","497523"
"A2T11H7YI7QPGD","cs_wg_full_v4_conf_pilot2","3V5Q80FXIXSAA1BOKK5E4YHKOGC23O","8",NULL,"MARCH","5","JUNE","4","0","3644","1",,,,"2018-07-24 15:39:04","497524"
"A3TLI95L5GOBKG","cs_wg_full_v4_conf_pilot2","3HVVDCPGTET5A32PSKI0VFMNXUJYTH","11",NULL,"SEPTEMBER","3","NOVEMBER","4","0","1581","0",,,,"2018-07-24 15:39:06","497525"
"AFMAV43Q6NQPG","cs_wg_full_v4_conf_pilot2","3WSELTNVR334EL4MCE4KST4GU3ITA4","0",NULL,"JUNE","9","FEBRUARY","1","1","8219","0",,,,"2018-07-24 15:39:07","497526"
"A2W5RJFHZRE8IS","cs_wg_full_v4_conf_pilot2","382M9COHEHGM4B0NSOWGT8G9YWLUEP","12",NULL,"JULY","12","MARCH","1","0","812","1",,,,"2018-07-24 15:39:08","497527"
"AVUTKN1N2TIF4","cs_wg_full_v4_conf_pilot2","3Q5C1WP23M26ZVGWFZTTEC5ZA6P510","16",NULL,"MAY","10","SEPTEMBER","3","0","2105","1",,,,"2018-07-24 15:39:08","497528"
"A3HKMZ9ML9EPUY","cs_wg_full_v4_conf_pilot2","3WR9XG3T63C2EYRYQARSAUQYDWU74U","14",NULL,"MAY","9","MARCH","10","1","1527","1",,,,"2018-07-24 15:39:09","497529"
"A28MDXDNK6QHMS","cs_wg_full_v4_conf_pilot2","3EWIJTFFVO86OPO7UHIW41S2I7I0ET","8",NULL,"JANUARY","8","DECEMBER","12","1","3406","1",,,,"2018-07-24 15:39:10","497530"
"A2SNM3YVWIDKLM","cs_wg_full_v4_conf_pilot2","3II4UPYCOJ8PKCF6FK1RDP1ZVZEDQA","11",NULL,"JUNE","5","FEBRUARY","2","1","4847","0",,,,"2018-07-24 15:39:10","497531"
"A1BSL1VC7PQR04","cs_wg_full_v4_conf_pilot2","3C44YUNSI1Q4K0ERF7M2DKBPQ3SPDV","11",NULL,"MARCH","2","APRIL","5","0","1303","0",,,,"2018-07-24 15:39:10","497532"
"A3SJA2R2M8OHYL","cs_wg_full_v4_conf_pilot2","3OVHNO1VE62YY4GX2GK44ID302ZDZ4","1",NULL,"JANUARY","4","MAY","1","1","3390","0",,,,"2018-07-24 15:39:13","497533"
"A3TLI95L5GOBKG","cs_wg_full_v4_conf_pilot2","3HVVDCPGTET5A32PSKI0VFMNXUJYTH","12",NULL,"MARCH","8","FEBRUARY","9","1","2313","1",,,,"2018-07-24 15:39:13","497534"
"AVUTKN1N2TIF4","cs_wg_full_v4_conf_pilot2","3Q5C1WP23M26ZVGWFZTTEC5ZA6P510","17",NULL,"MAY","10","NOVEMBER","6","0","888","1",,,,"2018-07-24 15:39:14","497535"
"A2JFNQK7HIFFC9","cs_wg_full_v4_conf_pilot2","3JRJSWSMQHM25HN4D40F6ZQ9LJ1E31","4",NULL,"JULY","3","JUNE","5","1","4479","1",,,,"2018-07-24 15:39:14","497536"
"A2W5RJFHZRE8IS","cs_wg_full_v4_conf_pilot2","382M9COHEHGM4B0NSOWGT8G9YWLUEP","13",NULL,"DECEMBER","7","APRIL","11","0","1746","0",,,,"2018-07-24 15:39:14","497537"
"A28MDXDNK6QHMS","cs_wg_full_v4_conf_pilot2","3EWIJTFFVO86OPO7UHIW41S2I7I0ET","9",NULL,"SEPTEMBER","7","DECEMBER","12","1","1478","1",,,,"2018-07-24 15:39:16","497538"
"A1BSL1VC7PQR04","cs_wg_full_v4_conf_pilot2","3C44YUNSI1Q4K0ERF7M2DKBPQ3SPDV","12",NULL,"FEBRUARY","3","MARCH","2","0","2067","1",,,,"2018-07-24 15:39:19","497539"
"AFMAV43Q6NQPG","cs_wg_full_v4_conf_pilot2","3WSELTNVR334EL4MCE4KST4GU3ITA4","1",NULL,"JULY","10","AUGUST","2","1","3583","0",,,,"2018-07-24 15:39:19","497540"
"AVUTKN1N2TIF4","cs_wg_full_v4_conf_pilot2","3Q5C1WP23M26ZVGWFZTTEC5ZA6P510","18",NULL,"JULY","9","SEPTEMBER","3","0","1539","1",,,,"2018-07-24 15:39:20","497541"
"A3HKMZ9ML9EPUY","cs_wg_full_v4_conf_pilot2","3WR9XG3T63C2EYRYQARSAUQYDWU74U","15",NULL,"SEPTEMBER","1","JUNE","11","0","5647","0",,,,"2018-07-24 15:39:20","497542"
"A2W5RJFHZRE8IS","cs_wg_full_v4_conf_pilot2","382M9COHEHGM4B0NSOWGT8G9YWLUEP","14",NULL,"JANUARY","4","AUGUST","2","1","1065","0",,,,"2018-07-24 15:39:20","497543"
"A2SNM3YVWIDKLM","cs_wg_full_v4_conf_pilot2","3II4UPYCOJ8PKCF6FK1RDP1ZVZEDQA","12",NULL,"FEBRUARY","2","MARCH","1","1","5208","0",,,,"2018-07-24 15:39:20","497544"
"A3TLI95L5GOBKG","cs_wg_full_v4_conf_pilot2","3HVVDCPGTET5A32PSKI0VFMNXUJYTH","13",NULL,"AUGUST","6","DECEMBER","5","0","3828","1",,,,"2018-07-24 15:39:23","497545"
"A2T11H7YI7QPGD","cs_wg_full_v4_conf_pilot2","3V5Q80FXIXSAA1BOKK5E4YHKOGC23O","9",NULL,"JULY","7","JUNE","4","0","4562","1",,,,"2018-07-24 15:39:23","497546"
"A3HKMZ9ML9EPUY","cs_wg_full_v4_conf_pilot2","3WR9XG3T63C2EYRYQARSAUQYDWU74U","16",NULL,"SEPTEMBER","1","MAY","9","1","986","1",,,,"2018-07-24 15:39:25","497547"
"A2W5RJFHZRE8IS","cs_wg_full_v4_conf_pilot2","382M9COHEHGM4B0NSOWGT8G9YWLUEP","15",NULL,"FEBRUARY","9","MAY","3","0","975","1",,,,"2018-07-24 15:39:26","497548"
"AVUTKN1N2TIF4","cs_wg_full_v4_conf_pilot2","3Q5C1WP23M26ZVGWFZTTEC5ZA6P510","19",NULL,"FEBRUARY","1","AUGUST","7","0","2003","0",,,,"2018-07-24 15:39:27","497549"
"A1TD4CM1NKIQ65","cs_wg_full_v4_conf_pilot2","3URFVVM165JKF6RJOBATEIHRM2UUZV","3",NULL,"JULY","11","SEPTEMBER","10","1","1079","0",,,,"2018-07-24 15:39:27","497550"
"A28MDXDNK6QHMS","cs_wg_full_v4_conf_pilot2","3EWIJTFFVO86OPO7UHIW41S2I7I0ET","10",NULL,"SEPTEMBER","7","MAY","11","0","6216","0",,,,"2018-07-24 15:39:28","497551"
"A2JFNQK7HIFFC9","cs_wg_full_v4_conf_pilot2","3JRJSWSMQHM25HN4D40F6ZQ9LJ1E31","5",NULL,"MARCH","8","AUGUST","7","0","7356","1",,,,"2018-07-24 15:39:28","497552"
"A3TLI95L5GOBKG","cs_wg_full_v4_conf_pilot2","3HVVDCPGTET5A32PSKI0VFMNXUJYTH","14",NULL,"APRIL","10","DECEMBER","5","0","1613","1",,,,"2018-07-24 15:39:29","497553"
"A2SNM3YVWIDKLM","cs_wg_full_v4_conf_pilot2","3II4UPYCOJ8PKCF6FK1RDP1ZVZEDQA","13",NULL,"FEBRUARY","2","APRIL","6","1","4118","1",,,,"2018-07-24 15:39:30","497554"
"A1BSL1VC7PQR04","cs_wg_full_v4_conf_pilot2","3C44YUNSI1Q4K0ERF7M2DKBPQ3SPDV","13",NULL,"DECEMBER","7","OCTOBER","4","1","3114","0",,,,"2018-07-24 15:39:31","497555"
"A2W5RJFHZRE8IS","cs_wg_full_v4_conf_pilot2","382M9COHEHGM4B0NSOWGT8G9YWLUEP","16",NULL,"APRIL","11","DECEMBER","7","0","3287","1",,,,"2018-07-24 15:39:33","497556"
"A3HKMZ9ML9EPUY","cs_wg_full_v4_conf_pilot2","3WR9XG3T63C2EYRYQARSAUQYDWU74U","17",NULL,"FEBRUARY","6","JULY","5","1","3849","0",,,,"2018-07-24 15:39:34","497557"
"A2T11H7YI7QPGD","cs_wg_full_v4_conf_pilot2","3V5Q80FXIXSAA1BOKK5E4YHKOGC23O","10",NULL,"AUGUST","12","MAY","3","0","5444","1",,,,"2018-07-24 15:39:35","497558"
"AVUTKN1N2TIF4","cs_wg_full_v4_conf_pilot2","3Q5C1WP23M26ZVGWFZTTEC5ZA6P510","20",NULL,"APRIL","4","AUGUST","7","0","2070","0",,,,"2018-07-24 15:39:35","497559"
"A28MDXDNK6QHMS","cs_wg_full_v4_conf_pilot2","3EWIJTFFVO86OPO7UHIW41S2I7I0ET","11",NULL,"NOVEMBER","9","FEBRUARY","10","0","2866","0",,,,"2018-07-24 15:39:36","497560"
"A3TLI95L5GOBKG","cs_wg_full_v4_conf_pilot2","3HVVDCPGTET5A32PSKI0VFMNXUJYTH","15",NULL,"JANUARY","12","APRIL","10","1","3294","0",,,,"2018-07-24 15:39:38","497561"
"A2W5RJFHZRE8IS","cs_wg_full_v4_conf_pilot2","382M9COHEHGM4B0NSOWGT8G9YWLUEP","17",NULL,"MARCH","1","APRIL","11","1","1885","1",,,,"2018-07-24 15:39:39","497562"
"A1TD4CM1NKIQ65","cs_wg_full_v4_conf_pilot2","3URFVVM165JKF6RJOBATEIHRM2UUZV","4",NULL,"DECEMBER","1","JUNE","4","0","2714","0",,,,"2018-07-24 15:39:39","497563"
"A2JFNQK7HIFFC9","cs_wg_full_v4_conf_pilot2","3JRJSWSMQHM25HN4D40F6ZQ9LJ1E31","6",NULL,"JUNE","5","NOVEMBER","9","1","3697","1",,,,"2018-07-24 15:39:39","497564"
"A2SNM3YVWIDKLM","cs_wg_full_v4_conf_pilot2","3II4UPYCOJ8PKCF6FK1RDP1ZVZEDQA","14",NULL,"AUGUST","4","JUNE","5","0","3095","0",,,,"2018-07-24 15:39:40","497565"
"AVUTKN1N2TIF4","cs_wg_full_v4_conf_pilot2","3Q5C1WP23M26ZVGWFZTTEC5ZA6P510","21",NULL,"JUNE","11","NOVEMBER","6","0","1114","1",,,,"2018-07-24 15:39:40","497566"
"A1BSL1VC7PQR04","cs_wg_full_v4_conf_pilot2","3C44YUNSI1Q4K0ERF7M2DKBPQ3SPDV","14",NULL,"OCTOBER","4","NOVEMBER","9","0","1726","0",,,,"2018-07-24 15:39:41","497567"
"A3HKMZ9ML9EPUY","cs_wg_full_v4_conf_pilot2","3WR9XG3T63C2EYRYQARSAUQYDWU74U","18",NULL,"AUGUST","8","NOVEMBER","12","1","3207","1",,,,"2018-07-24 15:39:42","497568"
"A2T11H7YI7QPGD","cs_wg_full_v4_conf_pilot2","3V5Q80FXIXSAA1BOKK5E4YHKOGC23O","11",NULL,"JUNE","4","SEPTEMBER","10","1","4832","1",,,,"2018-07-24 15:39:44","497569"
"A3TLI95L5GOBKG","cs_wg_full_v4_conf_pilot2","3HVVDCPGTET5A32PSKI0VFMNXUJYTH","16",NULL,"JANUARY","12","AUGUST","6","0","1110","1",,,,"2018-07-24 15:39:45","497570"
"A2W5RJFHZRE8IS","cs_wg_full_v4_conf_pilot2","382M9COHEHGM4B0NSOWGT8G9YWLUEP","18",NULL,"JANUARY","4","MARCH","1","0","1379","1",,,,"2018-07-24 15:39:45","497571"
"AVUTKN1N2TIF4","cs_wg_full_v4_conf_pilot2","3Q5C1WP23M26ZVGWFZTTEC5ZA6P510","22",NULL,"MARCH","12","MAY","10","1","2073","0",,,,"2018-07-24 15:39:47","497572"
"A1BSL1VC7PQR04","cs_wg_full_v4_conf_pilot2","3C44YUNSI1Q4K0ERF7M2DKBPQ3SPDV","15",NULL,"AUGUST","8","APRIL","5","0","1937","1",,,,"2018-07-24 15:39:48","497573"
"A2SNM3YVWIDKLM","cs_wg_full_v4_conf_pilot2","3II4UPYCOJ8PKCF6FK1RDP1ZVZEDQA","15",NULL,"FEBRUARY","2","SEPTEMBER","9","1","2517","1",,,,"2018-07-24 15:39:48","497574"
"A28MDXDNK6QHMS","cs_wg_full_v4_conf_pilot2","3EWIJTFFVO86OPO7UHIW41S2I7I0ET","12",NULL,"DECEMBER","12","SEPTEMBER","7","0","6662","1",,,,"2018-07-24 15:39:49","497575"
"A1TD4CM1NKIQ65","cs_wg_full_v4_conf_pilot2","3URFVVM165JKF6RJOBATEIHRM2UUZV","5",NULL,"APRIL","2","FEBRUARY","12","1","2888","1",,,,"2018-07-24 15:39:49","497576"
"A2JFNQK7HIFFC9","cs_wg_full_v4_conf_pilot2","3JRJSWSMQHM25HN4D40F6ZQ9LJ1E31","7",NULL,"APRIL","1","JULY","3","0","5333","0",,,,"2018-07-24 15:39:51","497577"
"A3HKMZ9ML9EPUY","cs_wg_full_v4_conf_pilot2","3WR9XG3T63C2EYRYQARSAUQYDWU74U","19",NULL,"OCTOBER","4","FEBRUARY","6","1","3635","1",,,,"2018-07-24 15:39:51","497578"
"A3TLI95L5GOBKG","cs_wg_full_v4_conf_pilot2","3HVVDCPGTET5A32PSKI0VFMNXUJYTH","17",NULL,"APRIL","10","AUGUST","6","1","2063","0",,,,"2018-07-24 15:39:51","497579"
"A2W5RJFHZRE8IS","cs_wg_full_v4_conf_pilot2","382M9COHEHGM4B0NSOWGT8G9YWLUEP","19",NULL,"SEPTEMBER","5","OCTOBER","10","1","1726","1",,,,"2018-07-24 15:39:52","497580"
"A3SJA2R2M8OHYL","cs_wg_full_v4_conf_pilot2","3OVHNO1VE62YY4GX2GK44ID302ZDZ4","2",NULL,"NOVEMBER","7","SEPTEMBER","9","1","3816","1",,,,"2018-07-24 15:39:52","497581"
"A1BSL1VC7PQR04","cs_wg_full_v4_conf_pilot2","3C44YUNSI1Q4K0ERF7M2DKBPQ3SPDV","16",NULL,"MAY","10","OCTOBER","4","0","1381","1",,,,"2018-07-24 15:39:54","497582"
"AFMAV43Q6NQPG","cs_wg_full_v4_conf_pilot2","3WSELTNVR334EL4MCE4KST4GU3ITA4","2",NULL,"JANUARY","11","JULY","10","0","20986","1",,,,"2018-07-24 15:39:54","497583"
"AVUTKN1N2TIF4","cs_wg_full_v4_conf_pilot2","3Q5C1WP23M26ZVGWFZTTEC5ZA6P510","23",NULL,"OCTOBER","5","APRIL","4","0","2195","1",,,,"2018-07-24 15:39:54","497584"
"A2T11H7YI7QPGD","cs_wg_full_v4_conf_pilot2","3V5Q80FXIXSAA1BOKK5E4YHKOGC23O","12",NULL,"MARCH","5","JANUARY","9","0","1278","1",,,,"2018-07-24 15:39:54","497585"
"A28MDXDNK6QHMS","cs_wg_full_v4_conf_pilot2","3EWIJTFFVO86OPO7UHIW41S2I7I0ET","13",NULL,"JANUARY","8","MAY","11","0","1911","0",,,,"2018-07-24 15:39:56","497586"
"A2SNM3YVWIDKLM","cs_wg_full_v4_conf_pilot2","3II4UPYCOJ8PKCF6FK1RDP1ZVZEDQA","16",NULL,"MAY","3","FEBRUARY","2","0","4983","1",,,,"2018-07-24 15:39:57","497587"
"A2W5RJFHZRE8IS","cs_wg_full_v4_conf_pilot2","382M9COHEHGM4B0NSOWGT8G9YWLUEP","20",NULL,"AUGUST","2","FEBRUARY","9","1","1351","1",,,,"2018-07-24 15:39:58","497588"
"A3HKMZ9ML9EPUY","cs_wg_full_v4_conf_pilot2","3WR9XG3T63C2EYRYQARSAUQYDWU74U","20",NULL,"NOVEMBER","12","JANUARY","7","0","3343","1",,,,"2018-07-24 15:39:58","497589"
"A1TD4CM1NKIQ65","cs_wg_full_v4_conf_pilot2","3URFVVM165JKF6RJOBATEIHRM2UUZV","6",NULL,"OCTOBER","8","DECEMBER","1","1","1904","0",,,,"2018-07-24 15:39:59","497590"
"A3TLI95L5GOBKG","cs_wg_full_v4_conf_pilot2","3HVVDCPGTET5A32PSKI0VFMNXUJYTH","18",NULL,"JANUARY","12","OCTOBER","2","0","1462","1",,,,"2018-07-24 15:39:59","497591"
"A1BSL1VC7PQR04","cs_wg_full_v4_conf_pilot2","3C44YUNSI1Q4K0ERF7M2DKBPQ3SPDV","17",NULL,"SEPTEMBER","12","JULY","1","1","1829","0",,,,"2018-07-24 15:40:00","497592"
"AVUTKN1N2TIF4","cs_wg_full_v4_conf_pilot2","3Q5C1WP23M26ZVGWFZTTEC5ZA6P510","24",NULL,"APRIL","4","OCTOBER","5","0","1560","0",,,,"2018-07-24 15:40:00","497593"
"A2JFNQK7HIFFC9","cs_wg_full_v4_conf_pilot2","3JRJSWSMQHM25HN4D40F6ZQ9LJ1E31","8",NULL,"FEBRUARY","6","JANUARY","12","1","2097","1",,,,"2018-07-24 15:40:02","497594"
"AFMAV43Q6NQPG","cs_wg_full_v4_conf_pilot2","3WSELTNVR334EL4MCE4KST4GU3ITA4","3",NULL,"DECEMBER","5","SEPTEMBER","12","0","2592","0",,,,"2018-07-24 15:40:03","497595"
"A2W5RJFHZRE8IS","cs_wg_full_v4_conf_pilot2","382M9COHEHGM4B0NSOWGT8G9YWLUEP","21",NULL,"MARCH","1","JUNE","8","1","1425","1",,,,"2018-07-24 15:40:04","497596"
"A3HKMZ9ML9EPUY","cs_wg_full_v4_conf_pilot2","3WR9XG3T63C2EYRYQARSAUQYDWU74U","21",NULL,"FEBRUARY","6","MARCH","10","1","1175","1",,,,"2018-07-24 15:40:04","497597"
"A1BSL1VC7PQR04","cs_wg_full_v4_conf_pilot2","3C44YUNSI1Q4K0ERF7M2DKBPQ3SPDV","18",NULL,"JUNE","6","JULY","1","0","1175","1",,,,"2018-07-24 15:40:06","497598"
"AVUTKN1N2TIF4","cs_wg_full_v4_conf_pilot2","3Q5C1WP23M26ZVGWFZTTEC5ZA6P510","25",NULL,"JUNE","11","APRIL","4","0","1196","1",,,,"2018-07-24 15:40:06","497599"
"A3SJA2R2M8OHYL","cs_wg_full_v4_conf_pilot2","3OVHNO1VE62YY4GX2GK44ID302ZDZ4","3",NULL,"JANUARY","4","SEPTEMBER","9","1","4037","1",,,,"2018-07-24 15:40:06","497600"
"A3TLI95L5GOBKG","cs_wg_full_v4_conf_pilot2","3HVVDCPGTET5A32PSKI0VFMNXUJYTH","19",NULL,"OCTOBER","2","NOVEMBER","4","1","1508","1",,,,"2018-07-24 15:40:06","497601"
"A28MDXDNK6QHMS","cs_wg_full_v4_conf_pilot2","3EWIJTFFVO86OPO7UHIW41S2I7I0ET","14",NULL,"OCTOBER","5","JULY","4","0","3494","1",,,,"2018-07-24 15:40:07","497602"
"A1TD4CM1NKIQ65","cs_wg_full_v4_conf_pilot2","3URFVVM165JKF6RJOBATEIHRM2UUZV","7",NULL,"APRIL","2","JULY","11","0","2682","0",,,,"2018-07-24 15:40:09","497603"
"A2W5RJFHZRE8IS","cs_wg_full_v4_conf_pilot2","382M9COHEHGM4B0NSOWGT8G9YWLUEP","22",NULL,"OCTOBER","10","JANUARY","4","0","1521","1",,,,"2018-07-24 15:40:09","497604"
"A2JFNQK7HIFFC9","cs_wg_full_v4_conf_pilot2","3JRJSWSMQHM25HN4D40F6ZQ9LJ1E31","9",NULL,"JUNE","5","MAY","10","1","2029","1",,,,"2018-07-24 15:40:10","497605"
"A3HKMZ9ML9EPUY","cs_wg_full_v4_conf_pilot2","3WR9XG3T63C2EYRYQARSAUQYDWU74U","22",NULL,"SEPTEMBER","1","NOVEMBER","12","1","1552","1",,,,"2018-07-24 15:40:10","497606"
"A2T11H7YI7QPGD","cs_wg_full_v4_conf_pilot2","3V5Q80FXIXSAA1BOKK5E4YHKOGC23O","13",NULL,"JANUARY","9","OCTOBER","1","0","12347","1",,,,"2018-07-24 15:40:12","497607"
"A1BSL1VC7PQR04","cs_wg_full_v4_conf_pilot2","3C44YUNSI1Q4K0ERF7M2DKBPQ3SPDV","19",NULL,"SEPTEMBER","12","DECEMBER","7","1","1870","0",,,,"2018-07-24 15:40:12","497608"
"AVUTKN1N2TIF4","cs_wg_full_v4_conf_pilot2","3Q5C1WP23M26ZVGWFZTTEC5ZA6P510","26",NULL,"MARCH","12","JULY","9","1","1883","0",,,,"2018-07-24 15:40:13","497609"
"A2SNM3YVWIDKLM","cs_wg_full_v4_conf_pilot2","3II4UPYCOJ8PKCF6FK1RDP1ZVZEDQA","17",NULL,"JULY","12","OCTOBER","10","0","10727","1",,,,"2018-07-24 15:40:14","497610"
"A28MDXDNK6QHMS","cs_wg_full_v4_conf_pilot2","3EWIJTFFVO86OPO7UHIW41S2I7I0ET","15",NULL,"OCTOBER","5","MAY","11","1","1479","1",,,,"2018-07-24 15:40:14","497611"
"A3TLI95L5GOBKG","cs_wg_full_v4_conf_pilot2","3HVVDCPGTET5A32PSKI0VFMNXUJYTH","20",NULL,"MAY","11","DECEMBER","5","0","1391","1",,,,"2018-07-24 15:40:14","497612"
"AFMAV43Q6NQPG","cs_wg_full_v4_conf_pilot2","3WSELTNVR334EL4MCE4KST4GU3ITA4","4",NULL,"SEPTEMBER","12","NOVEMBER","7","1","4732","0",,,,"2018-07-24 15:40:15","497613"
"A2W5RJFHZRE8IS","cs_wg_full_v4_conf_pilot2","382M9COHEHGM4B0NSOWGT8G9YWLUEP","23",NULL,"JUNE","8","APRIL","11","1","1930","1",,,,"2018-07-24 15:40:16","497614"
"A3HKMZ9ML9EPUY","cs_wg_full_v4_conf_pilot2","3WR9XG3T63C2EYRYQARSAUQYDWU74U","23",NULL,"OCTOBER","4","MAY","9","1","1476","1",,,,"2018-07-24 15:40:16","497615"
"A2JFNQK7HIFFC9","cs_wg_full_v4_conf_pilot2","3JRJSWSMQHM25HN4D40F6ZQ9LJ1E31","10",NULL,"JUNE","5","JANUARY","12","1","1679","1",,,,"2018-07-24 15:40:17","497616"
"A2T11H7YI7QPGD","cs_wg_full_v4_conf_pilot2","3V5Q80FXIXSAA1BOKK5E4YHKOGC23O","14",NULL,"JULY","7","NOVEMBER","6","0","1658","1",,,,"2018-07-24 15:40:17","497617"
"A1BSL1VC7PQR04","cs_wg_full_v4_conf_pilot2","3C44YUNSI1Q4K0ERF7M2DKBPQ3SPDV","20",NULL,"OCTOBER","4","JUNE","6","0","979","0",,,,"2018-07-24 15:40:18","497618"
"A1TD4CM1NKIQ65","cs_wg_full_v4_conf_pilot2","3URFVVM165JKF6RJOBATEIHRM2UUZV","8",NULL,"SEPTEMBER","10","OCTOBER","8","0","2292","1",,,,"2018-07-24 15:40:19","497619"
"A28MDXDNK6QHMS","cs_wg_full_v4_conf_pilot2","3EWIJTFFVO86OPO7UHIW41S2I7I0ET","16",NULL,"MAY","11","AUGUST","6","0","1910","1",,,,"2018-07-24 15:40:21","497620"
"A3SJA2R2M8OHYL","cs_wg_full_v4_conf_pilot2","3OVHNO1VE62YY4GX2GK44ID302ZDZ4","4",NULL,"AUGUST","8","MARCH","3","0","4322","1",,,,"2018-07-24 15:40:21","497621"
"AVUTKN1N2TIF4","cs_wg_full_v4_conf_pilot2","3Q5C1WP23M26ZVGWFZTTEC5ZA6P510","27",NULL,"DECEMBER","2","FEBRUARY","1","1","3525","0",,,,"2018-07-24 15:40:21","497622"
"A3TLI95L5GOBKG","cs_wg_full_v4_conf_pilot2","3HVVDCPGTET5A32PSKI0VFMNXUJYTH","21",NULL,"JULY","7","JANUARY","12","0","493","0",,,,"2018-07-24 15:40:22","497623"
"A2W5RJFHZRE8IS","cs_wg_full_v4_conf_pilot2","382M9COHEHGM4B0NSOWGT8G9YWLUEP","24",NULL,"OCTOBER","10","JUNE","8","1","1155","0",,,,"2018-07-24 15:40:22","497624"
"A2SNM3YVWIDKLM","cs_wg_full_v4_conf_pilot2","3II4UPYCOJ8PKCF6FK1RDP1ZVZEDQA","18",NULL,"JANUARY","11","MARCH","1","1","2551","0",,,,"2018-07-24 15:40:22","497625"
"A3HKMZ9ML9EPUY","cs_wg_full_v4_conf_pilot2","3WR9XG3T63C2EYRYQARSAUQYDWU74U","24",NULL,"OCTOBER","4","JANUARY","7","1","3204","1",,,,"2018-07-24 15:40:24","497626"
"AFMAV43Q6NQPG","cs_wg_full_v4_conf_pilot2","3WSELTNVR334EL4MCE4KST4GU3ITA4","5",NULL,"FEBRUARY","1","APRIL","3","0","2774","0",,,,"2018-07-24 15:40:25","497627"
"A2T11H7YI7QPGD","cs_wg_full_v4_conf_pilot2","3V5Q80FXIXSAA1BOKK5E4YHKOGC23O","15",NULL,"OCTOBER","1","APRIL","8","1","3166","1",,,,"2018-07-24 15:40:25","497628"
"A2JFNQK7HIFFC9","cs_wg_full_v4_conf_pilot2","3JRJSWSMQHM25HN4D40F6ZQ9LJ1E31","11",NULL,"SEPTEMBER","2","JUNE","5","0","2247","0",,,,"2018-07-24 15:40:25","497629"
"A3TLI95L5GOBKG","cs_wg_full_v4_conf_pilot2","3HVVDCPGTET5A32PSKI0VFMNXUJYTH","22",NULL,"NOVEMBER","4","APRIL","10","1","431","1",,,,"2018-07-24 15:40:26","497630"
"A1BSL1VC7PQR04","cs_wg_full_v4_conf_pilot2","3C44YUNSI1Q4K0ERF7M2DKBPQ3SPDV","21",NULL,"APRIL","5","FEBRUARY","3","0","2243","1",,,,"2018-07-24 15:40:27","497631"
"A2W5RJFHZRE8IS","cs_wg_full_v4_conf_pilot2","382M9COHEHGM4B0NSOWGT8G9YWLUEP","25",NULL,"MAY","3","SEPTEMBER","5","1","1849","1",,,,"2018-07-24 15:40:29","497632"
"A28MDXDNK6QHMS","cs_wg_full_v4_conf_pilot2","3EWIJTFFVO86OPO7UHIW41S2I7I0ET","17",NULL,"AUGUST","6","DECEMBER","12","1","4254","1",,,,"2018-07-24 15:40:30","497633"
"A3HKMZ9ML9EPUY","cs_wg_full_v4_conf_pilot2","3WR9XG3T63C2EYRYQARSAUQYDWU74U","25",NULL,"NOVEMBER","12","JUNE","11","0","2705","1",,,,"2018-07-24 15:40:31","497634"
"A2SNM3YVWIDKLM","cs_wg_full_v4_conf_pilot2","3II4UPYCOJ8PKCF6FK1RDP1ZVZEDQA","19",NULL,"DECEMBER","8","JUNE","5","1","3656","0",,,,"2018-07-24 15:40:31","497635"
"AVUTKN1N2TIF4","cs_wg_full_v4_conf_pilot2","3Q5C1WP23M26ZVGWFZTTEC5ZA6P510","28",NULL,"NOVEMBER","6","JANUARY","8","1","5869","1",,,,"2018-07-24 15:40:31","497636"
"A3TLI95L5GOBKG","cs_wg_full_v4_conf_pilot2","3HVVDCPGTET5A32PSKI0VFMNXUJYTH","23",NULL,"SEPTEMBER","3","JULY","7","0","78","0",,,,"2018-07-24 15:40:32","497637"
"A3SJA2R2M8OHYL","cs_wg_full_v4_conf_pilot2","3OVHNO1VE62YY4GX2GK44ID302ZDZ4","5",NULL,"JANUARY","4","APRIL","11","1","3313","1",,,,"2018-07-24 15:40:32","497638"
"A1TD4CM1NKIQ65","cs_wg_full_v4_conf_pilot2","3URFVVM165JKF6RJOBATEIHRM2UUZV","9",NULL,"FEBRUARY","12","JULY","11","1","1331","0",,,,"2018-07-24 15:40:33","497639"
"A1BSL1VC7PQR04","cs_wg_full_v4_conf_pilot2","3C44YUNSI1Q4K0ERF7M2DKBPQ3SPDV","22",NULL,"JUNE","6","OCTOBER","4","1","1412","0",,,,"2018-07-24 15:40:33","497640"
"A2W5RJFHZRE8IS","cs_wg_full_v4_conf_pilot2","382M9COHEHGM4B0NSOWGT8G9YWLUEP","26",NULL,"FEBRUARY","9","APRIL","11","1","1869","1",,,,"2018-07-24 15:40:35","497641"
"A3TLI95L5GOBKG","cs_wg_full_v4_conf_pilot2","3HVVDCPGTET5A32PSKI0VFMNXUJYTH","24",NULL,"SEPTEMBER","3","JUNE","1","1","399","0",,,,"2018-07-24 15:40:36","497642"
"A2JFNQK7HIFFC9","cs_wg_full_v4_conf_pilot2","3JRJSWSMQHM25HN4D40F6ZQ9LJ1E31","12",NULL,"SEPTEMBER","2","JANUARY","12","1","1420","1",,,,"2018-07-24 15:40:36","497643"
"A3HKMZ9ML9EPUY","cs_wg_full_v4_conf_pilot2","3WR9XG3T63C2EYRYQARSAUQYDWU74U","26",NULL,"NOVEMBER","12","AUGUST","8","0","991","1",,,,"2018-07-24 15:40:37","497644"
"AVUTKN1N2TIF4","cs_wg_full_v4_conf_pilot2","3Q5C1WP23M26ZVGWFZTTEC5ZA6P510","29",NULL,"DECEMBER","2","NOVEMBER","6","1","1290","1",,,,"2018-07-24 15:40:37","497645"
"A1BSL1VC7PQR04","cs_wg_full_v4_conf_pilot2","3C44YUNSI1Q4K0ERF7M2DKBPQ3SPDV","23",NULL,"JUNE","6","FEBRUARY","3","0","786","1",,,,"2018-07-24 15:40:39","497646"
"A2SNM3YVWIDKLM","cs_wg_full_v4_conf_pilot2","3II4UPYCOJ8PKCF6FK1RDP1ZVZEDQA","20",NULL,"APRIL","6","MAY","3","1","2854","0",,,,"2018-07-24 15:40:39","497647"
"A28MDXDNK6QHMS","cs_wg_full_v4_conf_pilot2","3EWIJTFFVO86OPO7UHIW41S2I7I0ET","18",NULL,"MARCH","1","DECEMBER","12","1","3303","1",,,,"2018-07-24 15:40:39","497648"
"A1TD4CM1NKIQ65","cs_wg_full_v4_conf_pilot2","3URFVVM165JKF6RJOBATEIHRM2UUZV","10",NULL,"SEPTEMBER","10","JANUARY","5","0","1739","1",,,,"2018-07-24 15:40:42","497649"
"A2W5RJFHZRE8IS","cs_wg_full_v4_conf_pilot2","382M9COHEHGM4B0NSOWGT8G9YWLUEP","27",NULL,"AUGUST","2","JUNE","8","1","1764","1",,,,"2018-07-24 15:40:42","497650"
"A3TLI95L5GOBKG","cs_wg_full_v4_conf_pilot2","3HVVDCPGTET5A32PSKI0VFMNXUJYTH","25",NULL,"MAY","11","MARCH","8","0","1313","1",,,,"2018-07-24 15:40:43","497651"
"AFMAV43Q6NQPG","cs_wg_full_v4_conf_pilot2","3WSELTNVR334EL4MCE4KST4GU3ITA4","6",NULL,"AUGUST","2","MAY","8","1","2207","1",,,,"2018-07-24 15:40:43","497652"
"AVUTKN1N2TIF4","cs_wg_full_v4_conf_pilot2","3Q5C1WP23M26ZVGWFZTTEC5ZA6P510","30",NULL,"JULY","9","DECEMBER","2","0","2695","1",,,,"2018-07-24 15:40:44","497653"
"A3HKMZ9ML9EPUY","cs_wg_full_v4_conf_pilot2","3WR9XG3T63C2EYRYQARSAUQYDWU74U","27",NULL,"DECEMBER","2","MARCH","10","1","3577","1",,,,"2018-07-24 15:40:45","497654"
"A1BSL1VC7PQR04","cs_wg_full_v4_conf_pilot2","3C44YUNSI1Q4K0ERF7M2DKBPQ3SPDV","24",NULL,"JUNE","6","MAY","10","1","2131","1",,,,"2018-07-24 15:40:45","497655"
"A3SJA2R2M8OHYL","cs_wg_full_v4_conf_pilot2","3OVHNO1VE62YY4GX2GK44ID302ZDZ4","6",NULL,"MAY","1","OCTOBER","12","1","4390","1",,,,"2018-07-24 15:40:46","497656"
"A2SNM3YVWIDKLM","cs_wg_full_v4_conf_pilot2","3II4UPYCOJ8PKCF6FK1RDP1ZVZEDQA","21",NULL,"DECEMBER","8","SEPTEMBER","9","0","3896","0",,,,"2018-07-24 15:40:48","497657"
"A28MDXDNK6QHMS","cs_wg_full_v4_conf_pilot2","3EWIJTFFVO86OPO7UHIW41S2I7I0ET","19",NULL,"MARCH","1","FEBRUARY","10","1","1500","1",,,,"2018-07-24 15:40:48","497658"
"A3TLI95L5GOBKG","cs_wg_full_v4_conf_pilot2","3HVVDCPGTET5A32PSKI0VFMNXUJYTH","26",NULL,"DECEMBER","5","APRIL","10","1","791","1",,,,"2018-07-24 15:40:49","497659"
"A2JFNQK7HIFFC9","cs_wg_full_v4_conf_pilot2","3JRJSWSMQHM25HN4D40F6ZQ9LJ1E31","13",NULL,"JULY","3","AUGUST","7","1","7076","1",,,,"2018-07-24 15:40:50","497660"
"A2W5RJFHZRE8IS","cs_wg_full_v4_conf_pilot2","382M9COHEHGM4B0NSOWGT8G9YWLUEP","28",NULL,"NOVEMBER","6","JULY","12","1","2982","1",,,,"2018-07-24 15:40:51","497661"
"A1BSL1VC7PQR04","cs_wg_full_v4_conf_pilot2","3C44YUNSI1Q4K0ERF7M2DKBPQ3SPDV","25",NULL,"MARCH","2","JANUARY","11","0","456","0",,,,"2018-07-24 15:40:51","497662"
"AVUTKN1N2TIF4","cs_wg_full_v4_conf_pilot2","3Q5C1WP23M26ZVGWFZTTEC5ZA6P510","31",NULL,"JUNE","11","MAY","10","0","2597","1",,,,"2018-07-24 15:40:51","497663"
"A1TD4CM1NKIQ65","cs_wg_full_v4_conf_pilot2","3URFVVM165JKF6RJOBATEIHRM2UUZV","11",NULL,"JULY","11","FEBRUARY","12","0","1841","0",,,,"2018-07-24 15:40:51","497664"
"A3TLI95L5GOBKG","cs_wg_full_v4_conf_pilot2","3HVVDCPGTET5A32PSKI0VFMNXUJYTH","27",NULL,"JUNE","1","MAY","11","0","857","0",,,,"2018-07-24 15:40:54","497665"
"A3HKMZ9ML9EPUY","cs_wg_full_v4_conf_pilot2","3WR9XG3T63C2EYRYQARSAUQYDWU74U","28",NULL,"DECEMBER","2","JANUARY","7","0","1540","0",,,,"2018-07-24 15:40:55","497666"
"AFMAV43Q6NQPG","cs_wg_full_v4_conf_pilot2","3WSELTNVR334EL4MCE4KST4GU3ITA4","7",NULL,"AUGUST","2","APRIL","3","0","4214","0",,,,"2018-07-24 15:40:55","497667"
"A28MDXDNK6QHMS","cs_wg_full_v4_conf_pilot2","3EWIJTFFVO86OPO7UHIW41S2I7I0ET","20",NULL,"JUNE","3","APRIL","2","0","1985","1",,,,"2018-07-24 15:40:56","497668"
"A2SNM3YVWIDKLM","cs_wg_full_v4_conf_pilot2","3II4UPYCOJ8PKCF6FK1RDP1ZVZEDQA","22",NULL,"NOVEMBER","7","MARCH","1","0","3767","1",,,,"2018-07-24 15:40:57","497669"
"A1BSL1VC7PQR04","cs_wg_full_v4_conf_pilot2","3C44YUNSI1Q4K0ERF7M2DKBPQ3SPDV","26",NULL,"NOVEMBER","9","JULY","1","0","1110","1",,,,"2018-07-24 15:40:57","497670"
"A2W5RJFHZRE8IS","cs_wg_full_v4_conf_pilot2","382M9COHEHGM4B0NSOWGT8G9YWLUEP","29",NULL,"FEBRUARY","9","SEPTEMBER","5","0","1660","1",,,,"2018-07-24 15:40:57","497671"
"AVUTKN1N2TIF4","cs_wg_full_v4_conf_pilot2","3Q5C1WP23M26ZVGWFZTTEC5ZA6P510","32",NULL,"OCTOBER","5","NOVEMBER","6","0","2196","0",,,,"2018-07-24 15:40:58","497672"
"A3SJA2R2M8OHYL","cs_wg_full_v4_conf_pilot2","3OVHNO1VE62YY4GX2GK44ID302ZDZ4","7",NULL,"FEBRUARY","6","NOVEMBER","7","0","4464","1",,,,"2018-07-24 15:40:59","497673"
"A2JFNQK7HIFFC9","cs_wg_full_v4_conf_pilot2","3JRJSWSMQHM25HN4D40F6ZQ9LJ1E31","14",NULL,"OCTOBER","11","MAY","10","1","3347","0",,,,"2018-07-24 15:40:59","497674"
"A1TD4CM1NKIQ65","cs_wg_full_v4_conf_pilot2","3URFVVM165JKF6RJOBATEIHRM2UUZV","12",NULL,"JUNE","4","SEPTEMBER","10","1","1491","1",,,,"2018-07-24 15:41:00","497675"
"A3HKMZ9ML9EPUY","cs_wg_full_v4_conf_pilot2","3WR9XG3T63C2EYRYQARSAUQYDWU74U","29",NULL,"OCTOBER","4","AUGUST","8","1","2132","1",,,,"2018-07-24 15:41:01","497676"
"A3TLI95L5GOBKG","cs_wg_full_v4_conf_pilot2","3HVVDCPGTET5A32PSKI0VFMNXUJYTH","28",NULL,"NOVEMBER","4","DECEMBER","5","0","1789","0",,,,"2018-07-24 15:41:02","497677"
"A28MDXDNK6QHMS","cs_wg_full_v4_conf_pilot2","3EWIJTFFVO86OPO7UHIW41S2I7I0ET","21",NULL,"MAY","11","SEPTEMBER","7","0","1216","1",,,,"2018-07-24 15:41:02","497678"
"A2W5RJFHZRE8IS","cs_wg_full_v4_conf_pilot2","382M9COHEHGM4B0NSOWGT8G9YWLUEP","30",NULL,"SEPTEMBER","5","NOVEMBER","6","0","1209","0",,,,"2018-07-24 15:41:03","497679"
"A1BSL1VC7PQR04","cs_wg_full_v4_conf_pilot2","3C44YUNSI1Q4K0ERF7M2DKBPQ3SPDV","27",NULL,"JANUARY","11","APRIL","5","0","1476","1",,,,"2018-07-24 15:41:03","497680"
"AFMAV43Q6NQPG","cs_wg_full_v4_conf_pilot2","3WSELTNVR334EL4MCE4KST4GU3ITA4","8",NULL,"AUGUST","2","SEPTEMBER","12","1","2564","1",,,,"2018-07-24 15:41:04","497681"
"A2SNM3YVWIDKLM","cs_wg_full_v4_conf_pilot2","3II4UPYCOJ8PKCF6FK1RDP1ZVZEDQA","23",NULL,"JANUARY","11","MAY","3","0","3022","1",,,,"2018-07-24 15:41:04","497682"
"AVUTKN1N2TIF4","cs_wg_full_v4_conf_pilot2","3Q5C1WP23M26ZVGWFZTTEC5ZA6P510","33",NULL,"APRIL","4","SEPTEMBER","3","0","1905","1",,,,"2018-07-24 15:41:05","497683"
"A3HKMZ9ML9EPUY","cs_wg_full_v4_conf_pilot2","3WR9XG3T63C2EYRYQARSAUQYDWU74U","30",NULL,"JANUARY","7","OCTOBER","4","1","1432","0",,,,"2018-07-24 15:41:07","497684"
"A3TLI95L5GOBKG","cs_wg_full_v4_conf_pilot2","3HVVDCPGTET5A32PSKI0VFMNXUJYTH","29",NULL,"FEBRUARY","9","JANUARY","12","1","526","1",,,,"2018-07-24 15:41:08","497685"
"A2W5RJFHZRE8IS","cs_wg_full_v4_conf_pilot2","382M9COHEHGM4B0NSOWGT8G9YWLUEP","31",NULL,"OCTOBER","10","FEBRUARY","9","1","1190","0",,,,"2018-07-24 15:41:09","497686"
"A1BSL1VC7PQR04","cs_wg_full_v4_conf_pilot2","3C44YUNSI1Q4K0ERF7M2DKBPQ3SPDV","28",NULL,"OCTOBER","4","JULY","1","1","1547","0",,,,"2018-07-24 15:41:09","497687"
"A1TD4CM1NKIQ65","cs_wg_full_v4_conf_pilot2","3URFVVM165JKF6RJOBATEIHRM2UUZV","13",NULL,"MARCH","3","MAY","6","1","2148","1",,,,"2018-07-24 15:41:09","497688"
"A28MDXDNK6QHMS","cs_wg_full_v4_conf_pilot2","3EWIJTFFVO86OPO7UHIW41S2I7I0ET","22",NULL,"JULY","4","MAY","11","1","2077","1",,,,"2018-07-24 15:41:10","497689"
"A2JFNQK7HIFFC9","cs_wg_full_v4_conf_pilot2","3JRJSWSMQHM25HN4D40F6ZQ9LJ1E31","15",NULL,"OCTOBER","11","SEPTEMBER","2","0","4541","1",,,,"2018-07-24 15:41:10","497690"
"AVUTKN1N2TIF4","cs_wg_full_v4_conf_pilot2","3Q5C1WP23M26ZVGWFZTTEC5ZA6P510","34",NULL,"MARCH","12","SEPTEMBER","3","0","2017","1",,,,"2018-07-24 15:41:11","497691"
"A2SNM3YVWIDKLM","cs_wg_full_v4_conf_pilot2","3II4UPYCOJ8PKCF6FK1RDP1ZVZEDQA","24",NULL,"MAY","3","AUGUST","4","1","2975","1",,,,"2018-07-24 15:41:12","497692"
"A3TLI95L5GOBKG","cs_wg_full_v4_conf_pilot2","3HVVDCPGTET5A32PSKI0VFMNXUJYTH","30",NULL,"MARCH","8","MAY","11","0","413","0",,,,"2018-07-24 15:41:14","497693"
"A3HKMZ9ML9EPUY","cs_wg_full_v4_conf_pilot2","3WR9XG3T63C2EYRYQARSAUQYDWU74U","31",NULL,"JUNE","11","SEPTEMBER","1","1","2070","0",,,,"2018-07-24 15:41:14","497694"
"A3SJA2R2M8OHYL","cs_wg_full_v4_conf_pilot2","3OVHNO1VE62YY4GX2GK44ID302ZDZ4","8",NULL,"FEBRUARY","6","AUGUST","8","0","8850","0",,,,"2018-07-24 15:41:14","497695"
"A2W5RJFHZRE8IS","cs_wg_full_v4_conf_pilot2","382M9COHEHGM4B0NSOWGT8G9YWLUEP","32",NULL,"MAY","3","JULY","12","1","1646","1",,,,"2018-07-24 15:41:15","497696"
"A1BSL1VC7PQR04","cs_wg_full_v4_conf_pilot2","3C44YUNSI1Q4K0ERF7M2DKBPQ3SPDV","29",NULL,"JULY","1","JANUARY","11","1","2258","1",,,,"2018-07-24 15:41:16","497697"
"A28MDXDNK6QHMS","cs_wg_full_v4_conf_pilot2","3EWIJTFFVO86OPO7UHIW41S2I7I0ET","23",NULL,"JUNE","3","OCTOBER","5","1","2087","1",,,,"2018-07-24 15:41:17","497698"
"AVUTKN1N2TIF4","cs_wg_full_v4_conf_pilot2","3Q5C1WP23M26ZVGWFZTTEC5ZA6P510","35",NULL,"OCTOBER","5","SEPTEMBER","3","0","2001","1",,,,"2018-07-24 15:41:17","497699"
"A1TD4CM1NKIQ65","cs_wg_full_v4_conf_pilot2","3URFVVM165JKF6RJOBATEIHRM2UUZV","14",NULL,"OCTOBER","8","AUGUST","7","0","1933","1",,,,"2018-07-24 15:41:18","497700"
"A2JFNQK7HIFFC9","cs_wg_full_v4_conf_pilot2","3JRJSWSMQHM25HN4D40F6ZQ9LJ1E31","16",NULL,"JULY","3","OCTOBER","11","1","1825","1",,,,"2018-07-24 15:41:18","497701"
"AFMAV43Q6NQPG","cs_wg_full_v4_conf_pilot2","3WSELTNVR334EL4MCE4KST4GU3ITA4","9",NULL,"JANUARY","11","FEBRUARY","1","0","3638","1",,,,"2018-07-24 15:41:18","497702"
"A2SNM3YVWIDKLM","cs_wg_full_v4_conf_pilot2","3II4UPYCOJ8PKCF6FK1RDP1ZVZEDQA","25",NULL,"APRIL","6","JANUARY","11","1","2505","1",,,,"2018-07-24 15:41:19","497703"
"A2W5RJFHZRE8IS","cs_wg_full_v4_conf_pilot2","382M9COHEHGM4B0NSOWGT8G9YWLUEP","33",NULL,"OCTOBER","10","JULY","12","1","872","1",,,,"2018-07-24 15:41:20","497704"
"A3TLI95L5GOBKG","cs_wg_full_v4_conf_pilot2","3HVVDCPGTET5A32PSKI0VFMNXUJYTH","31",NULL,"NOVEMBER","4","FEBRUARY","9","1","246","1",,,,"2018-07-24 15:41:20","497705"
"A3HKMZ9ML9EPUY","cs_wg_full_v4_conf_pilot2","3WR9XG3T63C2EYRYQARSAUQYDWU74U","32",NULL,"MARCH","10","NOVEMBER","12","1","1812","1",,,,"2018-07-24 15:41:21","497706"
"A28MDXDNK6QHMS","cs_wg_full_v4_conf_pilot2","3EWIJTFFVO86OPO7UHIW41S2I7I0ET","24",NULL,"MARCH","1","JULY","4","1","1581","1",,,,"2018-07-24 15:41:23","497707"
"AVUTKN1N2TIF4","cs_wg_full_v4_conf_pilot2","3Q5C1WP23M26ZVGWFZTTEC5ZA6P510","36",NULL,"DECEMBER","2","JANUARY","8","0","1829","0",,,,"2018-07-24 15:41:24","497708"
"A1BSL1VC7PQR04","cs_wg_full_v4_conf_pilot2","3C44YUNSI1Q4K0ERF7M2DKBPQ3SPDV","30",NULL,"APRIL","5","SEPTEMBER","12","1","3118","1",,,,"2018-07-24 15:41:25","497709"
"A2W5RJFHZRE8IS","cs_wg_full_v4_conf_pilot2","382M9COHEHGM4B0NSOWGT8G9YWLUEP","34",NULL,"DECEMBER","7","JANUARY","4","0","1730","1",,,,"2018-07-24 15:41:26","497710"
"A1TD4CM1NKIQ65","cs_wg_full_v4_conf_pilot2","3URFVVM165JKF6RJOBATEIHRM2UUZV","15",NULL,"MAY","6","SEPTEMBER","10","1","1598","1",,,,"2018-07-24 15:41:27","497711"
"A2SNM3YVWIDKLM","cs_wg_full_v4_conf_pilot2","3II4UPYCOJ8PKCF6FK1RDP1ZVZEDQA","26",NULL,"NOVEMBER","7","JUNE","5","0","2606","1",,,,"2018-07-24 15:41:27","497712"
"A3SJA2R2M8OHYL","cs_wg_full_v4_conf_pilot2","3OVHNO1VE62YY4GX2GK44ID302ZDZ4","9",NULL,"AUGUST","8","JULY","2","1","3303","0",,,,"2018-07-24 15:41:27","497713"
"A3HKMZ9ML9EPUY","cs_wg_full_v4_conf_pilot2","3WR9XG3T63C2EYRYQARSAUQYDWU74U","33",NULL,"SEPTEMBER","1","OCTOBER","4","0","2399","0",,,,"2018-07-24 15:41:28","497714"
"A3TLI95L5GOBKG","cs_wg_full_v4_conf_pilot2","3HVVDCPGTET5A32PSKI0VFMNXUJYTH","32",NULL,"JANUARY","12","MARCH","8","0","2334","1",,,,"2018-07-24 15:41:29","497715"
"A3E17U6SI0WJWH","cs_wg_full_v4_conf_pilot2","338JKRMM260E9CDRCKNVEA1SJ9NHAI","0",NULL,"AUGUST","6","NOVEMBER","7","0","4987","1",,,,"2018-07-24 15:41:29","497716"
"A2W5RJFHZRE8IS","cs_wg_full_v4_conf_pilot2","382M9COHEHGM4B0NSOWGT8G9YWLUEP","35",NULL,"MAY","3","DECEMBER","7","1","840","1",,,,"2018-07-24 15:41:31","497717"
"AVUTKN1N2TIF4","cs_wg_full_v4_conf_pilot2","3Q5C1WP23M26ZVGWFZTTEC5ZA6P510","37",NULL,"DECEMBER","2","MARCH","12","1","2962","1",,,,"2018-07-24 15:41:31","497718"
"A2T11H7YI7QPGD","cs_wg_full_v4_conf_pilot2","3V5Q80FXIXSAA1BOKK5E4YHKOGC23O","16",NULL,"SEPTEMBER","10","JANUARY","9","0","63104","1",,,,"2018-07-24 15:41:34","497719"
"A2SNM3YVWIDKLM","cs_wg_full_v4_conf_pilot2","3II4UPYCOJ8PKCF6FK1RDP1ZVZEDQA","27",NULL,"APRIL","6","NOVEMBER","7","1","1905","1",,,,"2018-07-24 15:41:34","497720"
"A3TLI95L5GOBKG","cs_wg_full_v4_conf_pilot2","3HVVDCPGTET5A32PSKI0VFMNXUJYTH","33",NULL,"MARCH","8","APRIL","10","1","949","1",,,,"2018-07-24 15:41:34","497721"
"AFMAV43Q6NQPG","cs_wg_full_v4_conf_pilot2","3WSELTNVR334EL4MCE4KST4GU3ITA4","10",NULL,"APRIL","3","JANUARY","11","0","10173","0",,,,"2018-07-24 15:41:35","497723"
"A3HKMZ9ML9EPUY","cs_wg_full_v4_conf_pilot2","3WR9XG3T63C2EYRYQARSAUQYDWU74U","34",NULL,"NOVEMBER","12","MAY","9","0","1958","1",,,,"2018-07-24 15:41:35","497722"
"A1TD4CM1NKIQ65","cs_wg_full_v4_conf_pilot2","3URFVVM165JKF6RJOBATEIHRM2UUZV","16",NULL,"MARCH","3","OCTOBER","8","0","1869","0",,,,"2018-07-24 15:41:35","497724"
"A1BSL1VC7PQR04","cs_wg_full_v4_conf_pilot2","3C44YUNSI1Q4K0ERF7M2DKBPQ3SPDV","31",NULL,"SEPTEMBER","12","OCTOBER","4","0","1779","1",,,,"2018-07-24 15:41:38","497725"
"A2W5RJFHZRE8IS","cs_wg_full_v4_conf_pilot2","382M9COHEHGM4B0NSOWGT8G9YWLUEP","36",NULL,"SEPTEMBER","5","MARCH","1","0","886","1",,,,"2018-07-24 15:41:38","497726"
"AVUTKN1N2TIF4","cs_wg_full_v4_conf_pilot2","3Q5C1WP23M26ZVGWFZTTEC5ZA6P510","38",NULL,"SEPTEMBER","3","MAY","10","1","3168","1",,,,"2018-07-24 15:41:39","497727"
"A2JFNQK7HIFFC9","cs_wg_full_v4_conf_pilot2","3JRJSWSMQHM25HN4D40F6ZQ9LJ1E31","17",NULL,"DECEMBER","4","NOVEMBER","9","1","4959","1",,,,"2018-07-24 15:41:40","497728"
"A3E17U6SI0WJWH","cs_wg_full_v4_conf_pilot2","338JKRMM260E9CDRCKNVEA1SJ9NHAI","1",NULL,"DECEMBER","5","JUNE","4","1","2595","1",,,,"2018-07-24 15:41:40","497729"
"A3SJA2R2M8OHYL","cs_wg_full_v4_conf_pilot2","3OVHNO1VE62YY4GX2GK44ID302ZDZ4","10",NULL,"APRIL","11","MAY","1","0","7659","1",,,,"2018-07-24 15:41:40","497730"
"A3TLI95L5GOBKG","cs_wg_full_v4_conf_pilot2","3HVVDCPGTET5A32PSKI0VFMNXUJYTH","34",NULL,"JULY","7","SEPTEMBER","3","0","1206","1",,,,"2018-07-24 15:41:41","497731"
"A3HKMZ9ML9EPUY","cs_wg_full_v4_conf_pilot2","3WR9XG3T63C2EYRYQARSAUQYDWU74U","35",NULL,"FEBRUARY","6","MAY","9","1","3189","1",,,,"2018-07-24 15:41:42","497732"
"A2SNM3YVWIDKLM","cs_wg_full_v4_conf_pilot2","3II4UPYCOJ8PKCF6FK1RDP1ZVZEDQA","28",NULL,"JULY","12","DECEMBER","8","0","3583","1",,,,"2018-07-24 15:41:43","497733"
"A2T11H7YI7QPGD","cs_wg_full_v4_conf_pilot2","3V5Q80FXIXSAA1BOKK5E4YHKOGC23O","17",NULL,"OCTOBER","1","MARCH","5","1","5139","1",,,,"2018-07-24 15:41:43","497734"
"A2W5RJFHZRE8IS","cs_wg_full_v4_conf_pilot2","382M9COHEHGM4B0NSOWGT8G9YWLUEP","37",NULL,"OCTOBER","10","DECEMBER","7","0","1165","1",,,,"2018-07-24 15:41:43","497735"
"A1TD4CM1NKIQ65","cs_wg_full_v4_conf_pilot2","3URFVVM165JKF6RJOBATEIHRM2UUZV","17",NULL,"NOVEMBER","9","MARCH","3","0","1996","1",,,,"2018-07-24 15:41:45","497736"
"A2JFNQK7HIFFC9","cs_wg_full_v4_conf_pilot2","3JRJSWSMQHM25HN4D40F6ZQ9LJ1E31","18",NULL,"JANUARY","12","OCTOBER","11","0","1621","1",,,,"2018-07-24 15:41:46","497737"
"AVUTKN1N2TIF4","cs_wg_full_v4_conf_pilot2","3Q5C1WP23M26ZVGWFZTTEC5ZA6P510","39",NULL,"NOVEMBER","6","SEPTEMBER","3","1","3211","0",,,,"2018-07-24 15:41:47","497738"
"A3TLI95L5GOBKG","cs_wg_full_v4_conf_pilot2","3HVVDCPGTET5A32PSKI0VFMNXUJYTH","35",NULL,"MARCH","8","NOVEMBER","4","1","964","0",,,,"2018-07-24 15:41:47","497739"
"A1BSL1VC7PQR04","cs_wg_full_v4_conf_pilot2","3C44YUNSI1Q4K0ERF7M2DKBPQ3SPDV","32",NULL,"SEPTEMBER","12","AUGUST","8","0","1546","1",,,,"2018-07-24 15:41:48","497740"
"A3E17U6SI0WJWH","cs_wg_full_v4_conf_pilot2","338JKRMM260E9CDRCKNVEA1SJ9NHAI","2",NULL,"MARCH","9","APRIL","10","1","1675","1",,,,"2018-07-24 15:41:48","497741"
"A2W5RJFHZRE8IS","cs_wg_full_v4_conf_pilot2","382M9COHEHGM4B0NSOWGT8G9YWLUEP","38",NULL,"NOVEMBER","6","JUNE","8","1","1405","1",,,,"2018-07-24 15:41:49","497742"
"A2T11H7YI7QPGD","cs_wg_full_v4_conf_pilot2","3V5Q80FXIXSAA1BOKK5E4YHKOGC23O","18",NULL,"FEBRUARY","2","APRIL","8","1","2055","1",,,,"2018-07-24 15:41:49","497743"
"AFMAV43Q6NQPG","cs_wg_full_v4_conf_pilot2","3WSELTNVR334EL4MCE4KST4GU3ITA4","11",NULL,"JULY","10","APRIL","3","1","8666","0",,,,"2018-07-24 15:41:51","497744"
"A3HKMZ9ML9EPUY","cs_wg_full_v4_conf_pilot2","3WR9XG3T63C2EYRYQARSAUQYDWU74U","36",NULL,"APRIL","3","JANUARY","7","1","4078","1",,,,"2018-07-24 15:41:51","497745"
"A2SNM3YVWIDKLM","cs_wg_full_v4_conf_pilot2","3II4UPYCOJ8PKCF6FK1RDP1ZVZEDQA","29",NULL,"JUNE","5","APRIL","6","0","3585","0",,,,"2018-07-24 15:41:51","497746"
"A2W5RJFHZRE8IS","cs_wg_full_v4_conf_pilot2","382M9COHEHGM4B0NSOWGT8G9YWLUEP","39",NULL,"JUNE","8","FEBRUARY","9","0","623","0",,,,"2018-07-24 15:41:54","497747"
"AVUTKN1N2TIF4","cs_wg_full_v4_conf_pilot2","3Q5C1WP23M26ZVGWFZTTEC5ZA6P510","40",NULL,"JANUARY","8","OCTOBER","5","1","2976","0",,,,"2018-07-24 15:41:54","497748"
"A3E17U6SI0WJWH","cs_wg_full_v4_conf_pilot2","338JKRMM260E9CDRCKNVEA1SJ9NHAI","3",NULL,"JULY","1","NOVEMBER","7","1","1573","1",,,,"2018-07-24 15:41:56","497749"
"A3TLI95L5GOBKG","cs_wg_full_v4_conf_pilot2","3HVVDCPGTET5A32PSKI0VFMNXUJYTH","36",NULL,"SEPTEMBER","3","MARCH","8","0","3288","0",,,,"2018-07-24 15:41:56","497750"
"A1TD4CM1NKIQ65","cs_wg_full_v4_conf_pilot2","3URFVVM165JKF6RJOBATEIHRM2UUZV","18",NULL,"AUGUST","7","MAY","6","1","2307","0",,,,"2018-07-24 15:41:57","497751"
"A2T11H7YI7QPGD","cs_wg_full_v4_conf_pilot2","3V5Q80FXIXSAA1BOKK5E4YHKOGC23O","19",NULL,"JULY","7","OCTOBER","1","0","3420","1",,,,"2018-07-24 15:41:57","497752"
"A2JFNQK7HIFFC9","cs_wg_full_v4_conf_pilot2","3JRJSWSMQHM25HN4D40F6ZQ9LJ1E31","19",NULL,"APRIL","1","FEBRUARY","6","1","5583","1",,,,"2018-07-24 15:41:57","497753"
"A1BSL1VC7PQR04","cs_wg_full_v4_conf_pilot2","3C44YUNSI1Q4K0ERF7M2DKBPQ3SPDV","33",NULL,"MAY","10","NOVEMBER","9","1","2958","0",,,,"2018-07-24 15:41:58","497754"
"A3HKMZ9ML9EPUY","cs_wg_full_v4_conf_pilot2","3WR9XG3T63C2EYRYQARSAUQYDWU74U","37",NULL,"MARCH","10","FEBRUARY","6","0","2155","1",,,,"2018-07-24 15:41:58","497755"
"AFMAV43Q6NQPG","cs_wg_full_v4_conf_pilot2","3WSELTNVR334EL4MCE4KST4GU3ITA4","12",NULL,"AUGUST","2","OCTOBER","4","0","2132","0",,,,"2018-07-24 15:41:59","497756"
"A2SNM3YVWIDKLM","cs_wg_full_v4_conf_pilot2","3II4UPYCOJ8PKCF6FK1RDP1ZVZEDQA","30",NULL,"SEPTEMBER","9","DECEMBER","8","1","2703","0",,,,"2018-07-24 15:41:59","497757"
"A28MDXDNK6QHMS","cs_wg_full_v4_conf_pilot2","3EWIJTFFVO86OPO7UHIW41S2I7I0ET","25",NULL,"NOVEMBER","9","JUNE","3","0","16593","1",,,,"2018-07-24 15:42:00","497758"
"A2W5RJFHZRE8IS","cs_wg_full_v4_conf_pilot2","382M9COHEHGM4B0NSOWGT8G9YWLUEP","40",NULL,"OCTOBER","10","SEPTEMBER","5","0","1219","1",,,,"2018-07-24 15:42:01","497759"
"AVUTKN1N2TIF4","cs_wg_full_v4_conf_pilot2","3Q5C1WP23M26ZVGWFZTTEC5ZA6P510","41",NULL,"JANUARY","8","JULY","9","0","2357","0",,,,"2018-07-24 15:42:02","497760"
"A3SJA2R2M8OHYL","cs_wg_full_v4_conf_pilot2","3OVHNO1VE62YY4GX2GK44ID302ZDZ4","11",NULL,"MAY","1","FEBRUARY","6","1","11450","1",,,,"2018-07-24 15:42:03","497761"
"A2T11H7YI7QPGD","cs_wg_full_v4_conf_pilot2","3V5Q80FXIXSAA1BOKK5E4YHKOGC23O","20",NULL,"APRIL","8","FEBRUARY","2","0","1318","1",,,,"2018-07-24 15:42:03","497762"
"A3HKMZ9ML9EPUY","cs_wg_full_v4_conf_pilot2","3WR9XG3T63C2EYRYQARSAUQYDWU74U","38",NULL,"JULY","5","SEPTEMBER","1","0","1256","1",,,,"2018-07-24 15:42:04","497763"
"A2JFNQK7HIFFC9","cs_wg_full_v4_conf_pilot2","3JRJSWSMQHM25HN4D40F6ZQ9LJ1E31","20",NULL,"OCTOBER","11","JUNE","5","0","2070","1",,,,"2018-07-24 15:42:05","497764"
"A3TLI95L5GOBKG","cs_wg_full_v4_conf_pilot2","3HVVDCPGTET5A32PSKI0VFMNXUJYTH","37",NULL,"DECEMBER","5","FEBRUARY","9","1","1799","1",,,,"2018-07-24 15:42:05","497765"
"A2W5RJFHZRE8IS","cs_wg_full_v4_conf_pilot2","382M9COHEHGM4B0NSOWGT8G9YWLUEP","41",NULL,"JULY","12","JUNE","8","0","648","1",,,,"2018-07-24 15:42:06","497766"
"A1TD4CM1NKIQ65","cs_wg_full_v4_conf_pilot2","3URFVVM165JKF6RJOBATEIHRM2UUZV","19",NULL,"JANUARY","5","OCTOBER","8","1","2897","1",,,,"2018-07-24 15:42:07","497767"
"A3E17U6SI0WJWH","cs_wg_full_v4_conf_pilot2","338JKRMM260E9CDRCKNVEA1SJ9NHAI","4",NULL,"AUGUST","6","APRIL","10","0","3596","1",,,,"2018-07-24 15:42:07","497768"
"A1BSL1VC7PQR04","cs_wg_full_v4_conf_pilot2","3C44YUNSI1Q4K0ERF7M2DKBPQ3SPDV","34",NULL,"MARCH","2","JULY","1","1","2075","0",,,,"2018-07-24 15:42:07","497769"
"A2SNM3YVWIDKLM","cs_wg_full_v4_conf_pilot2","3II4UPYCOJ8PKCF6FK1RDP1ZVZEDQA","31",NULL,"SEPTEMBER","9","NOVEMBER","7","1","3094","0",,,,"2018-07-24 15:42:08","497770"
"AVUTKN1N2TIF4","cs_wg_full_v4_conf_pilot2","3Q5C1WP23M26ZVGWFZTTEC5ZA6P510","42",NULL,"JANUARY","8","FEBRUARY","1","0","1593","1",,,,"2018-07-24 15:42:08","497771"
"A28MDXDNK6QHMS","cs_wg_full_v4_conf_pilot2","3EWIJTFFVO86OPO7UHIW41S2I7I0ET","26",NULL,"AUGUST","6","JUNE","3","1","2612","0",,,,"2018-07-24 15:42:09","497772"
"A3HKMZ9ML9EPUY","cs_wg_full_v4_conf_pilot2","3WR9XG3T63C2EYRYQARSAUQYDWU74U","39",NULL,"JUNE","11","FEBRUARY","6","0","2009","1",,,,"2018-07-24 15:42:10","497773"
"A3TLI95L5GOBKG","cs_wg_full_v4_conf_pilot2","3HVVDCPGTET5A32PSKI0VFMNXUJYTH","38",NULL,"FEBRUARY","9","MARCH","8","0","1211","1",,,,"2018-07-24 15:42:10","497774"
"A2W5RJFHZRE8IS","cs_wg_full_v4_conf_pilot2","382M9COHEHGM4B0NSOWGT8G9YWLUEP","42",NULL,"FEBRUARY","9","JANUARY","4","0","1094","1",,,,"2018-07-24 15:42:11","497775"
"AFMAV43Q6NQPG","cs_wg_full_v4_conf_pilot2","3WSELTNVR334EL4MCE4KST4GU3ITA4","13",NULL,"APRIL","3","JUNE","9","0","3327","0",,,,"2018-07-24 15:42:11","497776"
"A3SJA2R2M8OHYL","cs_wg_full_v4_conf_pilot2","3OVHNO1VE62YY4GX2GK44ID302ZDZ4","12",NULL,"DECEMBER","10","JANUARY","4","0","2465","1",,,,"2018-07-24 15:42:12","497777"
"A2JFNQK7HIFFC9","cs_wg_full_v4_conf_pilot2","3JRJSWSMQHM25HN4D40F6ZQ9LJ1E31","21",NULL,"OCTOBER","11","NOVEMBER","9","0","2831","1",,,,"2018-07-24 15:42:13","497778"
"A1BSL1VC7PQR04","cs_wg_full_v4_conf_pilot2","3C44YUNSI1Q4K0ERF7M2DKBPQ3SPDV","35",NULL,"OCTOBER","4","APRIL","5","0","1309","0",,,,"2018-07-24 15:42:13","497779"
"A2T11H7YI7QPGD","cs_wg_full_v4_conf_pilot2","3V5Q80FXIXSAA1BOKK5E4YHKOGC23O","21",NULL,"DECEMBER","11","JULY","7","0","3984","1",,,,"2018-07-24 15:42:13","497780"
"AVUTKN1N2TIF4","cs_wg_full_v4_conf_pilot2","3Q5C1WP23M26ZVGWFZTTEC5ZA6P510","43",NULL,"JUNE","11","FEBRUARY","1","0","2390","1",,,,"2018-07-24 15:42:14","497781"
"A28MDXDNK6QHMS","cs_wg_full_v4_conf_pilot2","3EWIJTFFVO86OPO7UHIW41S2I7I0ET","27",NULL,"APRIL","2","JULY","4","1","2024","1",,,,"2018-07-24 15:42:15","497782"
"A3HKMZ9ML9EPUY","cs_wg_full_v4_conf_pilot2","3WR9XG3T63C2EYRYQARSAUQYDWU74U","40",NULL,"SEPTEMBER","1","DECEMBER","2","1","1165","1",,,,"2018-07-24 15:42:15","497783"
"A1TD4CM1NKIQ65","cs_wg_full_v4_conf_pilot2","3URFVVM165JKF6RJOBATEIHRM2UUZV","20",NULL,"FEBRUARY","12","NOVEMBER","9","1","2569","0",,,,"2018-07-24 15:42:16","497784"
"A2W5RJFHZRE8IS","cs_wg_full_v4_conf_pilot2","382M9COHEHGM4B0NSOWGT8G9YWLUEP","43",NULL,"FEBRUARY","9","DECEMBER","7","0","1171","1",,,,"2018-07-24 15:42:16","497785"
"A3E17U6SI0WJWH","cs_wg_full_v4_conf_pilot2","338JKRMM260E9CDRCKNVEA1SJ9NHAI","5",NULL,"OCTOBER","11","FEBRUARY","8","1","2287","1",,,,"2018-07-24 15:42:17","497786"
"A2SNM3YVWIDKLM","cs_wg_full_v4_conf_pilot2","3II4UPYCOJ8PKCF6FK1RDP1ZVZEDQA","32",NULL,"APRIL","6","JUNE","5","1","3136","0",,,,"2018-07-24 15:42:17","497787"
"A3TLI95L5GOBKG","cs_wg_full_v4_conf_pilot2","3HVVDCPGTET5A32PSKI0VFMNXUJYTH","39",NULL,"AUGUST","6","JANUARY","12","1","687","1",,,,"2018-07-24 15:42:17","497788"
"A3SJA2R2M8OHYL","cs_wg_full_v4_conf_pilot2","3OVHNO1VE62YY4GX2GK44ID302ZDZ4","13",NULL,"DECEMBER","10","SEPTEMBER","9","0","1912","1",,,,"2018-07-24 15:42:19","497789"
"A1BSL1VC7PQR04","cs_wg_full_v4_conf_pilot2","3C44YUNSI1Q4K0ERF7M2DKBPQ3SPDV","36",NULL,"APRIL","5","OCTOBER","4","1","1979","0",,,,"2018-07-24 15:42:20","497790"
"AVUTKN1N2TIF4","cs_wg_full_v4_conf_pilot2","3Q5C1WP23M26ZVGWFZTTEC5ZA6P510","44",NULL,"FEBRUARY","1","MARCH","12","1","1957","1",,,,"2018-07-24 15:42:21","497791"
"A1HRUOWTIK5HYY","cs_wg_full_v4_conf_pilot2","3OSWBBLG1EY9T9GI1YWJ7XXSS21XDR","0",NULL,"NOVEMBER","3","DECEMBER","5","1","12931","1",,,,"2018-07-24 15:42:21","497792"
"A2T11H7YI7QPGD","cs_wg_full_v4_conf_pilot2","3V5Q80FXIXSAA1BOKK5E4YHKOGC23O","22",NULL,"MARCH","5","APRIL","8","1","1188","1",,,,"2018-07-24 15:42:21","497793"
"A2JFNQK7HIFFC9","cs_wg_full_v4_conf_pilot2","3JRJSWSMQHM25HN4D40F6ZQ9LJ1E31","22",NULL,"JUNE","5","APRIL","1","0","3773","1",,,,"2018-07-24 15:42:21","497794"
"A3HKMZ9ML9EPUY","cs_wg_full_v4_conf_pilot2","3WR9XG3T63C2EYRYQARSAUQYDWU74U","41",NULL,"MARCH","10","AUGUST","8","0","1800","1",,,,"2018-07-24 15:42:22","497795"
"A2W5RJFHZRE8IS","cs_wg_full_v4_conf_pilot2","382M9COHEHGM4B0NSOWGT8G9YWLUEP","44",NULL,"JUNE","8","SEPTEMBER","5","0","1114","1",,,,"2018-07-24 15:42:22","497796"
"A3TLI95L5GOBKG","cs_wg_full_v4_conf_pilot2","3HVVDCPGTET5A32PSKI0VFMNXUJYTH","40",NULL,"OCTOBER","2","JULY","7","0","997","0",,,,"2018-07-24 15:42:22","497797"
"A28MDXDNK6QHMS","cs_wg_full_v4_conf_pilot2","3EWIJTFFVO86OPO7UHIW41S2I7I0ET","28",NULL,"MARCH","1","MAY","11","1","2207","1",,,,"2018-07-24 15:42:23","497798"
"AFMAV43Q6NQPG","cs_wg_full_v4_conf_pilot2","3WSELTNVR334EL4MCE4KST4GU3ITA4","14",NULL,"AUGUST","2","MARCH","6","1","2382","0",,,,"2018-07-24 15:42:23","497799"
"A1OJHCH57D3JW1","cs_wg_full_v4_conf_pilot2","3X4MXAO0BGPO5JUX9UVHA30PY1MWR3","0",NULL,"MARCH","11","OCTOBER","10","1","8536","1",,,,"2018-07-24 15:42:25","497800"
"A1TD4CM1NKIQ65","cs_wg_full_v4_conf_pilot2","3URFVVM165JKF6RJOBATEIHRM2UUZV","21",NULL,"MARCH","3","JULY","11","1","1888","1",,,,"2018-07-24 15:42:26","497801"
"A2SNM3YVWIDKLM","cs_wg_full_v4_conf_pilot2","3II4UPYCOJ8PKCF6FK1RDP1ZVZEDQA","33",NULL,"AUGUST","4","APRIL","6","1","3742","1",,,,"2018-07-24 15:42:26","497802"
"A3SJA2R2M8OHYL","cs_wg_full_v4_conf_pilot2","3OVHNO1VE62YY4GX2GK44ID302ZDZ4","14",NULL,"OCTOBER","12","MARCH","3","0","2309","1",,,,"2018-07-24 15:42:26","497803"
"A2W5RJFHZRE8IS","cs_wg_full_v4_conf_pilot2","382M9COHEHGM4B0NSOWGT8G9YWLUEP","45",NULL,"APRIL","11","NOVEMBER","6","0","650","1",,,,"2018-07-24 15:42:27","497804"
"A3CLH8841QVGI4","cs_wg_full_v4_conf_pilot2","3PS7W85Z8Z3Q92UHK8QKWYTWOL0T9P","0",NULL,"JUNE","4","JANUARY","3","1","7782","1",,,,"2018-07-24 15:42:27","497805"
"AVUTKN1N2TIF4","cs_wg_full_v4_conf_pilot2","3Q5C1WP23M26ZVGWFZTTEC5ZA6P510","45",NULL,"FEBRUARY","1","NOVEMBER","6","1","2204","1",,,,"2018-07-24 15:42:28","497806"
"A3E17U6SI0WJWH","cs_wg_full_v4_conf_pilot2","338JKRMM260E9CDRCKNVEA1SJ9NHAI","6",NULL,"DECEMBER","5","OCTOBER","11","1","2923","1",,,,"2018-07-24 15:42:28","497807"
"A2T11H7YI7QPGD","cs_wg_full_v4_conf_pilot2","3V5Q80FXIXSAA1BOKK5E4YHKOGC23O","23",NULL,"JUNE","4","JULY","7","1","3041","1",,,,"2018-07-24 15:42:28","497808"
"A3HKMZ9ML9EPUY","cs_wg_full_v4_conf_pilot2","3WR9XG3T63C2EYRYQARSAUQYDWU74U","42",NULL,"JUNE","11","JANUARY","7","1","2504","0",,,,"2018-07-24 15:42:29","497809"
"A28MDXDNK6QHMS","cs_wg_full_v4_conf_pilot2","3EWIJTFFVO86OPO7UHIW41S2I7I0ET","29",NULL,"MAY","11","MARCH","1","0","873","1",,,,"2018-07-24 15:42:29","497810"
"A3TLI95L5GOBKG","cs_wg_full_v4_conf_pilot2","3HVVDCPGTET5A32PSKI0VFMNXUJYTH","41",NULL,"SEPTEMBER","3","FEBRUARY","9","1","1136","1",,,,"2018-07-24 15:42:30","497811"
"A2JFNQK7HIFFC9","cs_wg_full_v4_conf_pilot2","3JRJSWSMQHM25HN4D40F6ZQ9LJ1E31","23",NULL,"JUNE","5","MARCH","8","1","2884","1",,,,"2018-07-24 15:42:30","497812"
"A1BSL1VC7PQR04","cs_wg_full_v4_conf_pilot2","3C44YUNSI1Q4K0ERF7M2DKBPQ3SPDV","37",NULL,"FEBRUARY","3","OCTOBER","4","0","2900","0",,,,"2018-07-24 15:42:32","497813"
"A2W5RJFHZRE8IS","cs_wg_full_v4_conf_pilot2","382M9COHEHGM4B0NSOWGT8G9YWLUEP","46",NULL,"JULY","12","MAY","3","0","847","1",,,,"2018-07-24 15:42:32","497814"
"AVUTKN1N2TIF4","cs_wg_full_v4_conf_pilot2","3Q5C1WP23M26ZVGWFZTTEC5ZA6P510","46",NULL,"MARCH","12","JANUARY","8","0","1208","1",,,,"2018-07-24 15:42:33","497815"
"A1HRUOWTIK5HYY","cs_wg_full_v4_conf_pilot2","3OSWBBLG1EY9T9GI1YWJ7XXSS21XDR","1",NULL,"NOVEMBER","3","JANUARY","11","1","3808","0",,,,"2018-07-24 15:42:34","497816"
"A3SJA2R2M8OHYL","cs_wg_full_v4_conf_pilot2","3OVHNO1VE62YY4GX2GK44ID302ZDZ4","15",NULL,"AUGUST","8","APRIL","11","0","1441","0",,,,"2018-07-24 15:42:34","497817"
"A2SNM3YVWIDKLM","cs_wg_full_v4_conf_pilot2","3II4UPYCOJ8PKCF6FK1RDP1ZVZEDQA","34",NULL,"OCTOBER","10","FEBRUARY","2","0","3886","1",,,,"2018-07-24 15:42:35","497818"
"A3TLI95L5GOBKG","cs_wg_full_v4_conf_pilot2","3HVVDCPGTET5A32PSKI0VFMNXUJYTH","42",NULL,"JUNE","1","OCTOBER","2","0","421","0",,,,"2018-07-24 15:42:35","497819"
"A3HKMZ9ML9EPUY","cs_wg_full_v4_conf_pilot2","3WR9XG3T63C2EYRYQARSAUQYDWU74U","43",NULL,"DECEMBER","2","OCTOBER","4","1","2380","1",,,,"2018-07-24 15:42:36","497820"
"A1TD4CM1NKIQ65","cs_wg_full_v4_conf_pilot2","3URFVVM165JKF6RJOBATEIHRM2UUZV","22",NULL,"MAY","6","DECEMBER","1","1","2655","0",,,,"2018-07-24 15:42:36","497821"
"A2T11H7YI7QPGD","cs_wg_full_v4_conf_pilot2","3V5Q80FXIXSAA1BOKK5E4YHKOGC23O","24",NULL,"DECEMBER","11","APRIL","8","0","3097","1",,,,"2018-07-24 15:42:36","497822"
"A21W6704ES6YYZ","cs_wg_full_v4_conf_pilot2","3QFUFYSY9YGFTR648TP4YM3FBKHF4A","0",NULL,"DECEMBER","11","JANUARY","10","0","4774","1",,,,"2018-07-24 15:42:36","497823"
"A3E17U6SI0WJWH","cs_wg_full_v4_conf_pilot2","338JKRMM260E9CDRCKNVEA1SJ9NHAI","7",NULL,"FEBRUARY","8","JUNE","4","0","1622","1",,,,"2018-07-24 15:42:37","497824"
"A2JFNQK7HIFFC9","cs_wg_full_v4_conf_pilot2","3JRJSWSMQHM25HN4D40F6ZQ9LJ1E31","24",NULL,"JANUARY","12","APRIL","1","0","2932","1",,,,"2018-07-24 15:42:38","497825"
"AFMAV43Q6NQPG","cs_wg_full_v4_conf_pilot2","3WSELTNVR334EL4MCE4KST4GU3ITA4","15",NULL,"APRIL","3","MAY","8","1","5470","0",,,,"2018-07-24 15:42:39","497826"
"AVUTKN1N2TIF4","cs_wg_full_v4_conf_pilot2","3Q5C1WP23M26ZVGWFZTTEC5ZA6P510","47",NULL,"SEPTEMBER","3","NOVEMBER","6","1","1941","1",,,,"2018-07-24 15:42:40","497827"
"A3TLI95L5GOBKG","cs_wg_full_v4_conf_pilot2","3HVVDCPGTET5A32PSKI0VFMNXUJYTH","43",NULL,"APRIL","10","OCTOBER","2","0","1279","1",,,,"2018-07-24 15:42:41","497828"
"A1BSL1VC7PQR04","cs_wg_full_v4_conf_pilot2","3C44YUNSI1Q4K0ERF7M2DKBPQ3SPDV","38",NULL,"OCTOBER","4","JANUARY","11","1","4122","1",,,,"2018-07-24 15:42:41","497829"
"A28MDXDNK6QHMS","cs_wg_full_v4_conf_pilot2","3EWIJTFFVO86OPO7UHIW41S2I7I0ET","30",NULL,"OCTOBER","5","FEBRUARY","10","0","3405","0",,,,"2018-07-24 15:42:42","497830"
"A3SJA2R2M8OHYL","cs_wg_full_v4_conf_pilot2","3OVHNO1VE62YY4GX2GK44ID302ZDZ4","16",NULL,"JULY","2","SEPTEMBER","9","1","3552","1",,,,"2018-07-24 15:42:43","497831"
"A2T11H7YI7QPGD","cs_wg_full_v4_conf_pilot2","3V5Q80FXIXSAA1BOKK5E4YHKOGC23O","25",NULL,"OCTOBER","1","JUNE","4","1","3627","1",,,,"2018-07-24 15:42:44","497832"
"A2W5RJFHZRE8IS","cs_wg_full_v4_conf_pilot2","382M9COHEHGM4B0NSOWGT8G9YWLUEP","47",NULL,"JUNE","8","MAY","3","0","7202","1",,,,"2018-07-24 15:42:44","497833"
"A2SNM3YVWIDKLM","cs_wg_full_v4_conf_pilot2","3II4UPYCOJ8PKCF6FK1RDP1ZVZEDQA","35",NULL,"JULY","12","JANUARY","11","0","2472","1",,,,"2018-07-24 15:42:45","497834"
"A3E17U6SI0WJWH","cs_wg_full_v4_conf_pilot2","338JKRMM260E9CDRCKNVEA1SJ9NHAI","8",NULL,"MAY","12","AUGUST","6","1","1740","1",,,,"2018-07-24 15:42:45","497835"
"A1TD4CM1NKIQ65","cs_wg_full_v4_conf_pilot2","3URFVVM165JKF6RJOBATEIHRM2UUZV","23",NULL,"SEPTEMBER","10","JUNE","4","0","1825","1",,,,"2018-07-24 15:42:45","497836"
"A21W6704ES6YYZ","cs_wg_full_v4_conf_pilot2","3QFUFYSY9YGFTR648TP4YM3FBKHF4A","1",NULL,"MARCH","6","JULY","3","1","2103","0",,,,"2018-07-24 15:42:46","497837"
"A2JFNQK7HIFFC9","cs_wg_full_v4_conf_pilot2","3JRJSWSMQHM25HN4D40F6ZQ9LJ1E31","25",NULL,"MARCH","8","DECEMBER","4","1","3652","0",,,,"2018-07-24 15:42:46","497838"
"A3HKMZ9ML9EPUY","cs_wg_full_v4_conf_pilot2","3WR9XG3T63C2EYRYQARSAUQYDWU74U","44",NULL,"OCTOBER","4","MARCH","10","1","5723","1",,,,"2018-07-24 15:42:46","497839"
"AFMAV43Q6NQPG","cs_wg_full_v4_conf_pilot2","3WSELTNVR334EL4MCE4KST4GU3ITA4","16",NULL,"JUNE","9","OCTOBER","4","1","1951","0",,,,"2018-07-24 15:42:46","497840"
"AVUTKN1N2TIF4","cs_wg_full_v4_conf_pilot2","3Q5C1WP23M26ZVGWFZTTEC5ZA6P510","48",NULL,"APRIL","4","JANUARY","8","0","2512","0",,,,"2018-07-24 15:42:47","497841"
"A1R4IO6YBLJTWJ","cs_wg_full_v4_conf_pilot2","3HQUKB7LNFFTJZL5IQXNVWOWW4CHHS","0",NULL,"NOVEMBER","12","APRIL","7","0","10775","1",,,,"2018-07-24 15:42:47","497842"
"A3TLI95L5GOBKG","cs_wg_full_v4_conf_pilot2","3HVVDCPGTET5A32PSKI0VFMNXUJYTH","44",NULL,"MAY","11","JANUARY","12","1","595","1",,,,"2018-07-24 15:42:47","497843"
"A1BSL1VC7PQR04","cs_wg_full_v4_conf_pilot2","3C44YUNSI1Q4K0ERF7M2DKBPQ3SPDV","39",NULL,"APRIL","5","AUGUST","8","1","1687","1",,,,"2018-07-24 15:42:48","497844"
"A2W5RJFHZRE8IS","cs_wg_full_v4_conf_pilot2","382M9COHEHGM4B0NSOWGT8G9YWLUEP","48",NULL,"APRIL","11","AUGUST","2","0","701","1",,,,"2018-07-24 15:42:49","497845"
"A28MDXDNK6QHMS","cs_wg_full_v4_conf_pilot2","3EWIJTFFVO86OPO7UHIW41S2I7I0ET","31",NULL,"JANUARY","8","JUNE","3","0","2878","1",,,,"2018-07-24 15:42:51","497846"
"A2T11H7YI7QPGD","cs_wg_full_v4_conf_pilot2","3V5Q80FXIXSAA1BOKK5E4YHKOGC23O","26",NULL,"DECEMBER","11","FEBRUARY","2","0","3032","1",,,,"2018-07-24 15:42:51","497847"
"A2SNM3YVWIDKLM","cs_wg_full_v4_conf_pilot2","3II4UPYCOJ8PKCF6FK1RDP1ZVZEDQA","36",NULL,"JANUARY","11","APRIL","6","0","1680","1",,,,"2018-07-24 15:42:51","497848"
"A3SJA2R2M8OHYL","cs_wg_full_v4_conf_pilot2","3OVHNO1VE62YY4GX2GK44ID302ZDZ4","17",NULL,"SEPTEMBER","9","JANUARY","4","0","2022","1",,,,"2018-07-24 15:42:51","497849"
"A3HKMZ9ML9EPUY","cs_wg_full_v4_conf_pilot2","3WR9XG3T63C2EYRYQARSAUQYDWU74U","45",NULL,"MARCH","10","OCTOBER","4","0","1054","1",,,,"2018-07-24 15:42:51","497850"
"A2JFNQK7HIFFC9","cs_wg_full_v4_conf_pilot2","3JRJSWSMQHM25HN4D40F6ZQ9LJ1E31","26",NULL,"MARCH","8","FEBRUARY","6","0","1843","1",,,,"2018-07-24 15:42:53","497851"
"A1TD4CM1NKIQ65","cs_wg_full_v4_conf_pilot2","3URFVVM165JKF6RJOBATEIHRM2UUZV","24",NULL,"APRIL","2","AUGUST","7","1","2014","1",,,,"2018-07-24 15:42:54","497852"
"A3TLI95L5GOBKG","cs_wg_full_v4_conf_pilot2","3HVVDCPGTET5A32PSKI0VFMNXUJYTH","45",NULL,"FEBRUARY","9","JULY","7","0","1494","1",,,,"2018-07-24 15:42:54","497853"
"AVUTKN1N2TIF4","cs_wg_full_v4_conf_pilot2","3Q5C1WP23M26ZVGWFZTTEC5ZA6P510","49",NULL,"NOVEMBER","6","MAY","10","1","2474","1",,,,"2018-07-24 15:42:54","497854"
"A2W5RJFHZRE8IS","cs_wg_full_v4_conf_pilot2","382M9COHEHGM4B0NSOWGT8G9YWLUEP","49",NULL,"MARCH","1","JANUARY","4","1","863","1",,,,"2018-07-24 15:42:54","497855"
"A3E17U6SI0WJWH","cs_wg_full_v4_conf_pilot2","338JKRMM260E9CDRCKNVEA1SJ9NHAI","9",NULL,"JANUARY","3","APRIL","10","0","632","0",,,,"2018-07-24 15:42:55","497856"
"AFMAV43Q6NQPG","cs_wg_full_v4_conf_pilot2","3WSELTNVR334EL4MCE4KST4GU3ITA4","17",NULL,"MARCH","6","AUGUST","2","1","2432","0",,,,"2018-07-24 15:42:55","497857"
"A1BSL1VC7PQR04","cs_wg_full_v4_conf_pilot2","3C44YUNSI1Q4K0ERF7M2DKBPQ3SPDV","40",NULL,"DECEMBER","7","AUGUST","8","0","2659","0",,,,"2018-07-24 15:42:56","497858"
"A2T11H7YI7QPGD","cs_wg_full_v4_conf_pilot2","3V5Q80FXIXSAA1BOKK5E4YHKOGC23O","27",NULL,"FEBRUARY","2","NOVEMBER","6","1","834","1",,,,"2018-07-24 15:42:57","497859"
"A1HRUOWTIK5HYY","cs_wg_full_v4_conf_pilot2","3OSWBBLG1EY9T9GI1YWJ7XXSS21XDR","2",NULL,"APRIL","7","JULY","6","1","8325","1",,,,"2018-07-24 15:42:57","497860"
"A21W6704ES6YYZ","cs_wg_full_v4_conf_pilot2","3QFUFYSY9YGFTR648TP4YM3FBKHF4A","2",NULL,"MAY","8","NOVEMBER","4","0","3701","1",,,,"2018-07-24 15:42:57","497861"
"A28MDXDNK6QHMS","cs_wg_full_v4_conf_pilot2","3EWIJTFFVO86OPO7UHIW41S2I7I0ET","32",NULL,"NOVEMBER","9","APRIL","2","0","1820","1",,,,"2018-07-24 15:42:57","497862"
"A3HKMZ9ML9EPUY","cs_wg_full_v4_conf_pilot2","3WR9XG3T63C2EYRYQARSAUQYDWU74U","46",NULL,"JULY","5","JANUARY","7","0","1704","0",,,,"2018-07-24 15:42:58","497863"
"A3TLI95L5GOBKG","cs_wg_full_v4_conf_pilot2","3HVVDCPGTET5A32PSKI0VFMNXUJYTH","46",NULL,"SEPTEMBER","3","MAY","11","1","671","1",,,,"2018-07-24 15:43:00","497864"
"A2W5RJFHZRE8IS","cs_wg_full_v4_conf_pilot2","382M9COHEHGM4B0NSOWGT8G9YWLUEP","50",NULL,"AUGUST","2","DECEMBER","7","1","1294","1",,,,"2018-07-24 15:43:00","497865"
"AVUTKN1N2TIF4","cs_wg_full_v4_conf_pilot2","3Q5C1WP23M26ZVGWFZTTEC5ZA6P510","50",NULL,"OCTOBER","5","FEBRUARY","1","0","1800","1",,,,"2018-07-24 15:43:00","497866"
"A2SNM3YVWIDKLM","cs_wg_full_v4_conf_pilot2","3II4UPYCOJ8PKCF6FK1RDP1ZVZEDQA","37",NULL,"APRIL","6","AUGUST","4","0","3193","1",,,,"2018-07-24 15:43:00","497867"
"A3SJA2R2M8OHYL","cs_wg_full_v4_conf_pilot2","3OVHNO1VE62YY4GX2GK44ID302ZDZ4","18",NULL,"FEBRUARY","6","APRIL","11","1","3954","1",,,,"2018-07-24 15:43:01","497868"
"A3E17U6SI0WJWH","cs_wg_full_v4_conf_pilot2","338JKRMM260E9CDRCKNVEA1SJ9NHAI","10",NULL,"MARCH","9","JUNE","4","1","1614","0",,,,"2018-07-24 15:43:02","497869"
"A1R4IO6YBLJTWJ","cs_wg_full_v4_conf_pilot2","3HQUKB7LNFFTJZL5IQXNVWOWW4CHHS","1",NULL,"JULY","11","OCTOBER","2","1","5403","1",,,,"2018-07-24 15:43:03","497870"
"A1TD4CM1NKIQ65","cs_wg_full_v4_conf_pilot2","3URFVVM165JKF6RJOBATEIHRM2UUZV","25",NULL,"MAY","6","OCTOBER","8","0","2155","0",,,,"2018-07-24 15:43:03","497871"
"A1BSL1VC7PQR04","cs_wg_full_v4_conf_pilot2","3C44YUNSI1Q4K0ERF7M2DKBPQ3SPDV","41",NULL,"MARCH","2","OCTOBER","4","1","2317","1",,,,"2018-07-24 15:43:03","497872"
"A1OJHCH57D3JW1","cs_wg_full_v4_conf_pilot2","3X4MXAO0BGPO5JUX9UVHA30PY1MWR3","1",NULL,"FEBRUARY","3","SEPTEMBER","1","1","17875","1",,,,"2018-07-24 15:43:03","497873"
"A3HKMZ9ML9EPUY","cs_wg_full_v4_conf_pilot2","3WR9XG3T63C2EYRYQARSAUQYDWU74U","47",NULL,"JUNE","11","OCTOBER","4","0","1426","1",,,,"2018-07-24 15:43:04","497874"
"AFMAV43Q6NQPG","cs_wg_full_v4_conf_pilot2","3WSELTNVR334EL4MCE4KST4GU3ITA4","18",NULL,"NOVEMBER","7","DECEMBER","5","0","2023","1",,,,"2018-07-24 15:43:04","497875"
"A2W5RJFHZRE8IS","cs_wg_full_v4_conf_pilot2","382M9COHEHGM4B0NSOWGT8G9YWLUEP","51",NULL,"FEBRUARY","9","JULY","12","1","472","1",,,,"2018-07-24 15:43:04","497876"
"A3TLI95L5GOBKG","cs_wg_full_v4_conf_pilot2","3HVVDCPGTET5A32PSKI0VFMNXUJYTH","47",NULL,"DECEMBER","5","AUGUST","6","0","639","0",,,,"2018-07-24 15:43:06","497877"
"A21W6704ES6YYZ","cs_wg_full_v4_conf_pilot2","3QFUFYSY9YGFTR648TP4YM3FBKHF4A","3",NULL,"JANUARY","10","MARCH","6","1","2758","0",,,,"2018-07-24 15:43:06","497878"
"AVUTKN1N2TIF4","cs_wg_full_v4_conf_pilot2","3Q5C1WP23M26ZVGWFZTTEC5ZA6P510","51",NULL,"NOVEMBER","6","APRIL","4","1","2281","0",,,,"2018-07-24 15:43:07","497879"
"A3CLH8841QVGI4","cs_wg_full_v4_conf_pilot2","3PS7W85Z8Z3Q92UHK8QKWYTWOL0T9P","1",NULL,"JULY","5","JUNE","4","0","30559","1",,,,"2018-07-24 15:43:08","497880"
"A3E17U6SI0WJWH","cs_wg_full_v4_conf_pilot2","338JKRMM260E9CDRCKNVEA1SJ9NHAI","11",NULL,"DECEMBER","5","APRIL","10","0","1282","0",,,,"2018-07-24 15:43:09","497881"
"A2W5RJFHZRE8IS","cs_wg_full_v4_conf_pilot2","382M9COHEHGM4B0NSOWGT8G9YWLUEP","52",NULL,"JUNE","8","MARCH","1","0","596","1",,,,"2018-07-24 15:43:09","497882"
"A2T11H7YI7QPGD","cs_wg_full_v4_conf_pilot2","3V5Q80FXIXSAA1BOKK5E4YHKOGC23O","28",NULL,"OCTOBER","1","DECEMBER","11","1","1104","1",,,,"2018-07-24 15:43:09","497883"
"A3SJA2R2M8OHYL","cs_wg_full_v4_conf_pilot2","3OVHNO1VE62YY4GX2GK44ID302ZDZ4","19",NULL,"APRIL","11","NOVEMBER","7","0","4397","1",,,,"2018-07-24 15:43:10","497884"
"A1BSL1VC7PQR04","cs_wg_full_v4_conf_pilot2","3C44YUNSI1Q4K0ERF7M2DKBPQ3SPDV","42",NULL,"NOVEMBER","9","OCTOBER","4","0","2052","1",,,,"2018-07-24 15:43:10","497885"
"A3TLI95L5GOBKG","cs_wg_full_v4_conf_pilot2","3HVVDCPGTET5A32PSKI0VFMNXUJYTH","48",NULL,"JUNE","1","DECEMBER","5","1","281","1",,,,"2018-07-24 15:43:11","497886"
"A1TD4CM1NKIQ65","cs_wg_full_v4_conf_pilot2","3URFVVM165JKF6RJOBATEIHRM2UUZV","26",NULL,"JANUARY","5","APRIL","2","1","2188","0",,,,"2018-07-24 15:43:11","497887"
"A2SNM3YVWIDKLM","cs_wg_full_v4_conf_pilot2","3II4UPYCOJ8PKCF6FK1RDP1ZVZEDQA","38",NULL,"SEPTEMBER","9","AUGUST","4","0","3783","1",,,,"2018-07-24 15:43:12","497888"
"A3HKMZ9ML9EPUY","cs_wg_full_v4_conf_pilot2","3WR9XG3T63C2EYRYQARSAUQYDWU74U","48",NULL,"DECEMBER","2","FEBRUARY","6","0","2666","0",,,,"2018-07-24 15:43:12","497889"
"AVUTKN1N2TIF4","cs_wg_full_v4_conf_pilot2","3Q5C1WP23M26ZVGWFZTTEC5ZA6P510","52",NULL,"FEBRUARY","1","APRIL","4","1","1371","1",,,,"2018-07-24 15:43:12","497890"
"A28MDXDNK6QHMS","cs_wg_full_v4_conf_pilot2","3EWIJTFFVO86OPO7UHIW41S2I7I0ET","33",NULL,"JULY","4","AUGUST","6","1","11691","1",,,,"2018-07-24 15:43:14","497891"
"AJUFGQMHFSJ1I","cs_wg_full_v4_conf_pilot2","3VFJCI1K4Z0S8X4XUPRZO0E14D0RG3","0",NULL,"NOVEMBER","5","MAY","1","0","48993","1",,,,"2018-07-24 15:43:14","497892"
"A2W5RJFHZRE8IS","cs_wg_full_v4_conf_pilot2","382M9COHEHGM4B0NSOWGT8G9YWLUEP","53",NULL,"JANUARY","4","FEBRUARY","9","1","906","1",,,,"2018-07-24 15:43:14","497893"
"AFMAV43Q6NQPG","cs_wg_full_v4_conf_pilot2","3WSELTNVR334EL4MCE4KST4GU3ITA4","19",NULL,"JULY","10","JANUARY","11","1","3313","1",,,,"2018-07-24 15:43:15","497894"
"A21W6704ES6YYZ","cs_wg_full_v4_conf_pilot2","3QFUFYSY9YGFTR648TP4YM3FBKHF4A","4",NULL,"SEPTEMBER","9","JUNE","1","0","2051","1",,,,"2018-07-24 15:43:16","497895"
"A3E17U6SI0WJWH","cs_wg_full_v4_conf_pilot2","338JKRMM260E9CDRCKNVEA1SJ9NHAI","12",NULL,"NOVEMBER","7","JANUARY","3","1","840","0",,,,"2018-07-24 15:43:16","497896"
"A1HRUOWTIK5HYY","cs_wg_full_v4_conf_pilot2","3OSWBBLG1EY9T9GI1YWJ7XXSS21XDR","3",NULL,"FEBRUARY","12","JULY","6","1","5611","0",,,,"2018-07-24 15:43:16","497897"
"A3TLI95L5GOBKG","cs_wg_full_v4_conf_pilot2","3HVVDCPGTET5A32PSKI0VFMNXUJYTH","49",NULL,"NOVEMBER","4","JANUARY","12","0","479","0",,,,"2018-07-24 15:43:17","497898"
"A1BSL1VC7PQR04","cs_wg_full_v4_conf_pilot2","3C44YUNSI1Q4K0ERF7M2DKBPQ3SPDV","43",NULL,"JUNE","6","DECEMBER","7","1","1893","1",,,,"2018-07-24 15:43:17","497899"
"A3CLH8841QVGI4","cs_wg_full_v4_conf_pilot2","3PS7W85Z8Z3Q92UHK8QKWYTWOL0T9P","2",NULL,"NOVEMBER","12","JUNE","4","1","2958","1",,,,"2018-07-24 15:43:18","497900"
"A3HKMZ9ML9EPUY","cs_wg_full_v4_conf_pilot2","3WR9XG3T63C2EYRYQARSAUQYDWU74U","49",NULL,"NOVEMBER","12","DECEMBER","2","0","1194","1",,,,"2018-07-24 15:43:18","497901"
"AVUTKN1N2TIF4","cs_wg_full_v4_conf_pilot2","3Q5C1WP23M26ZVGWFZTTEC5ZA6P510","53",NULL,"FEBRUARY","1","DECEMBER","2","1","1534","1",,,,"2018-07-24 15:43:18","497902"
"A3SJA2R2M8OHYL","cs_wg_full_v4_conf_pilot2","3OVHNO1VE62YY4GX2GK44ID302ZDZ4","20",NULL,"MARCH","3","JUNE","5","1","1912","1",,,,"2018-07-24 15:43:18","497903"
"A2T11H7YI7QPGD","cs_wg_full_v4_conf_pilot2","3V5Q80FXIXSAA1BOKK5E4YHKOGC23O","29",NULL,"DECEMBER","11","AUGUST","12","0","4653","0",,,,"2018-07-24 15:43:19","497904"
"A2JFNQK7HIFFC9","cs_wg_full_v4_conf_pilot2","3JRJSWSMQHM25HN4D40F6ZQ9LJ1E31","27",NULL,"FEBRUARY","6","MAY","10","1","2176","1",,,,"2018-07-24 15:43:19","497905"
"A2W5RJFHZRE8IS","cs_wg_full_v4_conf_pilot2","382M9COHEHGM4B0NSOWGT8G9YWLUEP","54",NULL,"AUGUST","2","JULY","12","1","559","1",,,,"2018-07-24 15:43:20","497906"
"A2SNM3YVWIDKLM","cs_wg_full_v4_conf_pilot2","3II4UPYCOJ8PKCF6FK1RDP1ZVZEDQA","39",NULL,"FEBRUARY","2","JUNE","5","0","3607","0",,,,"2018-07-24 15:43:20","497907"
"A1TD4CM1NKIQ65","cs_wg_full_v4_conf_pilot2","3URFVVM165JKF6RJOBATEIHRM2UUZV","27",NULL,"JULY","11","APRIL","2","0","2173","1",,,,"2018-07-24 15:43:20","497908"
"A1R4IO6YBLJTWJ","cs_wg_full_v4_conf_pilot2","3HQUKB7LNFFTJZL5IQXNVWOWW4CHHS","2",NULL,"JANUARY","10","MARCH","9","0","3074","1",,,,"2018-07-24 15:43:21","497909"
"A3TLI95L5GOBKG","cs_wg_full_v4_conf_pilot2","3HVVDCPGTET5A32PSKI0VFMNXUJYTH","50",NULL,"DECEMBER","5","JANUARY","12","1","919","1",,,,"2018-07-24 15:43:22","497910"
"A1OJHCH57D3JW1","cs_wg_full_v4_conf_pilot2","3X4MXAO0BGPO5JUX9UVHA30PY1MWR3","2",NULL,"JULY","6","NOVEMBER","4","0","4162","1",,,,"2018-07-24 15:43:23","497911"
"A3E17U6SI0WJWH","cs_wg_full_v4_conf_pilot2","338JKRMM260E9CDRCKNVEA1SJ9NHAI","13",NULL,"APRIL","10","OCTOBER","11","1","1329","0",,,,"2018-07-24 15:43:23","497912"
"A21W6704ES6YYZ","cs_wg_full_v4_conf_pilot2","3QFUFYSY9YGFTR648TP4YM3FBKHF4A","5",NULL,"SEPTEMBER","9","NOVEMBER","4","0","1339","1",,,,"2018-07-24 15:43:23","497913"
"A1BSL1VC7PQR04","cs_wg_full_v4_conf_pilot2","3C44YUNSI1Q4K0ERF7M2DKBPQ3SPDV","44",NULL,"FEBRUARY","3","DECEMBER","7","1","1597","1",,,,"2018-07-24 15:43:23","497914"
"A28MDXDNK6QHMS","cs_wg_full_v4_conf_pilot2","3EWIJTFFVO86OPO7UHIW41S2I7I0ET","34",NULL,"FEBRUARY","10","JUNE","3","0","4470","1",,,,"2018-07-24 15:43:24","497915"
"A2W5RJFHZRE8IS","cs_wg_full_v4_conf_pilot2","382M9COHEHGM4B0NSOWGT8G9YWLUEP","55",NULL,"JUNE","8","NOVEMBER","6","0","662","1",,,,"2018-07-24 15:43:24","497916"
"A3SJA2R2M8OHYL","cs_wg_full_v4_conf_pilot2","3OVHNO1VE62YY4GX2GK44ID302ZDZ4","21",NULL,"APRIL","11","JUNE","5","0","1816","1",,,,"2018-07-24 15:43:25","497917"
"AVUTKN1N2TIF4","cs_wg_full_v4_conf_pilot2","3Q5C1WP23M26ZVGWFZTTEC5ZA6P510","54",NULL,"MAY","10","MARCH","12","1","2702","1",,,,"2018-07-24 15:43:25","497918"
"A3HKMZ9ML9EPUY","cs_wg_full_v4_conf_pilot2","3WR9XG3T63C2EYRYQARSAUQYDWU74U","50",NULL,"JUNE","11","MAY","9","0","3496","1",,,,"2018-07-24 15:43:25","497919"
"AFMAV43Q6NQPG","cs_wg_full_v4_conf_pilot2","3WSELTNVR334EL4MCE4KST4GU3ITA4","20",NULL,"FEBRUARY","1","AUGUST","2","1","2622","1",,,,"2018-07-24 15:43:26","497920"
"A2T11H7YI7QPGD","cs_wg_full_v4_conf_pilot2","3V5Q80FXIXSAA1BOKK5E4YHKOGC23O","30",NULL,"SEPTEMBER","10","AUGUST","12","0","2171","0",,,,"2018-07-24 15:43:26","497921"
"A2SNM3YVWIDKLM","cs_wg_full_v4_conf_pilot2","3II4UPYCOJ8PKCF6FK1RDP1ZVZEDQA","40",NULL,"SEPTEMBER","9","APRIL","6","0","1912","1",,,,"2018-07-24 15:43:26","497922"
"A3CLH8841QVGI4","cs_wg_full_v4_conf_pilot2","3PS7W85Z8Z3Q92UHK8QKWYTWOL0T9P","3",NULL,"MAY","8","SEPTEMBER","2","0","2163","1",,,,"2018-07-24 15:43:28","497923"
"AJUFGQMHFSJ1I","cs_wg_full_v4_conf_pilot2","3VFJCI1K4Z0S8X4XUPRZO0E14D0RG3","1",NULL,"DECEMBER","9","NOVEMBER","5","1","3914","1",,,,"2018-07-24 15:43:28","497924"
"A2W5RJFHZRE8IS","cs_wg_full_v4_conf_pilot2","382M9COHEHGM4B0NSOWGT8G9YWLUEP","56",NULL,"NOVEMBER","6","FEBRUARY","9","1","1744","1",,,,"2018-07-24 15:43:30","497925"
"A3TLI95L5GOBKG","cs_wg_full_v4_conf_pilot2","3HVVDCPGTET5A32PSKI0VFMNXUJYTH","51",NULL,"MAY","11","FEBRUARY","9","0","2244","1",,,,"2018-07-24 15:43:30","497926"
"A1BSL1VC7PQR04","cs_wg_full_v4_conf_pilot2","3C44YUNSI1Q4K0ERF7M2DKBPQ3SPDV","45",NULL,"AUGUST","8","DECEMBER","7","1","1977","0",,,,"2018-07-24 15:43:30","497927"
"A1TD4CM1NKIQ65","cs_wg_full_v4_conf_pilot2","3URFVVM165JKF6RJOBATEIHRM2UUZV","28",NULL,"MARCH","3","NOVEMBER","9","1","1718","1",,,,"2018-07-24 15:43:30","497928"
"A3E17U6SI0WJWH","cs_wg_full_v4_conf_pilot2","338JKRMM260E9CDRCKNVEA1SJ9NHAI","14",NULL,"APRIL","10","FEBRUARY","8","0","861","0",,,,"2018-07-24 15:43:31","497929"
"A2JFNQK7HIFFC9","cs_wg_full_v4_conf_pilot2","3JRJSWSMQHM25HN4D40F6ZQ9LJ1E31","28",NULL,"APRIL","1","OCTOBER","11","1","2372","1",,,,"2018-07-24 15:43:32","497930"
"A2SNM3YVWIDKLM","cs_wg_full_v4_conf_pilot2","3II4UPYCOJ8PKCF6FK1RDP1ZVZEDQA","41",NULL,"JULY","12","NOVEMBER","7","0","1015","1",,,,"2018-07-24 15:43:32","497931"
"AVUTKN1N2TIF4","cs_wg_full_v4_conf_pilot2","3Q5C1WP23M26ZVGWFZTTEC5ZA6P510","55",NULL,"JANUARY","8","MAY","10","1","2164","1",,,,"2018-07-24 15:43:32","497932"
"A3SJA2R2M8OHYL","cs_wg_full_v4_conf_pilot2","3OVHNO1VE62YY4GX2GK44ID302ZDZ4","22",NULL,"APRIL","11","FEBRUARY","6","0","1357","1",,,,"2018-07-24 15:43:32","497933"
"A3HKMZ9ML9EPUY","cs_wg_full_v4_conf_pilot2","3WR9XG3T63C2EYRYQARSAUQYDWU74U","51",NULL,"MARCH","10","JUNE","11","0","3122","0",,,,"2018-07-24 15:43:33","497934"
"A21W6704ES6YYZ","cs_wg_full_v4_conf_pilot2","3QFUFYSY9YGFTR648TP4YM3FBKHF4A","6",NULL,"JULY","3","NOVEMBER","4","1","3855","1",,,,"2018-07-24 15:43:34","497935"
"AFMAV43Q6NQPG","cs_wg_full_v4_conf_pilot2","3WSELTNVR334EL4MCE4KST4GU3ITA4","21",NULL,"JANUARY","11","DECEMBER","5","1","2198","0",,,,"2018-07-24 15:43:34","497936"
"A2T11H7YI7QPGD","cs_wg_full_v4_conf_pilot2","3V5Q80FXIXSAA1BOKK5E4YHKOGC23O","31",NULL,"JANUARY","9","FEBRUARY","2","0","3802","1",,,,"2018-07-24 15:43:34","497937"
"A28MDXDNK6QHMS","cs_wg_full_v4_conf_pilot2","3EWIJTFFVO86OPO7UHIW41S2I7I0ET","35",NULL,"JUNE","3","NOVEMBER","9","1","6814","1",,,,"2018-07-24 15:43:35","497938"
"A2W5RJFHZRE8IS","cs_wg_full_v4_conf_pilot2","382M9COHEHGM4B0NSOWGT8G9YWLUEP","57",NULL,"SEPTEMBER","5","DECEMBER","7","1","1141","1",,,,"2018-07-24 15:43:35","497939"
"A3TLI95L5GOBKG","cs_wg_full_v4_conf_pilot2","3HVVDCPGTET5A32PSKI0VFMNXUJYTH","52",NULL,"DECEMBER","5","JULY","7","1","381","1",,,,"2018-07-24 15:43:35","497940"
"A1R4IO6YBLJTWJ","cs_wg_full_v4_conf_pilot2","3HQUKB7LNFFTJZL5IQXNVWOWW4CHHS","3",NULL,"JULY","11","JANUARY","10","0","7332","1",,,,"2018-07-24 15:43:37","497941"
"A1BSL1VC7PQR04","cs_wg_full_v4_conf_pilot2","3C44YUNSI1Q4K0ERF7M2DKBPQ3SPDV","46",NULL,"MARCH","2","SEPTEMBER","12","1","1363","1",,,,"2018-07-24 15:43:37","497942"
"A3SJA2R2M8OHYL","cs_wg_full_v4_conf_pilot2","3OVHNO1VE62YY4GX2GK44ID302ZDZ4","23",NULL,"SEPTEMBER","9","FEBRUARY","6","0","1136","1",,,,"2018-07-24 15:43:38","497943"
"AVUTKN1N2TIF4","cs_wg_full_v4_conf_pilot2","3Q5C1WP23M26ZVGWFZTTEC5ZA6P510","56",NULL,"DECEMBER","2","APRIL","4","1","2245","1",,,,"2018-07-24 15:43:38","497944"
"A1OJHCH57D3JW1","cs_wg_full_v4_conf_pilot2","3X4MXAO0BGPO5JUX9UVHA30PY1MWR3","3",NULL,"SEPTEMBER","1","APRIL","2","1","2815","1",,,,"2018-07-24 15:43:39","497945"
"A2JFNQK7HIFFC9","cs_wg_full_v4_conf_pilot2","3JRJSWSMQHM25HN4D40F6ZQ9LJ1E31","29",NULL,"JANUARY","12","NOVEMBER","9","0","2741","1",,,,"2018-07-24 15:43:39","497946"
"A2SNM3YVWIDKLM","cs_wg_full_v4_conf_pilot2","3II4UPYCOJ8PKCF6FK1RDP1ZVZEDQA","42",NULL,"JUNE","5","DECEMBER","8","1","2352","1",,,,"2018-07-24 15:43:39","497947"
"A1TD4CM1NKIQ65","cs_wg_full_v4_conf_pilot2","3URFVVM165JKF6RJOBATEIHRM2UUZV","29",NULL,"JANUARY","5","JUNE","4","1","1952","0",,,,"2018-07-24 15:43:40","497948"
"A2T11H7YI7QPGD","cs_wg_full_v4_conf_pilot2","3V5Q80FXIXSAA1BOKK5E4YHKOGC23O","32",NULL,"APRIL","8","NOVEMBER","6","0","1527","1",,,,"2018-07-24 15:43:40","497949"
"A3HKMZ9ML9EPUY","cs_wg_full_v4_conf_pilot2","3WR9XG3T63C2EYRYQARSAUQYDWU74U","52",NULL,"MARCH","10","JULY","5","1","2759","0",,,,"2018-07-24 15:43:41","497950"
"A2W5RJFHZRE8IS","cs_wg_full_v4_conf_pilot2","382M9COHEHGM4B0NSOWGT8G9YWLUEP","58",NULL,"MAY","3","OCTOBER","10","0","1018","0",,,,"2018-07-24 15:43:41","497951"
"A3CLH8841QVGI4","cs_wg_full_v4_conf_pilot2","3PS7W85Z8Z3Q92UHK8QKWYTWOL0T9P","4",NULL,"AUGUST","10","JULY","5","1","5040","1",,,,"2018-07-24 15:43:42","497952"
"A3TLI95L5GOBKG","cs_wg_full_v4_conf_pilot2","3HVVDCPGTET5A32PSKI0VFMNXUJYTH","53",NULL,"JULY","7","DECEMBER","5","0","2647","1",,,,"2018-07-24 15:43:42","497953"
"A21W6704ES6YYZ","cs_wg_full_v4_conf_pilot2","3QFUFYSY9YGFTR648TP4YM3FBKHF4A","7",NULL,"NOVEMBER","4","MAY","8","1","2670","1",,,,"2018-07-24 15:43:43","497954"
"A1BSL1VC7PQR04","cs_wg_full_v4_conf_pilot2","3C44YUNSI1Q4K0ERF7M2DKBPQ3SPDV","47",NULL,"FEBRUARY","3","AUGUST","8","1","1257","1",,,,"2018-07-24 15:43:43","497955"
"AVUTKN1N2TIF4","cs_wg_full_v4_conf_pilot2","3Q5C1WP23M26ZVGWFZTTEC5ZA6P510","57",NULL,"DECEMBER","2","MAY","10","1","1477","1",,,,"2018-07-24 15:43:44","497956"
"A1HRUOWTIK5HYY","cs_wg_full_v4_conf_pilot2","3OSWBBLG1EY9T9GI1YWJ7XXSS21XDR","4",NULL,"JUNE","1","FEBRUARY","12","0","9227","0",,,,"2018-07-24 15:43:45","497957"
"A2T11H7YI7QPGD","cs_wg_full_v4_conf_pilot2","3V5Q80FXIXSAA1BOKK5E4YHKOGC23O","33",NULL,"DECEMBER","11","OCTOBER","1","0","1622","1",,,,"2018-07-24 15:43:45","497958"
"A3SJA2R2M8OHYL","cs_wg_full_v4_conf_pilot2","3OVHNO1VE62YY4GX2GK44ID302ZDZ4","24",NULL,"SEPTEMBER","9","OCTOBER","12","1","2789","1",,,,"2018-07-24 15:43:46","497959"
"A2W5RJFHZRE8IS","cs_wg_full_v4_conf_pilot2","382M9COHEHGM4B0NSOWGT8G9YWLUEP","59",NULL,"AUGUST","2","MARCH","1","0","1002","1",,,,"2018-07-24 15:43:46","497960"
"AJUFGQMHFSJ1I","cs_wg_full_v4_conf_pilot2","3VFJCI1K4Z0S8X4XUPRZO0E14D0RG3","2",NULL,"FEBRUARY","7","OCTOBER","10","1","9412","1",,,,"2018-07-24 15:43:47","497961"
"A28MDXDNK6QHMS","cs_wg_full_v4_conf_pilot2","3EWIJTFFVO86OPO7UHIW41S2I7I0ET","36",NULL,"JULY","4","JANUARY","8","1","7471","1",,,,"2018-07-24 15:43:47","497962"
"AFMAV43Q6NQPG","cs_wg_full_v4_conf_pilot2","3WSELTNVR334EL4MCE4KST4GU3ITA4","22",NULL,"NOVEMBER","7","JULY","10","0","6438","0",,,,"2018-07-24 15:43:48","497963"
"A3HKMZ9ML9EPUY","cs_wg_full_v4_conf_pilot2","3WR9XG3T63C2EYRYQARSAUQYDWU74U","53",NULL,"JUNE","11","MARCH","10","0","3035","1",,,,"2018-07-24 15:43:48","497964"
"A2SNM3YVWIDKLM","cs_wg_full_v4_conf_pilot2","3II4UPYCOJ8PKCF6FK1RDP1ZVZEDQA","43",NULL,"JANUARY","11","DECEMBER","8","1","3382","0",,,,"2018-07-24 15:43:48","497965"
"A1TD4CM1NKIQ65","cs_wg_full_v4_conf_pilot2","3URFVVM165JKF6RJOBATEIHRM2UUZV","30",NULL,"OCTOBER","8","JUNE","4","0","2312","1",,,,"2018-07-24 15:43:48","497966"
"A2JFNQK7HIFFC9","cs_wg_full_v4_conf_pilot2","3JRJSWSMQHM25HN4D40F6ZQ9LJ1E31","30",NULL,"NOVEMBER","9","AUGUST","7","0","3073","1",,,,"2018-07-24 15:43:49","497967"
"A1BSL1VC7PQR04","cs_wg_full_v4_conf_pilot2","3C44YUNSI1Q4K0ERF7M2DKBPQ3SPDV","48",NULL,"NOVEMBER","9","JANUARY","11","1","2075","1",,,,"2018-07-24 15:43:50","497968"
"A3FGX1AB92LSFC","cs_wg_full_v4_conf_pilot2","337RC3OW0530NWZFE0TP2P8CL00VL7","0",NULL,"DECEMBER","11","MAY","8","0","7753","1",,,,"2018-07-24 15:43:50","497969"
"A2T11H7YI7QPGD","cs_wg_full_v4_conf_pilot2","3V5Q80FXIXSAA1BOKK5E4YHKOGC23O","34",NULL,"AUGUST","12","DECEMBER","11","0","1627","1",,,,"2018-07-24 15:43:51","497970"
"A21W6704ES6YYZ","cs_wg_full_v4_conf_pilot2","3QFUFYSY9YGFTR648TP4YM3FBKHF4A","8",NULL,"JUNE","1","JULY","3","1","2277","1",,,,"2018-07-24 15:43:51","497971"
"AVUTKN1N2TIF4","cs_wg_full_v4_conf_pilot2","3Q5C1WP23M26ZVGWFZTTEC5ZA6P510","58",NULL,"APRIL","4","JULY","9","1","1686","1",,,,"2018-07-24 15:43:51","497972"
"A2W5RJFHZRE8IS","cs_wg_full_v4_conf_pilot2","382M9COHEHGM4B0NSOWGT8G9YWLUEP","60",NULL,"DECEMBER","7","AUGUST","2","0","1148","1",,,,"2018-07-24 15:43:51","497973"
"A3SJA2R2M8OHYL","cs_wg_full_v4_conf_pilot2","3OVHNO1VE62YY4GX2GK44ID302ZDZ4","25",NULL,"SEPTEMBER","9","MARCH","3","0","1074","1",,,,"2018-07-24 15:43:53","497974"
"A1R4IO6YBLJTWJ","cs_wg_full_v4_conf_pilot2","3HQUKB7LNFFTJZL5IQXNVWOWW4CHHS","4",NULL,"AUGUST","5","DECEMBER","8","1","9907","1",,,,"2018-07-24 15:43:55","497975"
"A3CLH8841QVGI4","cs_wg_full_v4_conf_pilot2","3PS7W85Z8Z3Q92UHK8QKWYTWOL0T9P","5",NULL,"SEPTEMBER","2","FEBRUARY","7","0","4897","1",,,,"2018-07-24 15:43:55","497976"
"A1BSL1VC7PQR04","cs_wg_full_v4_conf_pilot2","3C44YUNSI1Q4K0ERF7M2DKBPQ3SPDV","49",NULL,"JANUARY","11","MARCH","2","0","1235","1",,,,"2018-07-24 15:43:55","497977"
"A28MDXDNK6QHMS","cs_wg_full_v4_conf_pilot2","3EWIJTFFVO86OPO7UHIW41S2I7I0ET","37",NULL,"JULY","4","NOVEMBER","9","1","2348","1",,,,"2018-07-24 15:43:55","497978"
"A3HKMZ9ML9EPUY","cs_wg_full_v4_conf_pilot2","3WR9XG3T63C2EYRYQARSAUQYDWU74U","54",NULL,"JUNE","11","DECEMBER","2","0","2829","1",,,,"2018-07-24 15:43:55","497979"
"A2T11H7YI7QPGD","cs_wg_full_v4_conf_pilot2","3V5Q80FXIXSAA1BOKK5E4YHKOGC23O","35",NULL,"FEBRUARY","2","AUGUST","12","1","2692","1",,,,"2018-07-24 15:43:57","497980"
"A1TD4CM1NKIQ65","cs_wg_full_v4_conf_pilot2","3URFVVM165JKF6RJOBATEIHRM2UUZV","31",NULL,"NOVEMBER","9","FEBRUARY","12","0","1560","0",,,,"2018-07-24 15:43:57","497981"
"AVUTKN1N2TIF4","cs_wg_full_v4_conf_pilot2","3Q5C1WP23M26ZVGWFZTTEC5ZA6P510","59",NULL,"NOVEMBER","6","OCTOBER","5","0","2270","1",,,,"2018-07-24 15:43:57","497982"
"A2W5RJFHZRE8IS","cs_wg_full_v4_conf_pilot2","382M9COHEHGM4B0NSOWGT8G9YWLUEP","61",NULL,"AUGUST","2","OCTOBER","10","1","812","1",,,,"2018-07-24 15:43:58","497983"
"AFMAV43Q6NQPG","cs_wg_full_v4_conf_pilot2","3WSELTNVR334EL4MCE4KST4GU3ITA4","23",NULL,"SEPTEMBER","12","JUNE","9","1","2080","0",,,,"2018-07-24 15:43:58","497984"
"A3SJA2R2M8OHYL","cs_wg_full_v4_conf_pilot2","3OVHNO1VE62YY4GX2GK44ID302ZDZ4","26",NULL,"MAY","1","APRIL","11","0","1216","0",,,,"2018-07-24 15:43:59","497985"
"A2SNM3YVWIDKLM","cs_wg_full_v4_conf_pilot2","3II4UPYCOJ8PKCF6FK1RDP1ZVZEDQA","44",NULL,"DECEMBER","8","FEBRUARY","2","1","5838","0",,,,"2018-07-24 15:43:59","497986"
"A21W6704ES6YYZ","cs_wg_full_v4_conf_pilot2","3QFUFYSY9YGFTR648TP4YM3FBKHF4A","9",NULL,"MARCH","6","AUGUST","5","0","2674","1",,,,"2018-07-24 15:43:59","497987"
"A3IP3THL503RPE","cs_wg_full_v4_conf_pilot2","3NGMS9VZTLJPR73TSALNPQ060AMFFU","0",NULL,"MAY","2","APRIL","8","1","19190","1",,,,"2018-07-24 15:44:00","497988"
"A1OJHCH57D3JW1","cs_wg_full_v4_conf_pilot2","3X4MXAO0BGPO5JUX9UVHA30PY1MWR3","4",NULL,"AUGUST","7","FEBRUARY","3","0","5243","1",,,,"2018-07-24 15:44:01","497989"
"A1BSL1VC7PQR04","cs_wg_full_v4_conf_pilot2","3C44YUNSI1Q4K0ERF7M2DKBPQ3SPDV","50",NULL,"OCTOBER","4","FEBRUARY","3","0","1698","1",,,,"2018-07-24 15:44:01","497990"
"A3FGX1AB92LSFC","cs_wg_full_v4_conf_pilot2","337RC3OW0530NWZFE0TP2P8CL00VL7","1",NULL,"JANUARY","7","NOVEMBER","10","0","1851","1",,,,"2018-07-24 15:44:03","497991"
"A2JFNQK7HIFFC9","cs_wg_full_v4_conf_pilot2","3JRJSWSMQHM25HN4D40F6ZQ9LJ1E31","31",NULL,"FEBRUARY","6","APRIL","1","0","6891","1",,,,"2018-07-24 15:44:03","497992"
"AVUTKN1N2TIF4","cs_wg_full_v4_conf_pilot2","3Q5C1WP23M26ZVGWFZTTEC5ZA6P510","60",NULL,"MARCH","12","DECEMBER","2","0","1133","1",,,,"2018-07-24 15:44:03","497993"
"A2W5RJFHZRE8IS","cs_wg_full_v4_conf_pilot2","382M9COHEHGM4B0NSOWGT8G9YWLUEP","62",NULL,"MAY","3","APRIL","11","1","767","1",,,,"2018-07-24 15:44:03","497994"
"A2T11H7YI7QPGD","cs_wg_full_v4_conf_pilot2","3V5Q80FXIXSAA1BOKK5E4YHKOGC23O","36",NULL,"AUGUST","12","APRIL","8","1","1564","0",,,,"2018-07-24 15:44:04","497995"
"A1TD4CM1NKIQ65","cs_wg_full_v4_conf_pilot2","3URFVVM165JKF6RJOBATEIHRM2UUZV","32",NULL,"NOVEMBER","9","JUNE","4","0","1691","1",,,,"2018-07-24 15:44:05","497996"
"A2SNM3YVWIDKLM","cs_wg_full_v4_conf_pilot2","3II4UPYCOJ8PKCF6FK1RDP1ZVZEDQA","45",NULL,"FEBRUARY","2","JULY","12","0","2013","0",,,,"2018-07-24 15:44:06","497997"
"A3SJA2R2M8OHYL","cs_wg_full_v4_conf_pilot2","3OVHNO1VE62YY4GX2GK44ID302ZDZ4","27",NULL,"JANUARY","4","DECEMBER","10","1","2832","1",,,,"2018-07-24 15:44:07","497998"
"A3HKMZ9ML9EPUY","cs_wg_full_v4_conf_pilot2","3WR9XG3T63C2EYRYQARSAUQYDWU74U","55",NULL,"FEBRUARY","6","DECEMBER","2","0","6829","1",,,,"2018-07-24 15:44:07","497999"
"A3CLH8841QVGI4","cs_wg_full_v4_conf_pilot2","3PS7W85Z8Z3Q92UHK8QKWYTWOL0T9P","6",NULL,"NOVEMBER","12","JULY","5","1","2246","1",,,,"2018-07-24 15:44:08","498000"
"A21W6704ES6YYZ","cs_wg_full_v4_conf_pilot2","3QFUFYSY9YGFTR648TP4YM3FBKHF4A","10",NULL,"FEBRUARY","12","JUNE","1","0","3093","1",,,,"2018-07-24 15:44:08","498001"
"A1BSL1VC7PQR04","cs_wg_full_v4_conf_pilot2","3C44YUNSI1Q4K0ERF7M2DKBPQ3SPDV","51",NULL,"OCTOBER","4","MAY","10","1","1700","1",,,,"2018-07-24 15:44:08","498002"
"A2W5RJFHZRE8IS","cs_wg_full_v4_conf_pilot2","382M9COHEHGM4B0NSOWGT8G9YWLUEP","63",NULL,"JANUARY","4","APRIL","11","1","1010","1",,,,"2018-07-24 15:44:09","498003"
"AVUTKN1N2TIF4","cs_wg_full_v4_conf_pilot2","3Q5C1WP23M26ZVGWFZTTEC5ZA6P510","61",NULL,"SEPTEMBER","3","OCTOBER","5","0","2765","0",,,,"2018-07-24 15:44:11","498004"
"A2T11H7YI7QPGD","cs_wg_full_v4_conf_pilot2","3V5Q80FXIXSAA1BOKK5E4YHKOGC23O","37",NULL,"AUGUST","12","SEPTEMBER","10","0","3691","1",,,,"2018-07-24 15:44:11","498005"
"A2JFNQK7HIFFC9","cs_wg_full_v4_conf_pilot2","3JRJSWSMQHM25HN4D40F6ZQ9LJ1E31","32",NULL,"NOVEMBER","9","OCTOBER","11","1","3525","1",,,,"2018-07-24 15:44:13","498006"
"A3FGX1AB92LSFC","cs_wg_full_v4_conf_pilot2","337RC3OW0530NWZFE0TP2P8CL00VL7","2",NULL,"APRIL","2","SEPTEMBER","4","0","2676","0",,,,"2018-07-24 15:44:13","498007"
"A28MDXDNK6QHMS","cs_wg_full_v4_conf_pilot2","3EWIJTFFVO86OPO7UHIW41S2I7I0ET","38",NULL,"JULY","4","DECEMBER","12","1","12807","1",,,,"2018-07-24 15:44:13","498008"
"A1BSL1VC7PQR04","cs_wg_full_v4_conf_pilot2","3C44YUNSI1Q4K0ERF7M2DKBPQ3SPDV","52",NULL,"APRIL","5","JUNE","6","1","1357","1",,,,"2018-07-24 15:44:14","498009"
"A2W5RJFHZRE8IS","cs_wg_full_v4_conf_pilot2","382M9COHEHGM4B0NSOWGT8G9YWLUEP","64",NULL,"MARCH","1","AUGUST","2","1","1352","1",,,,"2018-07-24 15:44:14","498010"
"A1OJHCH57D3JW1","cs_wg_full_v4_conf_pilot2","3X4MXAO0BGPO5JUX9UVHA30PY1MWR3","5",NULL,"OCTOBER","10","FEBRUARY","3","0","2985","1",,,,"2018-07-24 15:44:14","498011"
"A21W6704ES6YYZ","cs_wg_full_v4_conf_pilot2","3QFUFYSY9YGFTR648TP4YM3FBKHF4A","11",NULL,"FEBRUARY","12","MARCH","6","0","1935","1",,,,"2018-07-24 15:44:15","498012"
"A1HRUOWTIK5HYY","cs_wg_full_v4_conf_pilot2","3OSWBBLG1EY9T9GI1YWJ7XXSS21XDR","5",NULL,"NOVEMBER","3","APRIL","7","1","3880","1",,,,"2018-07-24 15:44:15","498013"
"A2SNM3YVWIDKLM","cs_wg_full_v4_conf_pilot2","3II4UPYCOJ8PKCF6FK1RDP1ZVZEDQA","46",NULL,"OCTOBER","10","JANUARY","11","0","3255","0",,,,"2018-07-24 15:44:15","498014"
"A3HKMZ9ML9EPUY","cs_wg_full_v4_conf_pilot2","3WR9XG3T63C2EYRYQARSAUQYDWU74U","56",NULL,"SEPTEMBER","1","MARCH","10","1","3343","1",,,,"2018-07-24 15:44:16","498015"
"A3IP3THL503RPE","cs_wg_full_v4_conf_pilot2","3NGMS9VZTLJPR73TSALNPQ060AMFFU","1",NULL,"OCTOBER","9","SEPTEMBER","11","0","3473","1",,,,"2018-07-24 15:44:16","498016"
"A1TD4CM1NKIQ65","cs_wg_full_v4_conf_pilot2","3URFVVM165JKF6RJOBATEIHRM2UUZV","33",NULL,"DECEMBER","1","OCTOBER","8","1","2323","1",,,,"2018-07-24 15:44:16","498017"
"A2T11H7YI7QPGD","cs_wg_full_v4_conf_pilot2","3V5Q80FXIXSAA1BOKK5E4YHKOGC23O","38",NULL,"NOVEMBER","6","SEPTEMBER","10","1","1855","1",,,,"2018-07-24 15:44:17","498018"
"AVUTKN1N2TIF4","cs_wg_full_v4_conf_pilot2","3Q5C1WP23M26ZVGWFZTTEC5ZA6P510","62",NULL,"NOVEMBER","6","FEBRUARY","1","0","2899","1",,,,"2018-07-24 15:44:18","498019"
"A3SJA2R2M8OHYL","cs_wg_full_v4_conf_pilot2","3OVHNO1VE62YY4GX2GK44ID302ZDZ4","28",NULL,"JUNE","5","SEPTEMBER","9","1","3696","1",,,,"2018-07-24 15:44:18","498020"
"AFMAV43Q6NQPG","cs_wg_full_v4_conf_pilot2","3WSELTNVR334EL4MCE4KST4GU3ITA4","24",NULL,"JUNE","9","MAY","8","1","13357","0",,,,"2018-07-24 15:44:18","498021"
"A2JFNQK7HIFFC9","cs_wg_full_v4_conf_pilot2","3JRJSWSMQHM25HN4D40F6ZQ9LJ1E31","33",NULL,"MARCH","8","OCTOBER","11","1","1730","1",,,,"2018-07-24 15:44:20","498022"
"A3FGX1AB92LSFC","cs_wg_full_v4_conf_pilot2","337RC3OW0530NWZFE0TP2P8CL00VL7","3",NULL,"MARCH","3","OCTOBER","5","0","1358","1",,,,"2018-07-24 15:44:20","498023"
"A2W5RJFHZRE8IS","cs_wg_full_v4_conf_pilot2","382M9COHEHGM4B0NSOWGT8G9YWLUEP","65",NULL,"JANUARY","4","SEPTEMBER","5","1","1703","1",,,,"2018-07-24 15:44:21","498024"
"A1BSL1VC7PQR04","cs_wg_full_v4_conf_pilot2","3C44YUNSI1Q4K0ERF7M2DKBPQ3SPDV","53",NULL,"SEPTEMBER","12","MAY","10","0","1508","1",,,,"2018-07-24 15:44:21","498025"
"A3HKMZ9ML9EPUY","cs_wg_full_v4_conf_pilot2","3WR9XG3T63C2EYRYQARSAUQYDWU74U","57",NULL,"MAY","9","JULY","5","1","1940","0",,,,"2018-07-24 15:44:22","498026"
"A2SNM3YVWIDKLM","cs_wg_full_v4_conf_pilot2","3II4UPYCOJ8PKCF6FK1RDP1ZVZEDQA","47",NULL,"SEPTEMBER","9","MAY","3","0","2200","1",,,,"2018-07-24 15:44:22","498027"
"A28MDXDNK6QHMS","cs_wg_full_v4_conf_pilot2","3EWIJTFFVO86OPO7UHIW41S2I7I0ET","39",NULL,"JANUARY","8","APRIL","2","0","4611","1",,,,"2018-07-24 15:44:23","498028"
"A2T11H7YI7QPGD","cs_wg_full_v4_conf_pilot2","3V5Q80FXIXSAA1BOKK5E4YHKOGC23O","39",NULL,"NOVEMBER","6","APRIL","8","1","1558","1",,,,"2018-07-24 15:44:23","498029"
"AVUTKN1N2TIF4","cs_wg_full_v4_conf_pilot2","3Q5C1WP23M26ZVGWFZTTEC5ZA6P510","63",NULL,"MARCH","12","AUGUST","7","0","1312","1",,,,"2018-07-24 15:44:23","498030"
"A21W6704ES6YYZ","cs_wg_full_v4_conf_pilot2","3QFUFYSY9YGFTR648TP4YM3FBKHF4A","12",NULL,"OCTOBER","2","DECEMBER","11","1","2693","1",,,,"2018-07-24 15:44:24","498031"
"AJUFGQMHFSJ1I","cs_wg_full_v4_conf_pilot2","3VFJCI1K4Z0S8X4XUPRZO0E14D0RG3","3",NULL,"MAY","1","OCTOBER","10","1","26011","1",,,,"2018-07-24 15:44:25","498032"
"A2W5RJFHZRE8IS","cs_wg_full_v4_conf_pilot2","382M9COHEHGM4B0NSOWGT8G9YWLUEP","66",NULL,"MAY","3","MARCH","1","0","1874","1",,,,"2018-07-24 15:44:27","498033"
"A2JFNQK7HIFFC9","cs_wg_full_v4_conf_pilot2","3JRJSWSMQHM25HN4D40F6ZQ9LJ1E31","34",NULL,"FEBRUARY","6","OCTOBER","11","1","1584","1",,,,"2018-07-24 15:44:27","498034"
