"subject","version","assignmentId","trial","trial_type","word","value","alt","choice","rt","resp","resp2","stamp","id"
"A2R9MIRIP29431","cs_wg_v5_pilot1","3ZDAD0O1T1EGAYCFNOWYC1FCXY5TX4","0","0","UMBRELLA","1","5","0","6813","umbrella","1","2017-09-15 17:14:11","45311"
"A2R9MIRIP29431","cs_wg_v5_pilot1","3ZDAD0O1T1EGAYCFNOWYC1FCXY5TX4","1","0","COMMUNITY","9","5","0","3536","community","9","2017-09-15 17:14:26","45312"
"A2R9MIRIP29431","cs_wg_v5_pilot1","3ZDAD0O1T1EGAYCFNOWYC1FCXY5TX4","2","0","COMMUNITY","9","5","0","4044","community","9","2017-09-15 17:14:40","45313"
"AJRY9ALX8069Y","cs_wg_v5_pilot1","3TMSXRD2X610CEVGB0G24CIAWD8W15","0","0","KEYBOARD","10","5","1","5889","keyboard","10","2017-09-15 17:14:53","45314"
"A2R9MIRIP29431","cs_wg_v5_pilot1","3ZDAD0O1T1EGAYCFNOWYC1FCXY5TX4","3","0","FOOTBALL","9","5","1","3617","football","9","2017-09-15 17:14:55","45315"
"A320QA9HJFUOZO","cs_wg_v5_pilot1","3NL0RFNU0FOQ9DYI94G1EZVILQ9K4A","0","0","HELICOPTER","0","5","0","4366","Helicopter","0","2017-09-15 17:14:59","45316"
"AJRY9ALX8069Y","cs_wg_v5_pilot1","3TMSXRD2X610CEVGB0G24CIAWD8W15","1","0","WEDDING","10","5","0","4379","wedding","10","2017-09-15 17:15:07","45317"
"A2R9MIRIP29431","cs_wg_v5_pilot1","3ZDAD0O1T1EGAYCFNOWYC1FCXY5TX4","4","0","COMMUNITY","9","5","0","2220","community","9","2017-09-15 17:15:07","45318"
"A320QA9HJFUOZO","cs_wg_v5_pilot1","3NL0RFNU0FOQ9DYI94G1EZVILQ9K4A","1","0","BASKET","1","5","0","2242","Basket","1","2017-09-15 17:15:14","45319"
"AJRY9ALX8069Y","cs_wg_v5_pilot1","3TMSXRD2X610CEVGB0G24CIAWD8W15","2","0","STRUCTURE","10","5","0","3557","structure","10","2017-09-15 17:15:20","45320"
"A2R9MIRIP29431","cs_wg_v5_pilot1","3ZDAD0O1T1EGAYCFNOWYC1FCXY5TX4","5","0","STOMACH","0","5","1","3723","stomach","0","2017-09-15 17:15:21","45321"
"A320QA9HJFUOZO","cs_wg_v5_pilot1","3NL0RFNU0FOQ9DYI94G1EZVILQ9K4A","2","0","WEDDING","0","5","0","1696","Wedding","0","2017-09-15 17:15:29","45322"
"AJRY9ALX8069Y","cs_wg_v5_pilot1","3TMSXRD2X610CEVGB0G24CIAWD8W15","3","0","LADDER","0","5","0","1054","ladder","0","2017-09-15 17:15:30","45323"
"A2R9MIRIP29431","cs_wg_v5_pilot1","3ZDAD0O1T1EGAYCFNOWYC1FCXY5TX4","6","0","TRAFFIC","0","5","0","4553","traffic","0","2017-09-15 17:15:36","45324"
"AJRY9ALX8069Y","cs_wg_v5_pilot1","3TMSXRD2X610CEVGB0G24CIAWD8W15","4","0","BOOKSHELF","9","5","0","1934","bookshelf","9","2017-09-15 17:15:40","45325"
"A1NBHHH443OZPE","cs_wg_v5_pilot1","33F859I566EJSMIJIYNR9LLW31MHB9","0","0","FOOTBALL","1","5","1","3434","FOOTBALL","1","2017-09-15 17:15:45","45326"
"A320QA9HJFUOZO","cs_wg_v5_pilot1","3NL0RFNU0FOQ9DYI94G1EZVILQ9K4A","3","0","DOORWAY","9","5","0","1311","Doorway","9","2017-09-15 17:15:46","45327"
"A2R9MIRIP29431","cs_wg_v5_pilot1","3ZDAD0O1T1EGAYCFNOWYC1FCXY5TX4","7","0","BOOKSHELF","9","5","0","1878","bookshelf","9","2017-09-15 17:15:49","45328"
"AJRY9ALX8069Y","cs_wg_v5_pilot1","3TMSXRD2X610CEVGB0G24CIAWD8W15","5","0","KEYBOARD","10","5","0","2223","keyboard","10","2017-09-15 17:15:51","45329"
"AJRY9ALX8069Y","cs_wg_v5_pilot1","3TMSXRD2X610CEVGB0G24CIAWD8W15","6","0","UMBRELLA","1","5","0","1244","umbrella","1","2017-09-15 17:15:59","45330"
"A320QA9HJFUOZO","cs_wg_v5_pilot1","3NL0RFNU0FOQ9DYI94G1EZVILQ9K4A","4","0","COMMUNITY","10","5","0","1389","Community","10","2017-09-15 17:16:03","45331"
"AJRY9ALX8069Y","cs_wg_v5_pilot1","3TMSXRD2X610CEVGB0G24CIAWD8W15","7","0","BASKET","0","5","0","1060","basket","0","2017-09-15 17:16:08","45332"
"A2R9MIRIP29431","cs_wg_v5_pilot1","3ZDAD0O1T1EGAYCFNOWYC1FCXY5TX4","8","0","TRAFFIC","0","5","1","6645","traffic ","0","2017-09-15 17:16:08","45333"
"A1NBHHH443OZPE","cs_wg_v5_pilot1","33F859I566EJSMIJIYNR9LLW31MHB9","1","0","WEDDING","10","5","1","6277","WEDDING","10","2017-09-15 17:16:10","45334"
"A320QA9HJFUOZO","cs_wg_v5_pilot1","3NL0RFNU0FOQ9DYI94G1EZVILQ9K4A","5","0","STOMACH","0","5","0","1683","Stomach","0","2017-09-15 17:16:12","45335"
"A2R9MIRIP29431","cs_wg_v5_pilot1","3ZDAD0O1T1EGAYCFNOWYC1FCXY5TX4","9","0","BASKET","1","5","0","1987","basket","1","2017-09-15 17:16:18","45336"
"AJRY9ALX8069Y","cs_wg_v5_pilot1","3TMSXRD2X610CEVGB0G24CIAWD8W15","8","0","UMBRELLA","1","5","1","3884","umbrella","1","2017-09-15 17:16:20","45337"
"A320QA9HJFUOZO","cs_wg_v5_pilot1","3NL0RFNU0FOQ9DYI94G1EZVILQ9K4A","6","0","MACHINE","9","5","0","1325","machine","9","2017-09-15 17:16:26","45338"
"A1NBHHH443OZPE","cs_wg_v5_pilot1","33F859I566EJSMIJIYNR9LLW31MHB9","2","0","BOOKSHELF","0","5","0","6287","BOOKSHELF","0","2017-09-15 17:16:28","45339"
"A2R9MIRIP29431","cs_wg_v5_pilot1","3ZDAD0O1T1EGAYCFNOWYC1FCXY5TX4","10","0","DOORWAY","0","5","0","1851","doorway","0","2017-09-15 17:16:29","45340"
"AJRY9ALX8069Y","cs_wg_v5_pilot1","3TMSXRD2X610CEVGB0G24CIAWD8W15","9","0","HELICOPTER","0","5","0","2957","helicopter","1","2017-09-15 17:16:30","45341"
"A320QA9HJFUOZO","cs_wg_v5_pilot1","3NL0RFNU0FOQ9DYI94G1EZVILQ9K4A","7","0","BASKET","1","5","1","3365","basket","1","2017-09-15 17:16:38","45342"
"A2R9MIRIP29431","cs_wg_v5_pilot1","3ZDAD0O1T1EGAYCFNOWYC1FCXY5TX4","11","0","WEDDING","10","5","0","1746","wedding","10","2017-09-15 17:16:39","45343"
"AJRY9ALX8069Y","cs_wg_v5_pilot1","3TMSXRD2X610CEVGB0G24CIAWD8W15","10","0","FOOTBALL","1","5","0","1341","football","1","2017-09-15 17:16:40","45344"
"A320QA9HJFUOZO","cs_wg_v5_pilot1","3NL0RFNU0FOQ9DYI94G1EZVILQ9K4A","8","0","BASKET","1","5","1","1891","basket","1","2017-09-15 17:16:47","45345"
"A1NBHHH443OZPE","cs_wg_v5_pilot1","33F859I566EJSMIJIYNR9LLW31MHB9","3","0","COMMUNITY","0","5","1","3916","COMMUNITY","0","2017-09-15 17:16:49","45346"
"AJRY9ALX8069Y","cs_wg_v5_pilot1","3TMSXRD2X610CEVGB0G24CIAWD8W15","11","0","KEYBOARD","10","5","0","1629","keyboard","10","2017-09-15 17:16:49","45347"
"A2R9MIRIP29431","cs_wg_v5_pilot1","3ZDAD0O1T1EGAYCFNOWYC1FCXY5TX4","12","0","BOOKSHELF","9","5","0","4054","bookshelf","9","2017-09-15 17:16:53","45348"
"A25DP39XRZDLQM","cs_wg_v5_pilot1","37WLF8U1WPR4O02WSS9GBXFWHHFK6V","0","0","UMBRELLA","9","5","0","6552","umbrella","9","2017-09-15 17:16:55","45349"
"A320QA9HJFUOZO","cs_wg_v5_pilot1","3NL0RFNU0FOQ9DYI94G1EZVILQ9K4A","9","0","MACHINE","9","5","0","3611","machine","9","2017-09-15 17:16:58","45350"
"AJRY9ALX8069Y","cs_wg_v5_pilot1","3TMSXRD2X610CEVGB0G24CIAWD8W15","12","0","WEDDING","10","5","0","2388","wedding","10","2017-09-15 17:16:58","45351"
"A320QA9HJFUOZO","cs_wg_v5_pilot1","3NL0RFNU0FOQ9DYI94G1EZVILQ9K4A","10","0","MACHINE","9","5","0","1589","machine","9","2017-09-15 17:17:06","45352"
"A2R9MIRIP29431","cs_wg_v5_pilot1","3ZDAD0O1T1EGAYCFNOWYC1FCXY5TX4","13","0","WEDDING","10","5","0","3052","wedding","10","2017-09-15 17:17:06","45353"
"AJRY9ALX8069Y","cs_wg_v5_pilot1","3TMSXRD2X610CEVGB0G24CIAWD8W15","13","0","TRAFFIC","1","5","1","6042","traffic","1","2017-09-15 17:17:10","45354"
"A25DP39XRZDLQM","cs_wg_v5_pilot1","37WLF8U1WPR4O02WSS9GBXFWHHFK6V","1","0","LADDER","0","5","0","2779","lader","o","2017-09-15 17:17:12","45355"
"A1NBHHH443OZPE","cs_wg_v5_pilot1","33F859I566EJSMIJIYNR9LLW31MHB9","4","0","BOOKSHELF","0","5","1","3849","BOOKSHELF","0","2017-09-15 17:17:13","45356"
"A320QA9HJFUOZO","cs_wg_v5_pilot1","3NL0RFNU0FOQ9DYI94G1EZVILQ9K4A","11","0","DOORWAY","9","5","0","2908","doorway","9","2017-09-15 17:17:16","45357"
"A2R9MIRIP29431","cs_wg_v5_pilot1","3ZDAD0O1T1EGAYCFNOWYC1FCXY5TX4","14","0","STOMACH","0","5","1","3057","stomach","0","2017-09-15 17:17:19","45358"
"AJRY9ALX8069Y","cs_wg_v5_pilot1","3TMSXRD2X610CEVGB0G24CIAWD8W15","14","0","STRUCTURE","10","5","0","5097","structure","10","2017-09-15 17:17:24","45359"
"A2R9MIRIP29431","cs_wg_v5_pilot1","3ZDAD0O1T1EGAYCFNOWYC1FCXY5TX4","15","0","MACHINE","10","5","0","1855","machine","10","2017-09-15 17:17:29","45360"
"A320QA9HJFUOZO","cs_wg_v5_pilot1","3NL0RFNU0FOQ9DYI94G1EZVILQ9K4A","12","0","LADDER","0","5","0","1754","ladder","0","2017-09-15 17:17:31","45361"
"AJRY9ALX8069Y","cs_wg_v5_pilot1","3TMSXRD2X610CEVGB0G24CIAWD8W15","15","0","KEYBOARD","10","5","0","1409","keyboard","10","2017-09-15 17:17:32","45362"
"A1NBHHH443OZPE","cs_wg_v5_pilot1","33F859I566EJSMIJIYNR9LLW31MHB9","5","0","HELICOPTER","10","5","0","4155","HELICOPTER","10","2017-09-15 17:17:33","45363"
"A25DP39XRZDLQM","cs_wg_v5_pilot1","37WLF8U1WPR4O02WSS9GBXFWHHFK6V","2","0","UMBRELLA","9","5","0","2391","umbrella","9","2017-09-15 17:17:36","45364"
"A2R9MIRIP29431","cs_wg_v5_pilot1","3ZDAD0O1T1EGAYCFNOWYC1FCXY5TX4","16","0","WEDDING","10","5","0","1750","wedding","10","2017-09-15 17:17:39","45365"
"A320QA9HJFUOZO","cs_wg_v5_pilot1","3NL0RFNU0FOQ9DYI94G1EZVILQ9K4A","13","0","KEYBOARD","1","5","0","1235","keyboard","1","2017-09-15 17:17:44","45366"
"AJRY9ALX8069Y","cs_wg_v5_pilot1","3TMSXRD2X610CEVGB0G24CIAWD8W15","16","0","COMMUNITY","9","5","0","1741","community","9","2017-09-15 17:17:45","45367"
"A1NBHHH443OZPE","cs_wg_v5_pilot1","33F859I566EJSMIJIYNR9LLW31MHB9","6","0","LADDER","1","5","1","2210","LADDER","1","2017-09-15 17:17:47","45368"
"AJRY9ALX8069Y","cs_wg_v5_pilot1","3TMSXRD2X610CEVGB0G24CIAWD8W15","17","0","LADDER","0","5","1","1711","ladder","0","2017-09-15 17:17:54","45369"
"A2R9MIRIP29431","cs_wg_v5_pilot1","3ZDAD0O1T1EGAYCFNOWYC1FCXY5TX4","17","0","UMBRELLA","1","5","1","5814","umbrella","1","2017-09-15 17:17:55","45370"
"A320QA9HJFUOZO","cs_wg_v5_pilot1","3NL0RFNU0FOQ9DYI94G1EZVILQ9K4A","14","0","STOMACH","0","5","0","7395","stomach","0","2017-09-15 17:17:59","45371"
"AJRY9ALX8069Y","cs_wg_v5_pilot1","3TMSXRD2X610CEVGB0G24CIAWD8W15","18","0","WEDDING","10","5","1","1757","wedding","10","2017-09-15 17:18:03","45372"
"A2R9MIRIP29431","cs_wg_v5_pilot1","3ZDAD0O1T1EGAYCFNOWYC1FCXY5TX4","18","0","KEYBOARD","0","5","0","1565","keyboard","0","2017-09-15 17:18:05","45373"
"A1NBHHH443OZPE","cs_wg_v5_pilot1","33F859I566EJSMIJIYNR9LLW31MHB9","7","0","STOMACH","0","5","1","4650","STOMACH","0","2017-09-15 17:18:07","45374"
"AJRY9ALX8069Y","cs_wg_v5_pilot1","3TMSXRD2X610CEVGB0G24CIAWD8W15","19","0","WEDDING","10","5","0","1147","wedding","10","2017-09-15 17:18:11","45375"
"A25DP39XRZDLQM","cs_wg_v5_pilot1","37WLF8U1WPR4O02WSS9GBXFWHHFK6V","3","0","MACHINE","1","5","0","3278","Machine","1","2017-09-15 17:18:11","45376"
"A320QA9HJFUOZO","cs_wg_v5_pilot1","3NL0RFNU0FOQ9DYI94G1EZVILQ9K4A","15","0","COMMUNITY","10","5","0","2494","community","10","2017-09-15 17:18:13","45377"
"A2R9MIRIP29431","cs_wg_v5_pilot1","3ZDAD0O1T1EGAYCFNOWYC1FCXY5TX4","19","0","HELICOPTER","10","5","0","1766","helicopter","10","2017-09-15 17:18:18","45378"
"AJRY9ALX8069Y","cs_wg_v5_pilot1","3TMSXRD2X610CEVGB0G24CIAWD8W15","20","0","STRUCTURE","10","5","0","921","structure","10","2017-09-15 17:18:19","45379"
"A1NBHHH443OZPE","cs_wg_v5_pilot1","33F859I566EJSMIJIYNR9LLW31MHB9","8","0","UMBRELLA","1","5","0","5773","UMBRELLA","1","2017-09-15 17:18:23","45380"
"A320QA9HJFUOZO","cs_wg_v5_pilot1","3NL0RFNU0FOQ9DYI94G1EZVILQ9K4A","16","0","COMMUNITY","10","5","0","3622","community","10","2017-09-15 17:18:25","45381"
"AJRY9ALX8069Y","cs_wg_v5_pilot1","3TMSXRD2X610CEVGB0G24CIAWD8W15","21","0","BASKET","0","5","1","2165","basket","0","2017-09-15 17:18:28","45382"
"A2R9MIRIP29431","cs_wg_v5_pilot1","3ZDAD0O1T1EGAYCFNOWYC1FCXY5TX4","20","0","TRAFFIC","0","5","1","2104","traffic","0","2017-09-15 17:18:29","45383"
"A1NBHHH443OZPE","cs_wg_v5_pilot1","33F859I566EJSMIJIYNR9LLW31MHB9","9","0","UMBRELLA","1","5","1","2573","UMBRELLA","1","2017-09-15 17:18:37","45384"
"AJRY9ALX8069Y","cs_wg_v5_pilot1","3TMSXRD2X610CEVGB0G24CIAWD8W15","22","0","FOOTBALL","1","5","1","2821","football","1","2017-09-15 17:18:38","45385"
"A320QA9HJFUOZO","cs_wg_v5_pilot1","3NL0RFNU0FOQ9DYI94G1EZVILQ9K4A","17","0","FOOTBALL","1","5","0","1043","football","1","2017-09-15 17:18:38","45386"
"A2R9MIRIP29431","cs_wg_v5_pilot1","3ZDAD0O1T1EGAYCFNOWYC1FCXY5TX4","21","0","COMMUNITY","9","5","1","2270","community","9","2017-09-15 17:18:42","45387"
"A25DP39XRZDLQM","cs_wg_v5_pilot1","37WLF8U1WPR4O02WSS9GBXFWHHFK6V","4","0","FOOTBALL","1","5","1","5890","FOOTBALL

FOOTBALL

football","1","2017-09-15 17:18:43","45388"
"AJRY9ALX8069Y","cs_wg_v5_pilot1","3TMSXRD2X610CEVGB0G24CIAWD8W15","23","0","FOOTBALL","1","5","1","1510","football","1","2017-09-15 17:18:46","45389"
"A320QA9HJFUOZO","cs_wg_v5_pilot1","3NL0RFNU0FOQ9DYI94G1EZVILQ9K4A","18","0","DOORWAY","9","5","0","2495","doorway","9","2017-09-15 17:18:47","45390"
"A1NBHHH443OZPE","cs_wg_v5_pilot1","33F859I566EJSMIJIYNR9LLW31MHB9","10","0","LADDER","1","5","1","6774","LADDER","1","2017-09-15 17:18:53","45391"
"A2R9MIRIP29431","cs_wg_v5_pilot1","3ZDAD0O1T1EGAYCFNOWYC1FCXY5TX4","22","0","STRUCTURE","10","5","0","1697","structure","10","2017-09-15 17:18:54","45392"
"AJRY9ALX8069Y","cs_wg_v5_pilot1","3TMSXRD2X610CEVGB0G24CIAWD8W15","24","0","COMMUNITY","9","5","0","2127","community","9","2017-09-15 17:18:56","45393"
"A320QA9HJFUOZO","cs_wg_v5_pilot1","3NL0RFNU0FOQ9DYI94G1EZVILQ9K4A","19","0","LADDER","0","5","1","2865","ladder","0","2017-09-15 17:18:58","45394"
"AJRY9ALX8069Y","cs_wg_v5_pilot1","3TMSXRD2X610CEVGB0G24CIAWD8W15","25","0","BASKET","0","5","1","2008","basket","0","2017-09-15 17:19:05","45395"
"A2R9MIRIP29431","cs_wg_v5_pilot1","3ZDAD0O1T1EGAYCFNOWYC1FCXY5TX4","23","0","COMMUNITY","9","5","0","2267","communnity","9","2017-09-15 17:19:05","45396"
"A25DP39XRZDLQM","cs_wg_v5_pilot1","37WLF8U1WPR4O02WSS9GBXFWHHFK6V","5","0","BOOKSHELF","0","5","1","10669","BOOKSHELF","0","2017-09-15 17:19:06","45397"
"A320QA9HJFUOZO","cs_wg_v5_pilot1","3NL0RFNU0FOQ9DYI94G1EZVILQ9K4A","20","0","BOOKSHELF","10","5","0","1093","bookshelf","10","2017-09-15 17:19:12","45398"
"AJRY9ALX8069Y","cs_wg_v5_pilot1","3TMSXRD2X610CEVGB0G24CIAWD8W15","26","0","BOOKSHELF","9","5","1","2182","bookshelf","9","2017-09-15 17:19:14","45399"
"A2R9MIRIP29431","cs_wg_v5_pilot1","3ZDAD0O1T1EGAYCFNOWYC1FCXY5TX4","24","0","STRUCTURE","10","5","0","5185","structure","10","2017-09-15 17:19:20","45400"
"AJRY9ALX8069Y","cs_wg_v5_pilot1","3TMSXRD2X610CEVGB0G24CIAWD8W15","27","0","STOMACH","0","5","1","2346","stomach","0","2017-09-15 17:19:23","45401"
"A320QA9HJFUOZO","cs_wg_v5_pilot1","3NL0RFNU0FOQ9DYI94G1EZVILQ9K4A","21","0","UMBRELLA","10","5","0","1016","umbrella","10","2017-09-15 17:19:25","45402"
"A25DP39XRZDLQM","cs_wg_v5_pilot1","37WLF8U1WPR4O02WSS9GBXFWHHFK6V","6","0","MACHINE","1","5","1","9491","MACHINE","1","2017-09-15 17:19:27","45403"
"A3PYFNAED6X1BL","cs_wg_v5_pilot1","35BLDD71I6YKSLGJT1KYA4J82JJVZJ","0","0","COMMUNITY","1","5","1","2214","community","1","2017-09-15 17:19:29","45404"
"AJRY9ALX8069Y","cs_wg_v5_pilot1","3TMSXRD2X610CEVGB0G24CIAWD8W15","28","0","STRUCTURE","10","5","0","2072","structure","10","2017-09-15 17:19:31","45405"
"A2R9MIRIP29431","cs_wg_v5_pilot1","3ZDAD0O1T1EGAYCFNOWYC1FCXY5TX4","25","0","COMMUNITY","9","5","0","1619","community","9","2017-09-15 17:19:32","45406"
"AJRY9ALX8069Y","cs_wg_v5_pilot1","3TMSXRD2X610CEVGB0G24CIAWD8W15","29","0","BOOKSHELF","9","5","0","1541","bookshelf","9","2017-09-15 17:19:39","45407"
"A2R9MIRIP29431","cs_wg_v5_pilot1","3ZDAD0O1T1EGAYCFNOWYC1FCXY5TX4","26","0","KEYBOARD","0","5","1","3278","keyboard","0","2017-09-15 17:19:44","45408"
"A13WFFPE9L1QAB","cs_wg_v5_pilot1","3GDTJDAPVUCMI2LN6JJUAO3RCH0M8O","0","0","KEYBOARD","10","5","0","5192","keyboard","10","2017-09-15 17:19:44","45409"
"A3PYFNAED6X1BL","cs_wg_v5_pilot1","35BLDD71I6YKSLGJT1KYA4J82JJVZJ","1","0","MACHINE","1","5","1","2730","machine","1","2017-09-15 17:19:45","45410"
"A25DP39XRZDLQM","cs_wg_v5_pilot1","37WLF8U1WPR4O02WSS9GBXFWHHFK6V","7","0","BOOKSHELF","0","5","1","9404","BOOKSHELF","0","2017-09-15 17:19:47","45411"
"AJRY9ALX8069Y","cs_wg_v5_pilot1","3TMSXRD2X610CEVGB0G24CIAWD8W15","30","0","MACHINE","10","5","1","2550","machine","10","2017-09-15 17:19:48","45412"
"AJRY9ALX8069Y","cs_wg_v5_pilot1","3TMSXRD2X610CEVGB0G24CIAWD8W15","31","0","DOORWAY","9","5","1","1565","doorway","9","2017-09-15 17:19:56","45413"
"A1NBHHH443OZPE","cs_wg_v5_pilot1","33F859I566EJSMIJIYNR9LLW31MHB9","11","0","UMBRELLA","1","5","1","53919","UMBRELLA","1","2017-09-15 17:19:57","45414"
"A3PYFNAED6X1BL","cs_wg_v5_pilot1","35BLDD71I6YKSLGJT1KYA4J82JJVZJ","2","0","COMMUNITY","1","5","1","2238","community","1","2017-09-15 17:19:58","45415"
"A2R9MIRIP29431","cs_wg_v5_pilot1","3ZDAD0O1T1EGAYCFNOWYC1FCXY5TX4","27","0","HELICOPTER","10","5","0","1996","helicopter","10","2017-09-15 17:19:58","45416"
"AJRY9ALX8069Y","cs_wg_v5_pilot1","3TMSXRD2X610CEVGB0G24CIAWD8W15","32","0","FOOTBALL","1","5","1","1505","football","1","2017-09-15 17:20:05","45417"
"A1NBHHH443OZPE","cs_wg_v5_pilot1","33F859I566EJSMIJIYNR9LLW31MHB9","12","0","BOOKSHELF","0","5","1","2339","BOOKSHELF","0","2017-09-15 17:20:08","45418"
"A25DP39XRZDLQM","cs_wg_v5_pilot1","37WLF8U1WPR4O02WSS9GBXFWHHFK6V","8","0","UMBRELLA","9","5","0","7888","UMBRELLA","9","2017-09-15 17:20:08","45419"
"A2R9MIRIP29431","cs_wg_v5_pilot1","3ZDAD0O1T1EGAYCFNOWYC1FCXY5TX4","28","0","MACHINE","10","5","1","2451","machine","10","2017-09-15 17:20:09","45420"
"AJRY9ALX8069Y","cs_wg_v5_pilot1","3TMSXRD2X610CEVGB0G24CIAWD8W15","33","0","BASKET","0","5","1","2000","basket","0","2017-09-15 17:20:13","45421"
"A2R9MIRIP29431","cs_wg_v5_pilot1","3ZDAD0O1T1EGAYCFNOWYC1FCXY5TX4","29","0","FOOTBALL","9","5","0","2301","football","9","2017-09-15 17:20:21","45422"
"AJRY9ALX8069Y","cs_wg_v5_pilot1","3TMSXRD2X610CEVGB0G24CIAWD8W15","34","0","STOMACH","0","5","1","1657","stomach","0","2017-09-15 17:20:22","45423"
"A1NBHHH443OZPE","cs_wg_v5_pilot1","33F859I566EJSMIJIYNR9LLW31MHB9","13","0","MACHINE","9","5","0","2976","MACHINE","9","2017-09-15 17:20:23","45424"
"A13WFFPE9L1QAB","cs_wg_v5_pilot1","3GDTJDAPVUCMI2LN6JJUAO3RCH0M8O","1","0","UMBRELLA","0","5","0","4383","umbrella","0","2017-09-15 17:20:23","45425"
"A25DP39XRZDLQM","cs_wg_v5_pilot1","37WLF8U1WPR4O02WSS9GBXFWHHFK6V","9","0","BOOKSHELF","0","5","1","9917","BOOKSHELF","0","2017-09-15 17:20:30","45426"
"A320QA9HJFUOZO","cs_wg_v5_pilot1","3NL0RFNU0FOQ9DYI94G1EZVILQ9K4A","22","0","STRUCTURE","10","5","0","1314","structure","10","2017-09-15 17:20:32","45427"
"AJRY9ALX8069Y","cs_wg_v5_pilot1","3TMSXRD2X610CEVGB0G24CIAWD8W15","35","0","WEDDING","10","5","0","1222","wedding","10","2017-09-15 17:20:33","45428"
"A2R9MIRIP29431","cs_wg_v5_pilot1","3ZDAD0O1T1EGAYCFNOWYC1FCXY5TX4","30","0","LADDER","1","5","1","4545","ladder","1","2017-09-15 17:20:33","45429"
"A3PYFNAED6X1BL","cs_wg_v5_pilot1","35BLDD71I6YKSLGJT1KYA4J82JJVZJ","3","0","UMBRELLA","10","5","1","1922","umbrella","10","2017-09-15 17:20:35","45430"
"A1NBHHH443OZPE","cs_wg_v5_pilot1","33F859I566EJSMIJIYNR9LLW31MHB9","14","0","TRAFFIC","9","5","1","2958","TRAFFIC","9","2017-09-15 17:20:40","45431"
"AJRY9ALX8069Y","cs_wg_v5_pilot1","3TMSXRD2X610CEVGB0G24CIAWD8W15","36","0","WEDDING","10","5","0","947","wedding","10","2017-09-15 17:20:41","45432"
"A320QA9HJFUOZO","cs_wg_v5_pilot1","3NL0RFNU0FOQ9DYI94G1EZVILQ9K4A","23","0","LADDER","0","5","1","2739","ladder","0","2017-09-15 17:20:43","45433"
"A2R9MIRIP29431","cs_wg_v5_pilot1","3ZDAD0O1T1EGAYCFNOWYC1FCXY5TX4","31","0","BASKET","1","5","1","2410","basket","1","2017-09-15 17:20:44","45434"
"AJRY9ALX8069Y","cs_wg_v5_pilot1","3TMSXRD2X610CEVGB0G24CIAWD8W15","37","0","COMMUNITY","9","5","0","1611","community","9","2017-09-15 17:20:50","45435"
"A25DP39XRZDLQM","cs_wg_v5_pilot1","37WLF8U1WPR4O02WSS9GBXFWHHFK6V","10","0","BOOKSHELF","0","5","1","8778","BOOKSHELF","0","2017-09-15 17:20:51","45436"
"A1NBHHH443OZPE","cs_wg_v5_pilot1","33F859I566EJSMIJIYNR9LLW31MHB9","15","0","UMBRELLA","1","5","1","2125","UMBRELLA","1","2017-09-15 17:20:52","45437"
"A3PYFNAED6X1BL","cs_wg_v5_pilot1","35BLDD71I6YKSLGJT1KYA4J82JJVZJ","4","0","BOOKSHELF","1","5","1","3565","bookshelf","1","2017-09-15 17:20:56","45438"
"A2R9MIRIP29431","cs_wg_v5_pilot1","3ZDAD0O1T1EGAYCFNOWYC1FCXY5TX4","32","0","BOOKSHELF","9","5","0","2074","bookshelf","9","2017-09-15 17:20:56","45439"
"A320QA9HJFUOZO","cs_wg_v5_pilot1","3NL0RFNU0FOQ9DYI94G1EZVILQ9K4A","24","0","COMMUNITY","10","5","0","4007","community","10","2017-09-15 17:20:57","45440"
"AJRY9ALX8069Y","cs_wg_v5_pilot1","3TMSXRD2X610CEVGB0G24CIAWD8W15","38","0","HELICOPTER","0","5","1","1741","helicopter","0","2017-09-15 17:21:00","45441"
"A13WFFPE9L1QAB","cs_wg_v5_pilot1","3GDTJDAPVUCMI2LN6JJUAO3RCH0M8O","2","0","DOORWAY","10","5","0","7857","doorway","10","2017-09-15 17:21:06","45442"
"A1NBHHH443OZPE","cs_wg_v5_pilot1","33F859I566EJSMIJIYNR9LLW31MHB9","16","0","KEYBOARD","10","5","1","2979","KEYBOARD","10","2017-09-15 17:21:07","45443"
"A320QA9HJFUOZO","cs_wg_v5_pilot1","3NL0RFNU0FOQ9DYI94G1EZVILQ9K4A","25","0","STOMACH","0","5","1","3342","stomach","0","2017-09-15 17:21:08","45444"
"A2R9MIRIP29431","cs_wg_v5_pilot1","3ZDAD0O1T1EGAYCFNOWYC1FCXY5TX4","33","0","HELICOPTER","10","5","0","1724","helicopter","10","2017-09-15 17:21:09","45445"
"AJRY9ALX8069Y","cs_wg_v5_pilot1","3TMSXRD2X610CEVGB0G24CIAWD8W15","39","0","STOMACH","0","5","1","2247","stomach","0","2017-09-15 17:21:09","45446"
"A3PYFNAED6X1BL","cs_wg_v5_pilot1","35BLDD71I6YKSLGJT1KYA4J82JJVZJ","5","0","DOORWAY","9","5","1","2426","doorway","9","2017-09-15 17:21:11","45447"
"A25DP39XRZDLQM","cs_wg_v5_pilot1","37WLF8U1WPR4O02WSS9GBXFWHHFK6V","11","0","STRUCTURE","0","5","1","9529","STRUCTURE","0","2017-09-15 17:21:12","45448"
"A320QA9HJFUOZO","cs_wg_v5_pilot1","3NL0RFNU0FOQ9DYI94G1EZVILQ9K4A","26","0","FOOTBALL","1","5","1","2099","football","1","2017-09-15 17:21:17","45449"
"AJRY9ALX8069Y","cs_wg_v5_pilot1","3TMSXRD2X610CEVGB0G24CIAWD8W15","40","0","STRUCTURE","10","5","0","1468","structure","10","2017-09-15 17:21:21","45450"
"A2R9MIRIP29431","cs_wg_v5_pilot1","3ZDAD0O1T1EGAYCFNOWYC1FCXY5TX4","34","0","TRAFFIC","0","5","1","2551","traffic","0","2017-09-15 17:21:21","45451"
"A1NBHHH443OZPE","cs_wg_v5_pilot1","33F859I566EJSMIJIYNR9LLW31MHB9","17","0","TRAFFIC","9","5","0","3824","TRAFFIC","9","2017-09-15 17:21:28","45452"
"A3PYFNAED6X1BL","cs_wg_v5_pilot1","35BLDD71I6YKSLGJT1KYA4J82JJVZJ","6","0","STRUCTURE","10","5","1","2443","structure","10","2017-09-15 17:21:29","45453"
"AJRY9ALX8069Y","cs_wg_v5_pilot1","3TMSXRD2X610CEVGB0G24CIAWD8W15","41","0","KEYBOARD","10","5","0","1189","keyboard","10","2017-09-15 17:21:29","45454"
"A25DP39XRZDLQM","cs_wg_v5_pilot1","37WLF8U1WPR4O02WSS9GBXFWHHFK6V","12","0","LADDER","0","5","1","6432","LADDER","0","2017-09-15 17:21:30","45455"
"A320QA9HJFUOZO","cs_wg_v5_pilot1","3NL0RFNU0FOQ9DYI94G1EZVILQ9K4A","27","0","WEDDING","0","5","0","2252","wedding","0","2017-09-15 17:21:35","45456"
"AJRY9ALX8069Y","cs_wg_v5_pilot1","3TMSXRD2X610CEVGB0G24CIAWD8W15","42","0","LADDER","0","5","1","1426","ladder","0","2017-09-15 17:21:38","45457"
"A2R9MIRIP29431","cs_wg_v5_pilot1","3ZDAD0O1T1EGAYCFNOWYC1FCXY5TX4","35","0","DOORWAY","0","5","1","2056","doorway","0","2017-09-15 17:21:43","45458"
"A2R9MIRIP29431","cs_wg_v5_pilot1","3ZDAD0O1T1EGAYCFNOWYC1FCXY5TX4","36","0","BASKET","1","5","1","2053","basket","1","2017-09-15 17:21:44","45459"
"A1NBHHH443OZPE","cs_wg_v5_pilot1","33F859I566EJSMIJIYNR9LLW31MHB9","18","0","UMBRELLA","1","5","1","3032","UMBRELLA","1","2017-09-15 17:21:44","45460"
"A320QA9HJFUOZO","cs_wg_v5_pilot1","3NL0RFNU0FOQ9DYI94G1EZVILQ9K4A","28","0","HELICOPTER","0","5","1","1501","helicopter","0","2017-09-15 17:21:44","45461"
"AJRY9ALX8069Y","cs_wg_v5_pilot1","3TMSXRD2X610CEVGB0G24CIAWD8W15","43","0","TRAFFIC","1","5","1","2794","traffic","1","2017-09-15 17:21:47","45462"
"A3PYFNAED6X1BL","cs_wg_v5_pilot1","35BLDD71I6YKSLGJT1KYA4J82JJVZJ","7","0","WEDDING","0","5","1","6612","wedding","0","2017-09-15 17:21:50","45463"
"A320QA9HJFUOZO","cs_wg_v5_pilot1","3NL0RFNU0FOQ9DYI94G1EZVILQ9K4A","29","0","BOOKSHELF","10","5","0","2359","bookshelf","10","2017-09-15 17:21:54","45464"
"AJRY9ALX8069Y","cs_wg_v5_pilot1","3TMSXRD2X610CEVGB0G24CIAWD8W15","44","0","BASKET","0","5","1","1254","basket","1","2017-09-15 17:21:55","45465"
"A2R9MIRIP29431","cs_wg_v5_pilot1","3ZDAD0O1T1EGAYCFNOWYC1FCXY5TX4","37","0","UMBRELLA","1","5","1","4902","umbrella","1","2017-09-15 17:21:57","45466"
"A1NBHHH443OZPE","cs_wg_v5_pilot1","33F859I566EJSMIJIYNR9LLW31MHB9","19","0","STRUCTURE","0","5","1","2531","STRUCTURE","0","2017-09-15 17:21:59","45467"
"A3PYFNAED6X1BL","cs_wg_v5_pilot1","35BLDD71I6YKSLGJT1KYA4J82JJVZJ","8","0","TRAFFIC","10","5","1","2643","traffic","10","2017-09-15 17:22:03","45468"
"AJRY9ALX8069Y","cs_wg_v5_pilot1","3TMSXRD2X610CEVGB0G24CIAWD8W15","45","0","STOMACH","0","5","1","1982","stomach","0","2017-09-15 17:22:04","45469"
"A320QA9HJFUOZO","cs_wg_v5_pilot1","3NL0RFNU0FOQ9DYI94G1EZVILQ9K4A","30","0","MACHINE","9","5","0","2885","machine","9","2017-09-15 17:22:05","45470"
"A2R9MIRIP29431","cs_wg_v5_pilot1","3ZDAD0O1T1EGAYCFNOWYC1FCXY5TX4","38","0","BOOKSHELF","9","5","1","2697","bookshelf","9","2017-09-15 17:22:09","45471"
"A13WFFPE9L1QAB","cs_wg_v5_pilot1","3GDTJDAPVUCMI2LN6JJUAO3RCH0M8O","3","0","FOOTBALL","0","5","0","28344","football","0","2017-09-15 17:22:10","45472"
"A1NBHHH443OZPE","cs_wg_v5_pilot1","33F859I566EJSMIJIYNR9LLW31MHB9","20","0","KEYBOARD","10","5","0","3171","KEYBOARD","10","2017-09-15 17:22:11","45473"
"AJRY9ALX8069Y","cs_wg_v5_pilot1","3TMSXRD2X610CEVGB0G24CIAWD8W15","46","0","TRAFFIC","1","5","1","1590","traffic","1","2017-09-15 17:22:12","45474"
"A25DP39XRZDLQM","cs_wg_v5_pilot1","37WLF8U1WPR4O02WSS9GBXFWHHFK6V","13","0","DOORWAY","10","5","0","5977","DOORWAY ","10","2017-09-15 17:22:14","45475"
"A320QA9HJFUOZO","cs_wg_v5_pilot1","3NL0RFNU0FOQ9DYI94G1EZVILQ9K4A","31","0","KEYBOARD","1","5","1","3305","keyboard","1","2017-09-15 17:22:15","45476"
"A3PYFNAED6X1BL","cs_wg_v5_pilot1","35BLDD71I6YKSLGJT1KYA4J82JJVZJ","9","0","KEYBOARD","0","5","1","3252","keyboard","0","2017-09-15 17:22:18","45477"
"A2WNVSJ1Y06SS1","cs_wg_v5_pilot1","3TVSS0C0E111LY7PDJ0CAI15OWZTWB","0","0","FOOTBALL","0","5","0","3900","football","0","2017-09-15 17:22:20","45478"
"AJRY9ALX8069Y","cs_wg_v5_pilot1","3TMSXRD2X610CEVGB0G24CIAWD8W15","47","0","COMMUNITY","9","5","1","1262","community","9","2017-09-15 17:22:20","45479"
"A2R9MIRIP29431","cs_wg_v5_pilot1","3ZDAD0O1T1EGAYCFNOWYC1FCXY5TX4","39","0","KEYBOARD","0","5","1","1614","keyboard","0","2017-09-15 17:22:24","45480"
"A1NBHHH443OZPE","cs_wg_v5_pilot1","33F859I566EJSMIJIYNR9LLW31MHB9","21","0","BASKET","10","5","1","3272","BASKET","10","2017-09-15 17:22:24","45481"
"A320QA9HJFUOZO","cs_wg_v5_pilot1","3NL0RFNU0FOQ9DYI94G1EZVILQ9K4A","32","0","UMBRELLA","10","5","0","2036","umbrella","10","2017-09-15 17:22:25","45482"
"AJRY9ALX8069Y","cs_wg_v5_pilot1","3TMSXRD2X610CEVGB0G24CIAWD8W15","48","0","FOOTBALL","1","5","1","1263","football","1","2017-09-15 17:22:28","45483"
"A3PYFNAED6X1BL","cs_wg_v5_pilot1","35BLDD71I6YKSLGJT1KYA4J82JJVZJ","10","0","KEYBOARD","0","5","1","2172","keyboard","0","2017-09-15 17:22:31","45484"
"A2R9MIRIP29431","cs_wg_v5_pilot1","3ZDAD0O1T1EGAYCFNOWYC1FCXY5TX4","40","0","UMBRELLA","1","5","1","1510","umbrella","1","2017-09-15 17:22:35","45485"
"A320QA9HJFUOZO","cs_wg_v5_pilot1","3NL0RFNU0FOQ9DYI94G1EZVILQ9K4A","33","0","STRUCTURE","10","5","0","3130","structure","10","2017-09-15 17:22:38","45486"
"A1NBHHH443OZPE","cs_wg_v5_pilot1","33F859I566EJSMIJIYNR9LLW31MHB9","22","0","UMBRELLA","1","5","1","2449","UMBRELLA","1","2017-09-15 17:22:39","45487"
"A2WNVSJ1Y06SS1","cs_wg_v5_pilot1","3TVSS0C0E111LY7PDJ0CAI15OWZTWB","1","0","HELICOPTER","10","5","0","7448","helicopter","10","2017-09-15 17:22:40","45488"
"AJRY9ALX8069Y","cs_wg_v5_pilot1","3TMSXRD2X610CEVGB0G24CIAWD8W15","49","0","KEYBOARD","10","5","0","1582","keyboard","10","2017-09-15 17:22:41","45489"
"A3PYFNAED6X1BL","cs_wg_v5_pilot1","35BLDD71I6YKSLGJT1KYA4J82JJVZJ","11","0","KEYBOARD","0","5","1","1663","keyboard","0","2017-09-15 17:22:43","45490"
"A2R9MIRIP29431","cs_wg_v5_pilot1","3ZDAD0O1T1EGAYCFNOWYC1FCXY5TX4","41","0","LADDER","1","5","1","1564","ladder","1","2017-09-15 17:22:44","45491"
"A320QA9HJFUOZO","cs_wg_v5_pilot1","3NL0RFNU0FOQ9DYI94G1EZVILQ9K4A","34","0","HELICOPTER","0","5","1","1243","helicopter","0","2017-09-15 17:22:46","45492"
"A25DP39XRZDLQM","cs_wg_v5_pilot1","37WLF8U1WPR4O02WSS9GBXFWHHFK6V","14","0","BASKET","9","5","1","6866","BASKET ","9","2017-09-15 17:22:46","45493"
"AJRY9ALX8069Y","cs_wg_v5_pilot1","3TMSXRD2X610CEVGB0G24CIAWD8W15","50","0","BASKET","0","5","1","2445","basket","0","2017-09-15 17:22:50","45494"
"A1NBHHH443OZPE","cs_wg_v5_pilot1","33F859I566EJSMIJIYNR9LLW31MHB9","23","0","TRAFFIC","9","5","0","2577","TRAFFIC","9","2017-09-15 17:22:52","45495"
"A2R9MIRIP29431","cs_wg_v5_pilot1","3ZDAD0O1T1EGAYCFNOWYC1FCXY5TX4","42","0","BOOKSHELF","9","5","0","1557","bookshelf","9","2017-09-15 17:22:55","45496"
"A320QA9HJFUOZO","cs_wg_v5_pilot1","3NL0RFNU0FOQ9DYI94G1EZVILQ9K4A","35","0","COMMUNITY","10","5","0","3568","community","10","2017-09-15 17:22:57","45497"
"A3PYFNAED6X1BL","cs_wg_v5_pilot1","35BLDD71I6YKSLGJT1KYA4J82JJVZJ","12","0","STRUCTURE","10","5","0","3404","structure","10","2017-09-15 17:22:58","45498"
"AJRY9ALX8069Y","cs_wg_v5_pilot1","3TMSXRD2X610CEVGB0G24CIAWD8W15","51","0","STRUCTURE","10","5","0","1605","structure","10","2017-09-15 17:22:58","45499"
"A2WNVSJ1Y06SS1","cs_wg_v5_pilot1","3TVSS0C0E111LY7PDJ0CAI15OWZTWB","2","0","UMBRELLA","9","5","0","6343","umbrella","9","2017-09-15 17:23:00","45500"
"A13WFFPE9L1QAB","cs_wg_v5_pilot1","3GDTJDAPVUCMI2LN6JJUAO3RCH0M8O","4","0","LADDER","1","5","0","6085","ladder","1","2017-09-15 17:23:01","45501"
"A1NBHHH443OZPE","cs_wg_v5_pilot1","33F859I566EJSMIJIYNR9LLW31MHB9","24","0","FOOTBALL","1","5","1","3715","FOOTBALL","1","2017-09-15 17:23:05","45502"
"A320QA9HJFUOZO","cs_wg_v5_pilot1","3NL0RFNU0FOQ9DYI94G1EZVILQ9K4A","36","0","STRUCTURE","10","5","0","1017","structure","10","2017-09-15 17:23:05","45503"
"AJRY9ALX8069Y","cs_wg_v5_pilot1","3TMSXRD2X610CEVGB0G24CIAWD8W15","52","0","LADDER","0","5","1","1759","ladder","0","2017-09-15 17:23:07","45504"
"A2R9MIRIP29431","cs_wg_v5_pilot1","3ZDAD0O1T1EGAYCFNOWYC1FCXY5TX4","43","0","UMBRELLA","1","5","1","2177","umbrella","1","2017-09-15 17:23:08","45505"
"A25DP39XRZDLQM","cs_wg_v5_pilot1","37WLF8U1WPR4O02WSS9GBXFWHHFK6V","15","0","DOORWAY","10","5","1","5762","DOORWAY","10","2017-09-15 17:23:10","45506"
"A320QA9HJFUOZO","cs_wg_v5_pilot1","3NL0RFNU0FOQ9DYI94G1EZVILQ9K4A","37","0","COMMUNITY","10","5","0","913","community","10","2017-09-15 17:23:14","45507"
"AJRY9ALX8069Y","cs_wg_v5_pilot1","3TMSXRD2X610CEVGB0G24CIAWD8W15","53","0","FOOTBALL","1","5","1","1256","football","1","2017-09-15 17:23:15","45508"
"A2R9MIRIP29431","cs_wg_v5_pilot1","3ZDAD0O1T1EGAYCFNOWYC1FCXY5TX4","44","0","LADDER","1","5","1","1286","ladder","1","2017-09-15 17:23:18","45509"
"A3PYFNAED6X1BL","cs_wg_v5_pilot1","35BLDD71I6YKSLGJT1KYA4J82JJVZJ","13","0","UMBRELLA","10","5","1","8652","umbrella","10","2017-09-15 17:23:18","45510"
"A1NBHHH443OZPE","cs_wg_v5_pilot1","33F859I566EJSMIJIYNR9LLW31MHB9","25","0","LADDER","1","5","1","5864","LADDER","1","2017-09-15 17:23:20","45511"
"AJRY9ALX8069Y","cs_wg_v5_pilot1","3TMSXRD2X610CEVGB0G24CIAWD8W15","54","0","STOMACH","0","5","1","1070","stomach","0","2017-09-15 17:23:22","45512"
"A2WNVSJ1Y06SS1","cs_wg_v5_pilot1","3TVSS0C0E111LY7PDJ0CAI15OWZTWB","3","0","MACHINE","9","5","0","5510","machine","9","2017-09-15 17:23:23","45513"
"A320QA9HJFUOZO","cs_wg_v5_pilot1","3NL0RFNU0FOQ9DYI94G1EZVILQ9K4A","38","0","FOOTBALL","1","5","1","2468","football","1","2017-09-15 17:23:24","45514"
"A2R9MIRIP29431","cs_wg_v5_pilot1","3ZDAD0O1T1EGAYCFNOWYC1FCXY5TX4","45","0","LADDER","1","5","1","1115","ladder","1","2017-09-15 17:23:29","45515"
"AJRY9ALX8069Y","cs_wg_v5_pilot1","3TMSXRD2X610CEVGB0G24CIAWD8W15","55","0","LADDER","0","5","1","1409","ladder","0","2017-09-15 17:23:30","45516"
"A3PYFNAED6X1BL","cs_wg_v5_pilot1","35BLDD71I6YKSLGJT1KYA4J82JJVZJ","14","0","STRUCTURE","10","5","0","2432","structure","10","2017-09-15 17:23:30","45517"
"A320QA9HJFUOZO","cs_wg_v5_pilot1","3NL0RFNU0FOQ9DYI94G1EZVILQ9K4A","39","0","WEDDING","0","5","1","2012","wedding","0","2017-09-15 17:23:32","45518"
"A1NBHHH443OZPE","cs_wg_v5_pilot1","33F859I566EJSMIJIYNR9LLW31MHB9","26","0","MACHINE","9","5","0","2345","MACHNINE","9","2017-09-15 17:23:33","45519"
"AJRY9ALX8069Y","cs_wg_v5_pilot1","3TMSXRD2X610CEVGB0G24CIAWD8W15","56","0","LADDER","0","5","1","1122","ladder","0","2017-09-15 17:23:38","45520"
"A25DP39XRZDLQM","cs_wg_v5_pilot1","37WLF8U1WPR4O02WSS9GBXFWHHFK6V","16","0","COMMUNITY","10","5","1","5019","COMMUNITY ","10","2017-09-15 17:23:38","45521"
"A2R9MIRIP29431","cs_wg_v5_pilot1","3ZDAD0O1T1EGAYCFNOWYC1FCXY5TX4","46","0","FOOTBALL","9","5","0","2174","football","9","2017-09-15 17:23:41","45522"
"A2WNVSJ1Y06SS1","cs_wg_v5_pilot1","3TVSS0C0E111LY7PDJ0CAI15OWZTWB","4","0","WEDDING","1","5","0","6423","wedding","1","2017-09-15 17:23:41","45523"
"A320QA9HJFUOZO","cs_wg_v5_pilot1","3NL0RFNU0FOQ9DYI94G1EZVILQ9K4A","40","0","LADDER","0","5","1","2942","ladder","0","2017-09-15 17:23:42","45524"
"A3PYFNAED6X1BL","cs_wg_v5_pilot1","35BLDD71I6YKSLGJT1KYA4J82JJVZJ","15","0","UMBRELLA","10","5","0","2426","umrella","10","2017-09-15 17:23:43","45525"
"A1NBHHH443OZPE","cs_wg_v5_pilot1","33F859I566EJSMIJIYNR9LLW31MHB9","27","0","UMBRELLA","1","5","1","1861","UMBRELLA","1","2017-09-15 17:23:44","45526"
"AJRY9ALX8069Y","cs_wg_v5_pilot1","3TMSXRD2X610CEVGB0G24CIAWD8W15","57","0","HELICOPTER","0","5","1","1540","helicopter","0","2017-09-15 17:23:46","45527"
"A320QA9HJFUOZO","cs_wg_v5_pilot1","3NL0RFNU0FOQ9DYI94G1EZVILQ9K4A","41","0","STRUCTURE","10","5","0","865","structure","10","2017-09-15 17:23:50","45528"
"A13WFFPE9L1QAB","cs_wg_v5_pilot1","3GDTJDAPVUCMI2LN6JJUAO3RCH0M8O","5","0","HELICOPTER","1","5","0","6284","helicopter","1","2017-09-15 17:23:50","45529"
"A2R9MIRIP29431","cs_wg_v5_pilot1","3ZDAD0O1T1EGAYCFNOWYC1FCXY5TX4","47","0","BOOKSHELF","9","5","0","1453","bookshelf","9","2017-09-15 17:23:51","45530"
"A3PYFNAED6X1BL","cs_wg_v5_pilot1","35BLDD71I6YKSLGJT1KYA4J82JJVZJ","16","0","MACHINE","1","5","1","3210","machine","1","2017-09-15 17:23:55","45531"
"AJRY9ALX8069Y","cs_wg_v5_pilot1","3TMSXRD2X610CEVGB0G24CIAWD8W15","58","0","MACHINE","10","5","0","3290","machine","10","2017-09-15 17:23:57","45532"
"A1NBHHH443OZPE","cs_wg_v5_pilot1","33F859I566EJSMIJIYNR9LLW31MHB9","28","0","HELICOPTER","10","5","0","3562","HELICOPTER","10","2017-09-15 17:23:58","45533"
"A320QA9HJFUOZO","cs_wg_v5_pilot1","3NL0RFNU0FOQ9DYI94G1EZVILQ9K4A","42","0","KEYBOARD","1","5","1","2021","keyboard","1","2017-09-15 17:23:59","45534"
"A2WNVSJ1Y06SS1","cs_wg_v5_pilot1","3TVSS0C0E111LY7PDJ0CAI15OWZTWB","5","0","UMBRELLA","9","5","0","3713","umbrella","9","2017-09-15 17:24:00","45535"
"A2R9MIRIP29431","cs_wg_v5_pilot1","3ZDAD0O1T1EGAYCFNOWYC1FCXY5TX4","48","0","MACHINE","10","5","1","1711","machine","10","2017-09-15 17:24:02","45536"
"AJRY9ALX8069Y","cs_wg_v5_pilot1","3TMSXRD2X610CEVGB0G24CIAWD8W15","59","0","STRUCTURE","10","5","0","1025","structure","10","2017-09-15 17:24:04","45537"
"A3PYFNAED6X1BL","cs_wg_v5_pilot1","35BLDD71I6YKSLGJT1KYA4J82JJVZJ","17","0","UMBRELLA","10","5","0","1958","umbrella","10","2017-09-15 17:24:08","45538"
"A25DP39XRZDLQM","cs_wg_v5_pilot1","37WLF8U1WPR4O02WSS9GBXFWHHFK6V","17","0","DOORWAY","10","5","0","7697","DOORWAY ","10","2017-09-15 17:24:08","45539"
"A1NBHHH443OZPE","cs_wg_v5_pilot1","33F859I566EJSMIJIYNR9LLW31MHB9","29","0","LADDER","1","5","1","3485","LADDER","1","2017-09-15 17:24:11","45540"
"AJRY9ALX8069Y","cs_wg_v5_pilot1","3TMSXRD2X610CEVGB0G24CIAWD8W15","60","0","FOOTBALL","1","5","1","1129","football","1","2017-09-15 17:24:12","45541"
"A320QA9HJFUOZO","cs_wg_v5_pilot1","3NL0RFNU0FOQ9DYI94G1EZVILQ9K4A","43","0","TRAFFIC","9","5","0","3033","traffic","9","2017-09-15 17:24:14","45542"
"A2R9MIRIP29431","cs_wg_v5_pilot1","3ZDAD0O1T1EGAYCFNOWYC1FCXY5TX4","49","0","HELICOPTER","10","5","0","2339","helicopter","10","2017-09-15 17:24:15","45543"
"A2WNVSJ1Y06SS1","cs_wg_v5_pilot1","3TVSS0C0E111LY7PDJ0CAI15OWZTWB","6","0","STOMACH","10","5","0","3519","stomach","10","2017-09-15 17:24:18","45544"
"A3PYFNAED6X1BL","cs_wg_v5_pilot1","35BLDD71I6YKSLGJT1KYA4J82JJVZJ","18","0","STOMACH","10","5","1","2096","stomach","10","2017-09-15 17:24:20","45545"
"AJRY9ALX8069Y","cs_wg_v5_pilot1","3TMSXRD2X610CEVGB0G24CIAWD8W15","61","0","DOORWAY","9","5","0","2978","doorway","9","2017-09-15 17:24:21","45546"
"A1NBHHH443OZPE","cs_wg_v5_pilot1","33F859I566EJSMIJIYNR9LLW31MHB9","30","0","STOMACH","0","5","1","3444","STOMACH","0","2017-09-15 17:24:24","45547"
"A25DP39XRZDLQM","cs_wg_v5_pilot1","37WLF8U1WPR4O02WSS9GBXFWHHFK6V","18","0","MACHINE","1","5","1","6047","MACHINE","1","2017-09-15 17:24:25","45548"
"A13WFFPE9L1QAB","cs_wg_v5_pilot1","3GDTJDAPVUCMI2LN6JJUAO3RCH0M8O","6","0","DOORWAY","10","5","0","13597","doorway","10","2017-09-15 17:24:27","45549"
"A320QA9HJFUOZO","cs_wg_v5_pilot1","3NL0RFNU0FOQ9DYI94G1EZVILQ9K4A","44","0","BOOKSHELF","10","5","0","2341","booksheld","10","2017-09-15 17:24:29","45550"
"AJRY9ALX8069Y","cs_wg_v5_pilot1","3TMSXRD2X610CEVGB0G24CIAWD8W15","62","0","HELICOPTER","0","5","1","1316","helicopter","0","2017-09-15 17:24:31","45551"
"A2R9MIRIP29431","cs_wg_v5_pilot1","3ZDAD0O1T1EGAYCFNOWYC1FCXY5TX4","50","0","LADDER","1","5","1","1476","ladder","1","2017-09-15 17:24:32","45552"
"A2WNVSJ1Y06SS1","cs_wg_v5_pilot1","3TVSS0C0E111LY7PDJ0CAI15OWZTWB","7","0","BASKET","1","5","0","4879","basket","1","2017-09-15 17:24:33","45553"
"A2R9MIRIP29431","cs_wg_v5_pilot1","3ZDAD0O1T1EGAYCFNOWYC1FCXY5TX4","51","0","HELICOPTER","10","5","0","1777","helicopter","10","2017-09-15 17:24:36","45554"
"A1NBHHH443OZPE","cs_wg_v5_pilot1","33F859I566EJSMIJIYNR9LLW31MHB9","31","0","FOOTBALL","1","5","1","2067","FOOTBALL","1","2017-09-15 17:24:36","45555"
"A3PYFNAED6X1BL","cs_wg_v5_pilot1","35BLDD71I6YKSLGJT1KYA4J82JJVZJ","19","0","WEDDING","0","5","1","3826","wedding","0","2017-09-15 17:24:36","45556"
"A320QA9HJFUOZO","cs_wg_v5_pilot1","3NL0RFNU0FOQ9DYI94G1EZVILQ9K4A","45","0","WEDDING","0","5","1","1296","wedding","0","2017-09-15 17:24:37","45557"
"AJRY9ALX8069Y","cs_wg_v5_pilot1","3TMSXRD2X610CEVGB0G24CIAWD8W15","63","0","HELICOPTER","0","5","1","1417","helicopter","0","2017-09-15 17:24:40","45558"
"A320QA9HJFUOZO","cs_wg_v5_pilot1","3NL0RFNU0FOQ9DYI94G1EZVILQ9K4A","46","0","DOORWAY","9","5","0","2471","doorway","9","2017-09-15 17:24:46","45559"
"A2R9MIRIP29431","cs_wg_v5_pilot1","3ZDAD0O1T1EGAYCFNOWYC1FCXY5TX4","52","0","UMBRELLA","1","5","1","1418","umbrella","1","2017-09-15 17:24:47","45560"
"AJRY9ALX8069Y","cs_wg_v5_pilot1","3TMSXRD2X610CEVGB0G24CIAWD8W15","64","0","STRUCTURE","10","5","0","1016","structure","10","2017-09-15 17:24:48","45561"
"A1NBHHH443OZPE","cs_wg_v5_pilot1","33F859I566EJSMIJIYNR9LLW31MHB9","32","0","COMMUNITY","0","5","1","2093","COMMUNITY","0","2017-09-15 17:24:48","45562"
"A2WNVSJ1Y06SS1","cs_wg_v5_pilot1","3TVSS0C0E111LY7PDJ0CAI15OWZTWB","8","0","DOORWAY","0","5","0","6118","doorway","0","2017-09-15 17:24:50","45563"
"A3PYFNAED6X1BL","cs_wg_v5_pilot1","35BLDD71I6YKSLGJT1KYA4J82JJVZJ","20","0","MACHINE","1","5","0","4298","machine","1","2017-09-15 17:24:51","45564"
"A25DP39XRZDLQM","cs_wg_v5_pilot1","37WLF8U1WPR4O02WSS9GBXFWHHFK6V","19","0","KEYBOARD","10","5","1","7205","KEYBOARD","10","2017-09-15 17:24:56","45565"
"AJRY9ALX8069Y","cs_wg_v5_pilot1","3TMSXRD2X610CEVGB0G24CIAWD8W15","65","0","DOORWAY","9","5","0","1243","doorway","9","2017-09-15 17:24:56","45566"
"A320QA9HJFUOZO","cs_wg_v5_pilot1","3NL0RFNU0FOQ9DYI94G1EZVILQ9K4A","47","0","BASKET","1","5","1","2092","basket","1","2017-09-15 17:24:57","45567"
"A2R9MIRIP29431","cs_wg_v5_pilot1","3ZDAD0O1T1EGAYCFNOWYC1FCXY5TX4","53","0","TRAFFIC","0","5","1","1643","traffic","0","2017-09-15 17:24:58","45568"
"A1NBHHH443OZPE","cs_wg_v5_pilot1","33F859I566EJSMIJIYNR9LLW31MHB9","33","0","COMMUNITY","0","5","1","1830","COMMUNITY","0","2017-09-15 17:25:01","45569"
"A2WNVSJ1Y06SS1","cs_wg_v5_pilot1","3TVSS0C0E111LY7PDJ0CAI15OWZTWB","9","0","DOORWAY","0","5","1","3136","doorway","0","2017-09-15 17:25:02","45570"
"A3PYFNAED6X1BL","cs_wg_v5_pilot1","35BLDD71I6YKSLGJT1KYA4J82JJVZJ","21","0","UMBRELLA","10","5","0","1644","umbrella","10","2017-09-15 17:25:03","45571"
"AJRY9ALX8069Y","cs_wg_v5_pilot1","3TMSXRD2X610CEVGB0G24CIAWD8W15","66","0","STOMACH","0","5","1","1352","stomach","0","2017-09-15 17:25:04","45572"
"A320QA9HJFUOZO","cs_wg_v5_pilot1","3NL0RFNU0FOQ9DYI94G1EZVILQ9K4A","48","0","MACHINE","9","5","0","1994","machine","9","2017-09-15 17:25:05","45573"
"A2R9MIRIP29431","cs_wg_v5_pilot1","3ZDAD0O1T1EGAYCFNOWYC1FCXY5TX4","54","0","STRUCTURE","10","5","0","3285","structure","10","2017-09-15 17:25:12","45574"
"A1NBHHH443OZPE","cs_wg_v5_pilot1","33F859I566EJSMIJIYNR9LLW31MHB9","34","0","WEDDING","10","5","0","2203","WEDDING","10","2017-09-15 17:25:13","45575"
"A2WNVSJ1Y06SS1","cs_wg_v5_pilot1","3TVSS0C0E111LY7PDJ0CAI15OWZTWB","10","0","UMBRELLA","9","5","0","2544","umbrella","9","2017-09-15 17:25:13","45576"
"AJRY9ALX8069Y","cs_wg_v5_pilot1","3TMSXRD2X610CEVGB0G24CIAWD8W15","67","0","MACHINE","10","5","0","989","machine","10","2017-09-15 17:25:14","45577"
"A25DP39XRZDLQM","cs_wg_v5_pilot1","37WLF8U1WPR4O02WSS9GBXFWHHFK6V","20","0","COMMUNITY","10","5","0","3082","COMMUNITY","10","2017-09-15 17:25:14","45578"
"A320QA9HJFUOZO","cs_wg_v5_pilot1","3NL0RFNU0FOQ9DYI94G1EZVILQ9K4A","49","0","COMMUNITY","10","5","0","1090","community","10","2017-09-15 17:25:16","45579"
"A3PYFNAED6X1BL","cs_wg_v5_pilot1","35BLDD71I6YKSLGJT1KYA4J82JJVZJ","22","0","HELICOPTER","0","5","1","2138","helicopter","0","2017-09-15 17:25:17","45580"
"A13WFFPE9L1QAB","cs_wg_v5_pilot1","3GDTJDAPVUCMI2LN6JJUAO3RCH0M8O","7","0","TRAFFIC","9","5","0","24075","traffic","9","2017-09-15 17:25:21","45581"
"A2R9MIRIP29431","cs_wg_v5_pilot1","3ZDAD0O1T1EGAYCFNOWYC1FCXY5TX4","55","0","BASKET","1","5","1","1939","basket","1","2017-09-15 17:25:22","45582"
"AJRY9ALX8069Y","cs_wg_v5_pilot1","3TMSXRD2X610CEVGB0G24CIAWD8W15","68","0","STOMACH","0","5","1","1350","stomach","0","2017-09-15 17:25:22","45583"
"A2WNVSJ1Y06SS1","cs_wg_v5_pilot1","3TVSS0C0E111LY7PDJ0CAI15OWZTWB","11","0","WEDDING","1","5","1","2073","wedding","1","2017-09-15 17:25:23","45584"
"A320QA9HJFUOZO","cs_wg_v5_pilot1","3NL0RFNU0FOQ9DYI94G1EZVILQ9K4A","50","0","UMBRELLA","10","5","0","2258","umbrella","10","2017-09-15 17:25:27","45585"
"A1NBHHH443OZPE","cs_wg_v5_pilot1","33F859I566EJSMIJIYNR9LLW31MHB9","35","0","STOMACH","0","5","1","2266","STOMACH","0","2017-09-15 17:25:28","45586"
"AJRY9ALX8069Y","cs_wg_v5_pilot1","3TMSXRD2X610CEVGB0G24CIAWD8W15","69","0","TRAFFIC","1","5","0","1986","traffic","1","2017-09-15 17:25:31","45587"
"A3PYFNAED6X1BL","cs_wg_v5_pilot1","35BLDD71I6YKSLGJT1KYA4J82JJVZJ","23","0","BOOKSHELF","1","5","1","3703","bookshelf","1","2017-09-15 17:25:31","45588"
"A25DP39XRZDLQM","cs_wg_v5_pilot1","37WLF8U1WPR4O02WSS9GBXFWHHFK6V","21","0","DOORWAY","10","5","0","3114","DOORWAY","10","2017-09-15 17:25:31","45589"
"A2R9MIRIP29431","cs_wg_v5_pilot1","3ZDAD0O1T1EGAYCFNOWYC1FCXY5TX4","56","0","MACHINE","10","5","0","3196","machine","10","2017-09-15 17:25:34","45590"
"A320QA9HJFUOZO","cs_wg_v5_pilot1","3NL0RFNU0FOQ9DYI94G1EZVILQ9K4A","51","0","BOOKSHELF","10","5","0","2095","bookshelf","10","2017-09-15 17:25:37","45591"
"A2WNVSJ1Y06SS1","cs_wg_v5_pilot1","3TVSS0C0E111LY7PDJ0CAI15OWZTWB","12","0","COMMUNITY","1","5","0","5080","community","1","2017-09-15 17:25:39","45592"
"AJRY9ALX8069Y","cs_wg_v5_pilot1","3TMSXRD2X610CEVGB0G24CIAWD8W15","70","0","WEDDING","10","5","0","1229","wedding","10","2017-09-15 17:25:39","45593"
"A1NBHHH443OZPE","cs_wg_v5_pilot1","33F859I566EJSMIJIYNR9LLW31MHB9","36","0","KEYBOARD","10","5","1","3394","KEYBOARD","10","2017-09-15 17:25:44","45594"
"A320QA9HJFUOZO","cs_wg_v5_pilot1","3NL0RFNU0FOQ9DYI94G1EZVILQ9K4A","52","0","UMBRELLA","10","5","0","873","umbrella","10","2017-09-15 17:25:46","45595"
"A25DP39XRZDLQM","cs_wg_v5_pilot1","37WLF8U1WPR4O02WSS9GBXFWHHFK6V","22","0","LADDER","0","5","1","6159","LADDER","0","2017-09-15 17:25:48","45596"
"A3PYFNAED6X1BL","cs_wg_v5_pilot1","35BLDD71I6YKSLGJT1KYA4J82JJVZJ","24","0","TRAFFIC","10","5","1","5361","traffic ","10","2017-09-15 17:25:48","45597"
"AJRY9ALX8069Y","cs_wg_v5_pilot1","3TMSXRD2X610CEVGB0G24CIAWD8W15","71","0","UMBRELLA","1","5","0","2128","umbrella","1","2017-09-15 17:25:48","45598"
"A2R9MIRIP29431","cs_wg_v5_pilot1","3ZDAD0O1T1EGAYCFNOWYC1FCXY5TX4","57","0","HELICOPTER","10","5","0","1451","helicopter","10","2017-09-15 17:25:49","45599"
"A2WNVSJ1Y06SS1","cs_wg_v5_pilot1","3TVSS0C0E111LY7PDJ0CAI15OWZTWB","13","0","HELICOPTER","10","5","0","3678","helicopter","10","2017-09-15 17:25:52","45600"
"AJRY9ALX8069Y","cs_wg_v5_pilot1","3TMSXRD2X610CEVGB0G24CIAWD8W15","72","0","UMBRELLA","1","5","1","1535","umbrella","1","2017-09-15 17:25:57","45601"
"A320QA9HJFUOZO","cs_wg_v5_pilot1","3NL0RFNU0FOQ9DYI94G1EZVILQ9K4A","53","0","FOOTBALL","1","5","1","1200","football","1","2017-09-15 17:25:58","45602"
"A2R9MIRIP29431","cs_wg_v5_pilot1","3ZDAD0O1T1EGAYCFNOWYC1FCXY5TX4","58","0","LADDER","1","5","1","1538","ladder","1","2017-09-15 17:25:58","45603"
"A1NBHHH443OZPE","cs_wg_v5_pilot1","33F859I566EJSMIJIYNR9LLW31MHB9","37","0","STRUCTURE","0","5","1","3812","STRUCTURE","0","2017-09-15 17:25:58","45604"
"A13WFFPE9L1QAB","cs_wg_v5_pilot1","3GDTJDAPVUCMI2LN6JJUAO3RCH0M8O","8","0","MACHINE","10","5","0","12402","machine","10","2017-09-15 17:26:00","45605"
"A3PYFNAED6X1BL","cs_wg_v5_pilot1","35BLDD71I6YKSLGJT1KYA4J82JJVZJ","25","0","LADDER","9","5","1","1848","ladder","9","2017-09-15 17:26:00","45606"
"A2WNVSJ1Y06SS1","cs_wg_v5_pilot1","3TVSS0C0E111LY7PDJ0CAI15OWZTWB","14","0","WEDDING","1","5","1","2158","wedding","1","2017-09-15 17:26:03","45607"
"AJRY9ALX8069Y","cs_wg_v5_pilot1","3TMSXRD2X610CEVGB0G24CIAWD8W15","73","0","TRAFFIC","1","5","1","1645","traffic","1","2017-09-15 17:26:06","45608"
"A320QA9HJFUOZO","cs_wg_v5_pilot1","3NL0RFNU0FOQ9DYI94G1EZVILQ9K4A","54","0","LADDER","0","5","1","2587","ladder","0","2017-09-15 17:26:08","45609"
"A2R9MIRIP29431","cs_wg_v5_pilot1","3ZDAD0O1T1EGAYCFNOWYC1FCXY5TX4","59","0","STRUCTURE","10","5","0","1484","structure","10","2017-09-15 17:26:10","45610"
"A25DP39XRZDLQM","cs_wg_v5_pilot1","37WLF8U1WPR4O02WSS9GBXFWHHFK6V","23","0","LADDER","0","5","1","10036","LADDER","0","2017-09-15 17:26:10","45611"
"A1NBHHH443OZPE","cs_wg_v5_pilot1","33F859I566EJSMIJIYNR9LLW31MHB9","38","0","STOMACH","0","5","1","2088","STOMACH","0","2017-09-15 17:26:11","45612"
"A3PYFNAED6X1BL","cs_wg_v5_pilot1","35BLDD71I6YKSLGJT1KYA4J82JJVZJ","26","0","STOMACH","10","5","0","1729","stomach","10","2017-09-15 17:26:11","45613"
"AJRY9ALX8069Y","cs_wg_v5_pilot1","3TMSXRD2X610CEVGB0G24CIAWD8W15","74","0","DOORWAY","9","5","0","1436","doorway","9","2017-09-15 17:26:14","45614"
"A320QA9HJFUOZO","cs_wg_v5_pilot1","3NL0RFNU0FOQ9DYI94G1EZVILQ9K4A","55","0","LADDER","0","5","1","3641","ladder","0","2017-09-15 17:26:20","45615"
"A2R9MIRIP29431","cs_wg_v5_pilot1","3ZDAD0O1T1EGAYCFNOWYC1FCXY5TX4","60","0","MACHINE","10","5","0","2457","machine","10","2017-09-15 17:26:22","45616"
"A3PYFNAED6X1BL","cs_wg_v5_pilot1","35BLDD71I6YKSLGJT1KYA4J82JJVZJ","27","0","COMMUNITY","1","5","1","1870","community","1","2017-09-15 17:26:23","45617"
"AJRY9ALX8069Y","cs_wg_v5_pilot1","3TMSXRD2X610CEVGB0G24CIAWD8W15","75","0","COMMUNITY","9","5","0","1490","community","9","2017-09-15 17:26:24","45618"
"A1NBHHH443OZPE","cs_wg_v5_pilot1","33F859I566EJSMIJIYNR9LLW31MHB9","39","0","TRAFFIC","9","5","0","5659","TRAFFIC","9","2017-09-15 17:26:27","45619"
"A320QA9HJFUOZO","cs_wg_v5_pilot1","3NL0RFNU0FOQ9DYI94G1EZVILQ9K4A","56","0","KEYBOARD","1","5","1","1805","keyboard","1","2017-09-15 17:26:31","45620"
"A25DP39XRZDLQM","cs_wg_v5_pilot1","37WLF8U1WPR4O02WSS9GBXFWHHFK6V","24","0","HELICOPTER","1","5","0","5551","HELICOPTER","1","2017-09-15 17:26:31","45621"
"A2R9MIRIP29431","cs_wg_v5_pilot1","3ZDAD0O1T1EGAYCFNOWYC1FCXY5TX4","61","0","WEDDING","10","5","0","1883","wedding","10","2017-09-15 17:26:31","45622"
"AJRY9ALX8069Y","cs_wg_v5_pilot1","3TMSXRD2X610CEVGB0G24CIAWD8W15","76","0","DOORWAY","9","5","0","1406","doorway","9","2017-09-15 17:26:32","45623"
"A320QA9HJFUOZO","cs_wg_v5_pilot1","3NL0RFNU0FOQ9DYI94G1EZVILQ9K4A","57","0","STOMACH","0","5","1","1281","stomach","0","2017-09-15 17:26:39","45624"
"A3PYFNAED6X1BL","cs_wg_v5_pilot1","35BLDD71I6YKSLGJT1KYA4J82JJVZJ","28","0","MACHINE","1","5","1","5476","machine ","1","2017-09-15 17:26:39","45625"
"A1NBHHH443OZPE","cs_wg_v5_pilot1","33F859I566EJSMIJIYNR9LLW31MHB9","40","0","BASKET","10","5","1","3811","BASKET","10","2017-09-15 17:26:41","45626"
"A13WFFPE9L1QAB","cs_wg_v5_pilot1","3GDTJDAPVUCMI2LN6JJUAO3RCH0M8O","9","0","WEDDING","9","5","0","7190","wedding","9","2017-09-15 17:26:42","45627"
"AJRY9ALX8069Y","cs_wg_v5_pilot1","3TMSXRD2X610CEVGB0G24CIAWD8W15","77","0","COMMUNITY","9","5","0","3272","community ","9","2017-09-15 17:26:44","45628"
"A25DP39XRZDLQM","cs_wg_v5_pilot1","37WLF8U1WPR4O02WSS9GBXFWHHFK6V","25","0","KEYBOARD","10","5","0","2787","KEYBOARD","10","2017-09-15 17:26:49","45629"
"A320QA9HJFUOZO","cs_wg_v5_pilot1","3NL0RFNU0FOQ9DYI94G1EZVILQ9K4A","58","0","MACHINE","9","5","0","2654","machine","9","2017-09-15 17:26:49","45630"
"AJRY9ALX8069Y","cs_wg_v5_pilot1","3TMSXRD2X610CEVGB0G24CIAWD8W15","78","0","UMBRELLA","1","5","1","1311","umbrella","1","2017-09-15 17:26:52","45631"
"A1NBHHH443OZPE","cs_wg_v5_pilot1","33F859I566EJSMIJIYNR9LLW31MHB9","41","0","WEDDING","10","5","0","1905","WEDDING","10","2017-09-15 17:26:52","45632"
"A320QA9HJFUOZO","cs_wg_v5_pilot1","3NL0RFNU0FOQ9DYI94G1EZVILQ9K4A","59","0","KEYBOARD","1","5","1","1332","keyboard","1","2017-09-15 17:26:57","45633"
"A2WNVSJ1Y06SS1","cs_wg_v5_pilot1","3TVSS0C0E111LY7PDJ0CAI15OWZTWB","15","0","TRAFFIC","10","5","0","3838","traffic","10","2017-09-15 17:26:59","45634"
"AJRY9ALX8069Y","cs_wg_v5_pilot1","3TMSXRD2X610CEVGB0G24CIAWD8W15","79","0","WEDDING","10","5","0","1319","wedding","10","2017-09-15 17:26:59","45635"
"A2R9MIRIP29431","cs_wg_v5_pilot1","3ZDAD0O1T1EGAYCFNOWYC1FCXY5TX4","62","0","COMMUNITY","9","5","0","22111","community","9","2017-09-15 17:27:02","45636"
"A320QA9HJFUOZO","cs_wg_v5_pilot1","3NL0RFNU0FOQ9DYI94G1EZVILQ9K4A","60","0","TRAFFIC","9","5","0","2068","traffic","9","2017-09-15 17:27:06","45637"
"AJRY9ALX8069Y","cs_wg_v5_pilot1","3TMSXRD2X610CEVGB0G24CIAWD8W15","80","0","BOOKSHELF","9","5","0","1970","bookshelf","9","2017-09-15 17:27:08","45638"
"A13WFFPE9L1QAB","cs_wg_v5_pilot1","3GDTJDAPVUCMI2LN6JJUAO3RCH0M8O","10","0","TRAFFIC","9","5","0","5909","traffic","9","2017-09-15 17:27:11","45639"
"A25DP39XRZDLQM","cs_wg_v5_pilot1","37WLF8U1WPR4O02WSS9GBXFWHHFK6V","26","0","WEDDING","10","5","1","4160","WEDDING","10","2017-09-15 17:27:11","45640"
"AOTCPS24JM5DQ","cs_wg_v5_pilot1","39K0FND3AHG01QE23H386F9M250MAS","0","0","STOMACH","10","5","0","4345",,"10","2017-09-15 17:27:12","45641"
"A2R9MIRIP29431","cs_wg_v5_pilot1","3ZDAD0O1T1EGAYCFNOWYC1FCXY5TX4","63","0","STRUCTURE","10","5","0","1506","structure","10","2017-09-15 17:27:15","45642"
"AJRY9ALX8069Y","cs_wg_v5_pilot1","3TMSXRD2X610CEVGB0G24CIAWD8W15","81","0","BOOKSHELF","9","5","0","1061","bookshelf","9","2017-09-15 17:27:16","45643"
"A320QA9HJFUOZO","cs_wg_v5_pilot1","3NL0RFNU0FOQ9DYI94G1EZVILQ9K4A","61","0","HELICOPTER","0","5","1","2298","helicopter","0","2017-09-15 17:27:17","45644"
"A1NBHHH443OZPE","cs_wg_v5_pilot1","33F859I566EJSMIJIYNR9LLW31MHB9","42","0","LADDER","1","5","0","10183","LADDER","1","2017-09-15 17:27:17","45645"
"AJRY9ALX8069Y","cs_wg_v5_pilot1","3TMSXRD2X610CEVGB0G24CIAWD8W15","82","0","MACHINE","10","5","0","1287","machine","10","2017-09-15 17:27:24","45646"
"A3PYFNAED6X1BL","cs_wg_v5_pilot1","35BLDD71I6YKSLGJT1KYA4J82JJVZJ","29","0","STOMACH","10","5","0","36273","stomach","10","2017-09-15 17:27:26","45647"
"AOTCPS24JM5DQ","cs_wg_v5_pilot1","39K0FND3AHG01QE23H386F9M250MAS","1","0","STOMACH","10","5","0","3033","stomach","10","2017-09-15 17:27:28","45648"
"A2R9MIRIP29431","cs_wg_v5_pilot1","3ZDAD0O1T1EGAYCFNOWYC1FCXY5TX4","64","0","HELICOPTER","10","5","0","2637","helicopter","10","2017-09-15 17:27:28","45649"
"A1NBHHH443OZPE","cs_wg_v5_pilot1","33F859I566EJSMIJIYNR9LLW31MHB9","43","0","MACHINE","9","5","0","2367","MACHINE","9","2017-09-15 17:27:29","45650"
"A2WNVSJ1Y06SS1","cs_wg_v5_pilot1","3TVSS0C0E111LY7PDJ0CAI15OWZTWB","16","0","STRUCTURE","9","5","0","6200","structure","9","2017-09-15 17:27:30","45651"
"A320QA9HJFUOZO","cs_wg_v5_pilot1","3NL0RFNU0FOQ9DYI94G1EZVILQ9K4A","62","0","MACHINE","9","5","0","7061","machine","9","2017-09-15 17:27:31","45652"
"AJRY9ALX8069Y","cs_wg_v5_pilot1","3TMSXRD2X610CEVGB0G24CIAWD8W15","83","0","KEYBOARD","10","5","0","1547","keyboard","10","2017-09-15 17:27:33","45653"
"A3PYFNAED6X1BL","cs_wg_v5_pilot1","35BLDD71I6YKSLGJT1KYA4J82JJVZJ","30","0","MACHINE","1","5","1","1962","machine","1","2017-09-15 17:27:37","45654"
"A25DP39XRZDLQM","cs_wg_v5_pilot1","37WLF8U1WPR4O02WSS9GBXFWHHFK6V","27","0","TRAFFIC","9","5","1","4105","TRAFFIC","9","2017-09-15 17:27:38","45655"
"A2R9MIRIP29431","cs_wg_v5_pilot1","3ZDAD0O1T1EGAYCFNOWYC1FCXY5TX4","65","0","DOORWAY","0","5","1","2012","doorway","0","2017-09-15 17:27:39","45656"
"A320QA9HJFUOZO","cs_wg_v5_pilot1","3NL0RFNU0FOQ9DYI94G1EZVILQ9K4A","63","0","WEDDING","0","5","1","1084","wedding","0","2017-09-15 17:27:39","45657"
"AJRY9ALX8069Y","cs_wg_v5_pilot1","3TMSXRD2X610CEVGB0G24CIAWD8W15","84","0","LADDER","0","5","1","1297","ladder","0","2017-09-15 17:27:41","45658"
"AEXF5EUX32U0M","cs_wg_v5_pilot1","3TPZPLC3M0D628CUMIGQ0BPB10JP3V","0","0","MACHINE","10","5","0","2935","machine","10","2017-09-15 17:27:41","45659"
"A320QA9HJFUOZO","cs_wg_v5_pilot1","3NL0RFNU0FOQ9DYI94G1EZVILQ9K4A","64","0","HELICOPTER","0","5","1","1109","helicopter","0","2017-09-15 17:27:47","45660"
"A2WNVSJ1Y06SS1","cs_wg_v5_pilot1","3TVSS0C0E111LY7PDJ0CAI15OWZTWB","17","0","LADDER","0","5","0","6375","ladder","0","2017-09-15 17:27:48","45661"
"A1NBHHH443OZPE","cs_wg_v5_pilot1","33F859I566EJSMIJIYNR9LLW31MHB9","44","0","TRAFFIC","9","5","1","7100","TRAFFIC","9","2017-09-15 17:27:49","45662"
"AJRY9ALX8069Y","cs_wg_v5_pilot1","3TMSXRD2X610CEVGB0G24CIAWD8W15","85","0","TRAFFIC","1","5","1","2070","traffic","1","2017-09-15 17:27:49","45663"
"A3PYFNAED6X1BL","cs_wg_v5_pilot1","35BLDD71I6YKSLGJT1KYA4J82JJVZJ","31","0","STOMACH","10","5","0","3170","stomach","1","2017-09-15 17:27:50","45664"
"A2R9MIRIP29431","cs_wg_v5_pilot1","3ZDAD0O1T1EGAYCFNOWYC1FCXY5TX4","66","0","STOMACH","0","5","1","1593","stomach","0","2017-09-15 17:27:51","45665"
"A13WFFPE9L1QAB","cs_wg_v5_pilot1","3GDTJDAPVUCMI2LN6JJUAO3RCH0M8O","11","0","BASKET","0","5","0","12951","basket","0","2017-09-15 17:27:52","45666"
"AOTCPS24JM5DQ","cs_wg_v5_pilot1","39K0FND3AHG01QE23H386F9M250MAS","2","0","UMBRELLA","0","5","0","2653","umbrella","0","2017-09-15 17:27:55","45667"
"AEXF5EUX32U0M","cs_wg_v5_pilot1","3TPZPLC3M0D628CUMIGQ0BPB10JP3V","1","0","WEDDING","1","5","0","2784","wedding","1","2017-09-15 17:27:55","45668"
"AJRY9ALX8069Y","cs_wg_v5_pilot1","3TMSXRD2X610CEVGB0G24CIAWD8W15","86","0","MACHINE","10","5","0","1159","machine","10","2017-09-15 17:27:57","45669"
"A25DP39XRZDLQM","cs_wg_v5_pilot1","37WLF8U1WPR4O02WSS9GBXFWHHFK6V","28","0","BASKET","9","5","0","2566","BASKET","9","2017-09-15 17:27:57","45670"
"A320QA9HJFUOZO","cs_wg_v5_pilot1","3NL0RFNU0FOQ9DYI94G1EZVILQ9K4A","65","0","STOMACH","0","5","1","994","stomach","0","2017-09-15 17:27:57","45671"
"A2R9MIRIP29431","cs_wg_v5_pilot1","3ZDAD0O1T1EGAYCFNOWYC1FCXY5TX4","67","0","STRUCTURE","10","5","0","1668","structure","10","2017-09-15 17:28:01","45672"
"A1NBHHH443OZPE","cs_wg_v5_pilot1","33F859I566EJSMIJIYNR9LLW31MHB9","45","0","BASKET","10","5","0","1681","BASKET","10","2017-09-15 17:28:01","45673"
"A2WNVSJ1Y06SS1","cs_wg_v5_pilot1","3TVSS0C0E111LY7PDJ0CAI15OWZTWB","18","0","BASKET","1","5","1","3239","basket","1","2017-09-15 17:28:01","45674"
"AJRY9ALX8069Y","cs_wg_v5_pilot1","3TMSXRD2X610CEVGB0G24CIAWD8W15","87","0","MACHINE","10","5","0","980","machine","10","2017-09-15 17:28:04","45675"
"AEXF5EUX32U0M","cs_wg_v5_pilot1","3TPZPLC3M0D628CUMIGQ0BPB10JP3V","2","0","FOOTBALL","0","5","0","2066","football","0","2017-09-15 17:28:08","45676"
"A3PYFNAED6X1BL","cs_wg_v5_pilot1","35BLDD71I6YKSLGJT1KYA4J82JJVZJ","32","0","HELICOPTER","0","5","1","7541","helicopter","0","2017-09-15 17:28:08","45677"
"AOTCPS24JM5DQ","cs_wg_v5_pilot1","39K0FND3AHG01QE23H386F9M250MAS","3","0","FOOTBALL","1","5","0","1994","football","1","2017-09-15 17:28:08","45678"
"A320QA9HJFUOZO","cs_wg_v5_pilot1","3NL0RFNU0FOQ9DYI94G1EZVILQ9K4A","66","0","UMBRELLA","10","5","0","1085","umbrella","10","2017-09-15 17:28:09","45679"
"AJRY9ALX8069Y","cs_wg_v5_pilot1","3TMSXRD2X610CEVGB0G24CIAWD8W15","88","0","DOORWAY","9","5","0","1190","doorway","9","2017-09-15 17:28:12","45680"
"A1NBHHH443OZPE","cs_wg_v5_pilot1","33F859I566EJSMIJIYNR9LLW31MHB9","46","0","WEDDING","10","5","0","2355","WEDDING","10","2017-09-15 17:28:12","45681"
"A25DP39XRZDLQM","cs_wg_v5_pilot1","37WLF8U1WPR4O02WSS9GBXFWHHFK6V","29","0","STRUCTURE","0","5","0","4023","STRUCTURE","0","2017-09-15 17:28:12","45682"
"A2WNVSJ1Y06SS1","cs_wg_v5_pilot1","3TVSS0C0E111LY7PDJ0CAI15OWZTWB","19","0","STRUCTURE","9","5","0","2294","structure","9","2017-09-15 17:28:13","45683"
"A2R9MIRIP29431","cs_wg_v5_pilot1","3ZDAD0O1T1EGAYCFNOWYC1FCXY5TX4","68","0","BASKET","1","5","1","1257","basket","1","2017-09-15 17:28:14","45684"
"A320QA9HJFUOZO","cs_wg_v5_pilot1","3NL0RFNU0FOQ9DYI94G1EZVILQ9K4A","67","0","STRUCTURE","10","5","0","1252","structure","10","2017-09-15 17:28:18","45685"
"AJRY9ALX8069Y","cs_wg_v5_pilot1","3TMSXRD2X610CEVGB0G24CIAWD8W15","89","0","UMBRELLA","1","5","1","1467","umbrella","1","2017-09-15 17:28:21","45686"
"A3PYFNAED6X1BL","cs_wg_v5_pilot1","35BLDD71I6YKSLGJT1KYA4J82JJVZJ","33","0","DOORWAY","9","5","0","2139","doorway","9","2017-09-15 17:28:21","45687"
"AOTCPS24JM5DQ","cs_wg_v5_pilot1","39K0FND3AHG01QE23H386F9M250MAS","4","0","MACHINE","1","5","1","4368","machine","1","2017-09-15 17:28:22","45688"
"AEXF5EUX32U0M","cs_wg_v5_pilot1","3TPZPLC3M0D628CUMIGQ0BPB10JP3V","3","0","BASKET","1","5","1","2832","basket","1","2017-09-15 17:28:25","45689"
"A1NBHHH443OZPE","cs_wg_v5_pilot1","33F859I566EJSMIJIYNR9LLW31MHB9","47","0","STRUCTURE","0","5","1","2939","STRUCTURE","0","2017-09-15 17:28:26","45690"
"A320QA9HJFUOZO","cs_wg_v5_pilot1","3NL0RFNU0FOQ9DYI94G1EZVILQ9K4A","68","0","UMBRELLA","10","5","0","966","umbrella","10","2017-09-15 17:28:26","45691"
"A25DP39XRZDLQM","cs_wg_v5_pilot1","37WLF8U1WPR4O02WSS9GBXFWHHFK6V","30","0","UMBRELLA","9","5","0","2770","UMBRELLA","9","2017-09-15 17:28:30","45692"
"AWWOJW8YTE7M5","cs_wg_v5_pilot1","38YMOXR4MU0VJ0WDH6SJZ89R4OOW63","0","0","TRAFFIC","1","5","1","10281","traffic","1","2017-09-15 17:28:31","45693"
"AJRY9ALX8069Y","cs_wg_v5_pilot1","3TMSXRD2X610CEVGB0G24CIAWD8W15","90","0","DOORWAY","9","5","0","1739","doorway","9","2017-09-15 17:28:31","45694"
"A13WFFPE9L1QAB","cs_wg_v5_pilot1","3GDTJDAPVUCMI2LN6JJUAO3RCH0M8O","12","0","COMMUNITY","10","5","0","16587","community","10","2017-09-15 17:28:33","45695"
"A3PYFNAED6X1BL","cs_wg_v5_pilot1","35BLDD71I6YKSLGJT1KYA4J82JJVZJ","34","0","HELICOPTER","0","5","1","1913","helicopter","0","2017-09-15 17:28:34","45696"
"A2WNVSJ1Y06SS1","cs_wg_v5_pilot1","3TVSS0C0E111LY7PDJ0CAI15OWZTWB","20","0","DOORWAY","0","5","1","2975","doorway","0","2017-09-15 17:28:34","45697"
"A1NBHHH443OZPE","cs_wg_v5_pilot1","33F859I566EJSMIJIYNR9LLW31MHB9","48","0","FOOTBALL","1","5","1","2314","FOOTBALL","1","2017-09-15 17:28:37","45698"
"AJRY9ALX8069Y","cs_wg_v5_pilot1","3TMSXRD2X610CEVGB0G24CIAWD8W15","91","0","MACHINE","10","5","0","1224","machine","10","2017-09-15 17:28:40","45699"
"AEXF5EUX32U0M","cs_wg_v5_pilot1","3TPZPLC3M0D628CUMIGQ0BPB10JP3V","4","0","MACHINE","10","5","0","1904","machine","10","2017-09-15 17:28:42","45700"
"A3PYFNAED6X1BL","cs_wg_v5_pilot1","35BLDD71I6YKSLGJT1KYA4J82JJVZJ","35","0","DOORWAY","9","5","0","2133","doorway","9","2017-09-15 17:28:47","45701"
"AJRY9ALX8069Y","cs_wg_v5_pilot1","3TMSXRD2X610CEVGB0G24CIAWD8W15","92","0","TRAFFIC","1","5","1","1156","traffic","1","2017-09-15 17:28:48","45702"
"AWWOJW8YTE7M5","cs_wg_v5_pilot1","38YMOXR4MU0VJ0WDH6SJZ89R4OOW63","1","0","TRAFFIC","1","5","1","3099","traffic","1","2017-09-15 17:28:49","45703"
"A1NBHHH443OZPE","cs_wg_v5_pilot1","33F859I566EJSMIJIYNR9LLW31MHB9","49","0","TRAFFIC","9","5","0","3248","TRAFFIC","9","2017-09-15 17:28:50","45704"
"A320QA9HJFUOZO","cs_wg_v5_pilot1","3NL0RFNU0FOQ9DYI94G1EZVILQ9K4A","69","0","BASKET","1","5","1","2454","basket","1","2017-09-15 17:28:51","45705"
"A2WNVSJ1Y06SS1","cs_wg_v5_pilot1","3TVSS0C0E111LY7PDJ0CAI15OWZTWB","21","0","HELICOPTER","10","5","0","1510","helicopter","10","2017-09-15 17:28:52","45706"
"A25DP39XRZDLQM","cs_wg_v5_pilot1","37WLF8U1WPR4O02WSS9GBXFWHHFK6V","31","0","STOMACH","0","5","1","8839","STOMACH","0","2017-09-15 17:28:52","45707"
"AJRY9ALX8069Y","cs_wg_v5_pilot1","3TMSXRD2X610CEVGB0G24CIAWD8W15","93","0","HELICOPTER","0","5","1","1316","helicopter","0","2017-09-15 17:28:57","45708"
"AOTCPS24JM5DQ","cs_wg_v5_pilot1","39K0FND3AHG01QE23H386F9M250MAS","5","0","STRUCTURE","0","5","0","22062","structure","0","2017-09-15 17:28:59","45709"
"AEXF5EUX32U0M","cs_wg_v5_pilot1","3TPZPLC3M0D628CUMIGQ0BPB10JP3V","5","0","TRAFFIC","9","5","1","7133","traffic","9","2017-09-15 17:29:01","45710"
"A1NBHHH443OZPE","cs_wg_v5_pilot1","33F859I566EJSMIJIYNR9LLW31MHB9","50","0","KEYBOARD","10","5","0","2690","KEYBOARD","10","2017-09-15 17:29:03","45711"
"A320QA9HJFUOZO","cs_wg_v5_pilot1","3NL0RFNU0FOQ9DYI94G1EZVILQ9K4A","70","0","FOOTBALL","1","5","1","3112","football","1","2017-09-15 17:29:03","45712"
"AWWOJW8YTE7M5","cs_wg_v5_pilot1","38YMOXR4MU0VJ0WDH6SJZ89R4OOW63","2","0","TRAFFIC","1","5","1","4326","traffic","1","2017-09-15 17:29:04","45713"
"AJRY9ALX8069Y","cs_wg_v5_pilot1","3TMSXRD2X610CEVGB0G24CIAWD8W15","94","0","STOMACH","0","5","1","3772","stomach","0","2017-09-15 17:29:06","45714"
"AOTCPS24JM5DQ","cs_wg_v5_pilot1","39K0FND3AHG01QE23H386F9M250MAS","6","0","STRUCTURE","0","5","0","2179","structure","0","2017-09-15 17:29:09","45715"
"A320QA9HJFUOZO","cs_wg_v5_pilot1","3NL0RFNU0FOQ9DYI94G1EZVILQ9K4A","71","0","BASKET","1","5","1","1609","basket","1","2017-09-15 17:29:12","45716"
"A1NBHHH443OZPE","cs_wg_v5_pilot1","33F859I566EJSMIJIYNR9LLW31MHB9","51","0","WEDDING","10","5","0","1874","WEDDING","10","2017-09-15 17:29:13","45717"
"A2WNVSJ1Y06SS1","cs_wg_v5_pilot1","3TVSS0C0E111LY7PDJ0CAI15OWZTWB","22","0","BOOKSHELF","10","5","0","10182","bookshelf","10","2017-09-15 17:29:14","45718"
"AEXF5EUX32U0M","cs_wg_v5_pilot1","3TPZPLC3M0D628CUMIGQ0BPB10JP3V","6","0","KEYBOARD","10","5","1","2809","keyboard","10","2017-09-15 17:29:17","45719"
"A2R9MIRIP29431","cs_wg_v5_pilot1","3ZDAD0O1T1EGAYCFNOWYC1FCXY5TX4","69","0","FOOTBALL","9","5","0","55393","football","9","2017-09-15 17:29:18","45720"
"A25DP39XRZDLQM","cs_wg_v5_pilot1","37WLF8U1WPR4O02WSS9GBXFWHHFK6V","32","0","FOOTBALL","1","5","1","15995","FOOTBALL","1","2017-09-15 17:29:19","45721"
"AJRY9ALX8069Y","cs_wg_v5_pilot1","3TMSXRD2X610CEVGB0G24CIAWD8W15","95","0","BOOKSHELF","9","5","0","1173","bookshelf","10","2017-09-15 17:29:21","45722"
"A13WFFPE9L1QAB","cs_wg_v5_pilot1","3GDTJDAPVUCMI2LN6JJUAO3RCH0M8O","13","0","STOMACH","9","5","0","13574","stomach","9","2017-09-15 17:29:22","45723"
"A3PYFNAED6X1BL","cs_wg_v5_pilot1","35BLDD71I6YKSLGJT1KYA4J82JJVZJ","36","0","TRAFFIC","10","5","0","25662","traffic","10","2017-09-15 17:29:23","45724"
"AWWOJW8YTE7M5","cs_wg_v5_pilot1","38YMOXR4MU0VJ0WDH6SJZ89R4OOW63","3","0","STRUCTURE","9","5","0","5878","structure","9","2017-09-15 17:29:24","45725"
"A1NBHHH443OZPE","cs_wg_v5_pilot1","33F859I566EJSMIJIYNR9LLW31MHB9","52","0","COMMUNITY","0","5","1","2620","COMMUNITY","0","2017-09-15 17:29:26","45726"
"A2WNVSJ1Y06SS1","cs_wg_v5_pilot1","3TVSS0C0E111LY7PDJ0CAI15OWZTWB","23","0","MACHINE","9","5","0","3254","machine","9","2017-09-15 17:29:28","45727"
"A2R9MIRIP29431","cs_wg_v5_pilot1","3ZDAD0O1T1EGAYCFNOWYC1FCXY5TX4","70","0","BOOKSHELF","9","5","0","1423","bookshelf","9","2017-09-15 17:29:30","45728"
"AEXF5EUX32U0M","cs_wg_v5_pilot1","3TPZPLC3M0D628CUMIGQ0BPB10JP3V","7","0","COMMUNITY","1","5","0","2314","community","1","2017-09-15 17:29:31","45729"
"A320QA9HJFUOZO","cs_wg_v5_pilot1","3NL0RFNU0FOQ9DYI94G1EZVILQ9K4A","72","0","DOORWAY","9","5","0","2362","doorway","9","2017-09-15 17:29:32","45730"
"AJRY9ALX8069Y","cs_wg_v5_pilot1","3TMSXRD2X610CEVGB0G24CIAWD8W15","96","0","BOOKSHELF","9","5","0","2379","bookshelf","9","2017-09-15 17:29:33","45731"
"A3PYFNAED6X1BL","cs_wg_v5_pilot1","35BLDD71I6YKSLGJT1KYA4J82JJVZJ","37","0","UMBRELLA","10","5","0","1387","umrella","10","2017-09-15 17:29:34","45732"
"A2WNVSJ1Y06SS1","cs_wg_v5_pilot1","3TVSS0C0E111LY7PDJ0CAI15OWZTWB","24","0","BOOKSHELF","10","5","0","1398","bookshelf","10","2017-09-15 17:29:37","45733"
"A1NBHHH443OZPE","cs_wg_v5_pilot1","33F859I566EJSMIJIYNR9LLW31MHB9","53","0","STRUCTURE","0","5","1","1943","STRUCTURE","0","2017-09-15 17:29:38","45734"
"A2R9MIRIP29431","cs_wg_v5_pilot1","3ZDAD0O1T1EGAYCFNOWYC1FCXY5TX4","71","0","DOORWAY","0","5","1","1540","doorway","0","2017-09-15 17:29:40","45735"
"AWWOJW8YTE7M5","cs_wg_v5_pilot1","38YMOXR4MU0VJ0WDH6SJZ89R4OOW63","4","0","DOORWAY","9","5","1","4417","doorway","9","2017-09-15 17:29:41","45736"
"AJRY9ALX8069Y","cs_wg_v5_pilot1","3TMSXRD2X610CEVGB0G24CIAWD8W15","97","0","UMBRELLA","1","5","1","1476","umbrella","1","2017-09-15 17:29:41","45737"
"AEXF5EUX32U0M","cs_wg_v5_pilot1","3TPZPLC3M0D628CUMIGQ0BPB10JP3V","8","0","LADDER","0","5","0","1668","ladder","0","2017-09-15 17:29:45","45738"
"A3PYFNAED6X1BL","cs_wg_v5_pilot1","35BLDD71I6YKSLGJT1KYA4J82JJVZJ","38","0","TRAFFIC","10","5","0","1933","traffic","10","2017-09-15 17:29:46","45739"
"A25DP39XRZDLQM","cs_wg_v5_pilot1","37WLF8U1WPR4O02WSS9GBXFWHHFK6V","33","0","BASKET","9","5","0","3288","BASKET ","9","2017-09-15 17:29:46","45740"
"A2R9MIRIP29431","cs_wg_v5_pilot1","3ZDAD0O1T1EGAYCFNOWYC1FCXY5TX4","72","0","WEDDING","10","5","0","1219","wedding","10","2017-09-15 17:29:51","45741"
"AJRY9ALX8069Y","cs_wg_v5_pilot1","3TMSXRD2X610CEVGB0G24CIAWD8W15","98","0","LADDER","0","5","1","2931","ladder","0","2017-09-15 17:29:52","45742"
"A1NBHHH443OZPE","cs_wg_v5_pilot1","33F859I566EJSMIJIYNR9LLW31MHB9","54","0","DOORWAY","9","5","0","4273","DOORWAY","9","2017-09-15 17:29:54","45743"
"A13WFFPE9L1QAB","cs_wg_v5_pilot1","3GDTJDAPVUCMI2LN6JJUAO3RCH0M8O","14","0","MACHINE","10","5","0","9954","machine","10","2017-09-15 17:29:55","45744"
"A2WNVSJ1Y06SS1","cs_wg_v5_pilot1","3TVSS0C0E111LY7PDJ0CAI15OWZTWB","25","0","KEYBOARD","0","5","0","7288","keyboard","0","2017-09-15 17:29:55","45745"
"AWWOJW8YTE7M5","cs_wg_v5_pilot1","38YMOXR4MU0VJ0WDH6SJZ89R4OOW63","5","0","BOOKSHELF","0","5","1","2530","bookshelf","0","2017-09-15 17:29:57","45746"
"A3PYFNAED6X1BL","cs_wg_v5_pilot1","35BLDD71I6YKSLGJT1KYA4J82JJVZJ","39","0","STRUCTURE","10","5","0","3494","structure","10","2017-09-15 17:29:59","45747"
"AEXF5EUX32U0M","cs_wg_v5_pilot1","3TPZPLC3M0D628CUMIGQ0BPB10JP3V","9","0","STRUCTURE","10","5","1","2166","structure","10","2017-09-15 17:29:59","45748"
"AOTCPS24JM5DQ","cs_wg_v5_pilot1","39K0FND3AHG01QE23H386F9M250MAS","7","0","COMMUNITY","0","5","0","42191","community","0","2017-09-15 17:30:00","45749"
"AJRY9ALX8069Y","cs_wg_v5_pilot1","3TMSXRD2X610CEVGB0G24CIAWD8W15","99","0","TRAFFIC","1","5","1","2946","traffic","1","2017-09-15 17:30:02","45750"
"A1NBHHH443OZPE","cs_wg_v5_pilot1","33F859I566EJSMIJIYNR9LLW31MHB9","55","0","WEDDING","10","5","0","1526","WEDDING","10","2017-09-15 17:30:04","45751"
"A2R9MIRIP29431","cs_wg_v5_pilot1","3ZDAD0O1T1EGAYCFNOWYC1FCXY5TX4","73","0","WEDDING","10","5","0","2826","wedding","10","2017-09-15 17:30:06","45752"
"A2WNVSJ1Y06SS1","cs_wg_v5_pilot1","3TVSS0C0E111LY7PDJ0CAI15OWZTWB","26","0","BOOKSHELF","10","5","0","1678","bookshelf","10","2017-09-15 17:30:07","45753"
"A25DP39XRZDLQM","cs_wg_v5_pilot1","37WLF8U1WPR4O02WSS9GBXFWHHFK6V","34","0","WEDDING","10","5","0","8530","WEDDING ","10","2017-09-15 17:30:09","45754"
"AJRY9ALX8069Y","cs_wg_v5_pilot1","3TMSXRD2X610CEVGB0G24CIAWD8W15","100","0","FOOTBALL","1","5","1","1266","football","1","2017-09-15 17:30:10","45755"
"AOTCPS24JM5DQ","cs_wg_v5_pilot1","39K0FND3AHG01QE23H386F9M250MAS","8","0","STOMACH","10","5","0","2319","stomach","10","2017-09-15 17:30:10","45756"
"A3PYFNAED6X1BL","cs_wg_v5_pilot1","35BLDD71I6YKSLGJT1KYA4J82JJVZJ","40","0","WEDDING","0","5","1","1940","wedding ","0","2017-09-15 17:30:11","45757"
"AEXF5EUX32U0M","cs_wg_v5_pilot1","3TPZPLC3M0D628CUMIGQ0BPB10JP3V","10","0","BASKET","1","5","1","3541","basket","1","2017-09-15 17:30:13","45758"
"AWWOJW8YTE7M5","cs_wg_v5_pilot1","38YMOXR4MU0VJ0WDH6SJZ89R4OOW63","6","0","COMMUNITY","10","5","0","2847","community","10","2017-09-15 17:30:15","45759"
"AJRY9ALX8069Y","cs_wg_v5_pilot1","3TMSXRD2X610CEVGB0G24CIAWD8W15","101","0","COMMUNITY","9","5","0","978","community","9","2017-09-15 17:30:18","45760"
"A13WFFPE9L1QAB","cs_wg_v5_pilot1","3GDTJDAPVUCMI2LN6JJUAO3RCH0M8O","15","0","FOOTBALL","0","5","1","10863","footbal","0","2017-09-15 17:30:21","45761"
"A2R9MIRIP29431","cs_wg_v5_pilot1","3ZDAD0O1T1EGAYCFNOWYC1FCXY5TX4","74","0","DOORWAY","0","5","1","1895","doorway","0","2017-09-15 17:30:22","45762"
"A3PYFNAED6X1BL","cs_wg_v5_pilot1","35BLDD71I6YKSLGJT1KYA4J82JJVZJ","41","0","DOORWAY","9","5","0","2046","doorway","9","2017-09-15 17:30:22","45763"
"A1NBHHH443OZPE","cs_wg_v5_pilot1","33F859I566EJSMIJIYNR9LLW31MHB9","56","0","BASKET","10","5","0","13290","BASKET","10","2017-09-15 17:30:27","45764"
"A2WNVSJ1Y06SS1","cs_wg_v5_pilot1","3TVSS0C0E111LY7PDJ0CAI15OWZTWB","27","0","STOMACH","10","5","0","3071","stomach","10","2017-09-15 17:30:28","45765"
"AOTCPS24JM5DQ","cs_wg_v5_pilot1","39K0FND3AHG01QE23H386F9M250MAS","9","0","FOOTBALL","1","5","1","6775","football","1","2017-09-15 17:30:29","45766"
"AWWOJW8YTE7M5","cs_wg_v5_pilot1","38YMOXR4MU0VJ0WDH6SJZ89R4OOW63","7","0","WEDDING","10","5","1","2480","wedding","10
10","2017-09-15 17:30:31","45767"
"A25DP39XRZDLQM","cs_wg_v5_pilot1","37WLF8U1WPR4O02WSS9GBXFWHHFK6V","35","0","TRAFFIC","9","5","0","8330","TRAFFIC ","9","2017-09-15 17:30:31","45768"
"AJRY9ALX8069Y","cs_wg_v5_pilot1","3TMSXRD2X610CEVGB0G24CIAWD8W15","102","0","HELICOPTER","0","5","1","1506","helicopter","0","2017-09-15 17:30:38","45769"
"AOTCPS24JM5DQ","cs_wg_v5_pilot1","39K0FND3AHG01QE23H386F9M250MAS","10","0","DOORWAY","9","5","0","1675","doorway","9","2017-09-15 17:30:39","45770"
"A1NBHHH443OZPE","cs_wg_v5_pilot1","33F859I566EJSMIJIYNR9LLW31MHB9","57","0","HELICOPTER","10","5","0","1695","HELICOPTER","10","2017-09-15 17:30:40","45771"
"A2R9MIRIP29431","cs_wg_v5_pilot1","3ZDAD0O1T1EGAYCFNOWYC1FCXY5TX4","75","0","DOORWAY","0","5","1","3124","doorway","0","2017-09-15 17:30:41","45772"
"AWWOJW8YTE7M5","cs_wg_v5_pilot1","38YMOXR4MU0VJ0WDH6SJZ89R4OOW63","8","0","COMMUNITY","10","5","0","1953","community","10","2017-09-15 17:30:43","45773"
"AJRY9ALX8069Y","cs_wg_v5_pilot1","3TMSXRD2X610CEVGB0G24CIAWD8W15","103","0","BASKET","0","5","1","1328","basket","0","2017-09-15 17:30:46","45774"
"A2R9MIRIP29431","cs_wg_v5_pilot1","3ZDAD0O1T1EGAYCFNOWYC1FCXY5TX4","76","0","WEDDING","10","5","0","1044","wedding","10","2017-09-15 17:30:49","45775"
"A2WNVSJ1Y06SS1","cs_wg_v5_pilot1","3TVSS0C0E111LY7PDJ0CAI15OWZTWB","28","0","WEDDING","1","5","1","2294","wedding","1","2017-09-15 17:30:50","45776"
"AOTCPS24JM5DQ","cs_wg_v5_pilot1","39K0FND3AHG01QE23H386F9M250MAS","11","0","STRUCTURE","0","5","0","1429","structure","0","2017-09-15 17:30:51","45777"
"A25DP39XRZDLQM","cs_wg_v5_pilot1","37WLF8U1WPR4O02WSS9GBXFWHHFK6V","36","0","DOORWAY","10","5","0","8130","DOORWAY ","10","2017-09-15 17:30:53","45778"
"AJRY9ALX8069Y","cs_wg_v5_pilot1","3TMSXRD2X610CEVGB0G24CIAWD8W15","104","0","BASKET","0","5","1","2143","basket","0","2017-09-15 17:30:55","45779"
"A1NBHHH443OZPE","cs_wg_v5_pilot1","33F859I566EJSMIJIYNR9LLW31MHB9","58","0","STRUCTURE","0","5","1","5758","STRUCTURE","0","2017-09-15 17:30:55","45780"
"AWWOJW8YTE7M5","cs_wg_v5_pilot1","38YMOXR4MU0VJ0WDH6SJZ89R4OOW63","9","0","FOOTBALL","1","5","1","2392","football","1","2017-09-15 17:30:57","45781"
"A13WFFPE9L1QAB","cs_wg_v5_pilot1","3GDTJDAPVUCMI2LN6JJUAO3RCH0M8O","16","0","DOORWAY","10","5","0","14603","doorway","10","2017-09-15 17:31:00","45782"
"AOTCPS24JM5DQ","cs_wg_v5_pilot1","39K0FND3AHG01QE23H386F9M250MAS","12","0","WEDDING","10","5","0","1263","wedding","10","2017-09-15 17:31:00","45783"
"A3PYFNAED6X1BL","cs_wg_v5_pilot1","35BLDD71I6YKSLGJT1KYA4J82JJVZJ","42","0","HELICOPTER","0","5","1","3813","helicopter","0","2017-09-15 17:31:00","45784"
"A2WNVSJ1Y06SS1","cs_wg_v5_pilot1","3TVSS0C0E111LY7PDJ0CAI15OWZTWB","29","0","STOMACH","10","5","0","1470","stomach","10","2017-09-15 17:31:00","45785"
"A2R9MIRIP29431","cs_wg_v5_pilot1","3ZDAD0O1T1EGAYCFNOWYC1FCXY5TX4","77","0","FOOTBALL","9","5","0","1095","football","9","2017-09-15 17:31:01","45786"
"AJRY9ALX8069Y","cs_wg_v5_pilot1","3TMSXRD2X610CEVGB0G24CIAWD8W15","105","0","KEYBOARD","10","5","0","861","keyboard","10","2017-09-15 17:31:03","45787"
"AEXF5EUX32U0M","cs_wg_v5_pilot1","3TPZPLC3M0D628CUMIGQ0BPB10JP3V","11","0","MACHINE","10","5","0","1616","machine","10","2017-09-15 17:31:04","45788"
"AOTCPS24JM5DQ","cs_wg_v5_pilot1","39K0FND3AHG01QE23H386F9M250MAS","13","0","KEYBOARD","0","5","0","1744","keyboard","0","2017-09-15 17:31:09","45789"
"A25DP39XRZDLQM","cs_wg_v5_pilot1","37WLF8U1WPR4O02WSS9GBXFWHHFK6V","37","0","BASKET","9","5","0","3005","BASKET ","9","2017-09-15 17:31:09","45790"
"A2WNVSJ1Y06SS1","cs_wg_v5_pilot1","3TVSS0C0E111LY7PDJ0CAI15OWZTWB","30","0","KEYBOARD","0","5","1","1918","keyboard","0","2017-09-15 17:31:10","45791"
"AJRY9ALX8069Y","cs_wg_v5_pilot1","3TMSXRD2X610CEVGB0G24CIAWD8W15","106","0","MACHINE","10","5","0","983","machine","10","2017-09-15 17:31:10","45792"
"A2R9MIRIP29431","cs_wg_v5_pilot1","3ZDAD0O1T1EGAYCFNOWYC1FCXY5TX4","78","0","STOMACH","0","5","1","1817","stomach","0","2017-09-15 17:31:11","45793"
"A1NBHHH443OZPE","cs_wg_v5_pilot1","33F859I566EJSMIJIYNR9LLW31MHB9","59","0","MACHINE","9","5","1","5695","MACHINE","9","2017-09-15 17:31:11","45794"
"AWWOJW8YTE7M5","cs_wg_v5_pilot1","38YMOXR4MU0VJ0WDH6SJZ89R4OOW63","10","0","MACHINE","9","5","1","4905","machine","9","2017-09-15 17:31:13","45795"
"A3PYFNAED6X1BL","cs_wg_v5_pilot1","35BLDD71I6YKSLGJT1KYA4J82JJVZJ","43","0","FOOTBALL","9","5","1","3085","football","9","2017-09-15 17:31:15","45796"
"AEXF5EUX32U0M","cs_wg_v5_pilot1","3TPZPLC3M0D628CUMIGQ0BPB10JP3V","12","0","FOOTBALL","0","5","1","2661","football","0","2017-09-15 17:31:18","45797"
"AJRY9ALX8069Y","cs_wg_v5_pilot1","3TMSXRD2X610CEVGB0G24CIAWD8W15","107","0","UMBRELLA","1","5","1","753","umbrella","1","2017-09-15 17:31:18","45798"
"AOTCPS24JM5DQ","cs_wg_v5_pilot1","39K0FND3AHG01QE23H386F9M250MAS","14","0","STOMACH","10","5","1","4411","stomach","10","2017-09-15 17:31:21","45799"
"A2WNVSJ1Y06SS1","cs_wg_v5_pilot1","3TVSS0C0E111LY7PDJ0CAI15OWZTWB","31","0","WEDDING","1","5","1","1486","wedding","1","2017-09-15 17:31:22","45800"
"A1NBHHH443OZPE","cs_wg_v5_pilot1","33F859I566EJSMIJIYNR9LLW31MHB9","60","0","DOORWAY","9","5","0","1568","DOORWAY","9","2017-09-15 17:31:22","45801"
"A2R9MIRIP29431","cs_wg_v5_pilot1","3ZDAD0O1T1EGAYCFNOWYC1FCXY5TX4","79","0","BASKET","1","5","1","2409","basket","1","2017-09-15 17:31:23","45802"
"A25DP39XRZDLQM","cs_wg_v5_pilot1","37WLF8U1WPR4O02WSS9GBXFWHHFK6V","38","0","FOOTBALL","1","5","1","2714","football","1","2017-09-15 17:31:24","45803"
"AJRY9ALX8069Y","cs_wg_v5_pilot1","3TMSXRD2X610CEVGB0G24CIAWD8W15","108","0","HELICOPTER","0","5","1","1241","helicopter","0","2017-09-15 17:31:27","45804"
"AWWOJW8YTE7M5","cs_wg_v5_pilot1","38YMOXR4MU0VJ0WDH6SJZ89R4OOW63","11","0","DOORWAY","9","5","0","5171","doorway","9","2017-09-15 17:31:27","45805"
"A13WFFPE9L1QAB","cs_wg_v5_pilot1","3GDTJDAPVUCMI2LN6JJUAO3RCH0M8O","17","0","MACHINE","10","5","0","7850","machine","10","2017-09-15 17:31:28","45806"
"AOTCPS24JM5DQ","cs_wg_v5_pilot1","39K0FND3AHG01QE23H386F9M250MAS","15","0","DOORWAY","9","5","1","2317","doorway","9","2017-09-15 17:31:31","45807"
"A1NBHHH443OZPE","cs_wg_v5_pilot1","33F859I566EJSMIJIYNR9LLW31MHB9","61","0","MACHINE","9","5","0","2376","MACHINE","9","2017-09-15 17:31:32","45808"
"AEXF5EUX32U0M","cs_wg_v5_pilot1","3TPZPLC3M0D628CUMIGQ0BPB10JP3V","13","0","DOORWAY","9","5","1","2647","Doorway","9","2017-09-15 17:31:33","45809"
"A320QA9HJFUOZO","cs_wg_v5_pilot1","3NL0RFNU0FOQ9DYI94G1EZVILQ9K4A","73","0","BOOKSHELF","10","5","0","7267","bookshelf","10","2017-09-15 17:31:33","45810"
"A2WNVSJ1Y06SS1","cs_wg_v5_pilot1","3TVSS0C0E111LY7PDJ0CAI15OWZTWB","32","0","HELICOPTER","10","5","0","1294","helicopter","10","2017-09-15 17:31:33","45811"
"A2R9MIRIP29431","cs_wg_v5_pilot1","3ZDAD0O1T1EGAYCFNOWYC1FCXY5TX4","80","0","KEYBOARD","0","5","1","1014","keyboard","0","2017-09-15 17:31:33","45812"
"A3PYFNAED6X1BL","cs_wg_v5_pilot1","35BLDD71I6YKSLGJT1KYA4J82JJVZJ","44","0","WEDDING","0","5","1","5106","wedding","0","2017-09-15 17:31:34","45813"
"AJRY9ALX8069Y","cs_wg_v5_pilot1","3TMSXRD2X610CEVGB0G24CIAWD8W15","109","0","BOOKSHELF","9","5","0","1015","bookshelf","9","2017-09-15 17:31:35","45814"
"AWWOJW8YTE7M5","cs_wg_v5_pilot1","38YMOXR4MU0VJ0WDH6SJZ89R4OOW63","12","0","STRUCTURE","9","5","0","2867","structure","9","2017-09-15 17:31:41","45815"
"A320QA9HJFUOZO","cs_wg_v5_pilot1","3NL0RFNU0FOQ9DYI94G1EZVILQ9K4A","74","0","COMMUNITY","10","5","0","884","community","10","2017-09-15 17:31:41","45816"
"A1NBHHH443OZPE","cs_wg_v5_pilot1","33F859I566EJSMIJIYNR9LLW31MHB9","62","0","WEDDING","10","5","0","1565","WEDDING","10","2017-09-15 17:31:42","45817"
"AJRY9ALX8069Y","cs_wg_v5_pilot1","3TMSXRD2X610CEVGB0G24CIAWD8W15","110","0","DOORWAY","9","5","0","720","doorway","9","2017-09-15 17:31:42","45818"
"A2WNVSJ1Y06SS1","cs_wg_v5_pilot1","3TVSS0C0E111LY7PDJ0CAI15OWZTWB","33","0","BASKET","1","5","1","1653","basket","1","2017-09-15 17:31:42","45819"
"AOTCPS24JM5DQ","cs_wg_v5_pilot1","39K0FND3AHG01QE23H386F9M250MAS","16","0","UMBRELLA","0","5","0","2045","umbrella","0","2017-09-15 17:31:43","45820"
"A2R9MIRIP29431","cs_wg_v5_pilot1","3ZDAD0O1T1EGAYCFNOWYC1FCXY5TX4","81","0","STRUCTURE","10","5","0","1265","structure","10","2017-09-15 17:31:43","45821"
"AEXF5EUX32U0M","cs_wg_v5_pilot1","3TPZPLC3M0D628CUMIGQ0BPB10JP3V","14","0","BASKET","1","5","1","2201","basket","1","2017-09-15 17:31:44","45822"
"A25DP39XRZDLQM","cs_wg_v5_pilot1","37WLF8U1WPR4O02WSS9GBXFWHHFK6V","39","0","COMMUNITY","10","5","0","11101","COMMUNITY","10","2017-09-15 17:31:46","45823"
"A3PYFNAED6X1BL","cs_wg_v5_pilot1","35BLDD71I6YKSLGJT1KYA4J82JJVZJ","45","0","BASKET","0","5","1","2135","basket","0","2017-09-15 17:31:46","45824"
"AJRY9ALX8069Y","cs_wg_v5_pilot1","3TMSXRD2X610CEVGB0G24CIAWD8W15","111","0","COMMUNITY","9","5","0","920","community","9","2017-09-15 17:31:50","45825"
"A320QA9HJFUOZO","cs_wg_v5_pilot1","3NL0RFNU0FOQ9DYI94G1EZVILQ9K4A","75","0","TRAFFIC","9","5","0","1780","traffic","9","2017-09-15 17:31:50","45826"
"A2WNVSJ1Y06SS1","cs_wg_v5_pilot1","3TVSS0C0E111LY7PDJ0CAI15OWZTWB","34","0","BASKET","1","5","1","1616","basket","1","2017-09-15 17:31:52","45827"
"AWWOJW8YTE7M5","cs_wg_v5_pilot1","38YMOXR4MU0VJ0WDH6SJZ89R4OOW63","13","0","FOOTBALL","1","5","1","2708","football","1","2017-09-15 17:31:52","45828"
"A2R9MIRIP29431","cs_wg_v5_pilot1","3ZDAD0O1T1EGAYCFNOWYC1FCXY5TX4","82","0","BASKET","1","5","1","1059","basket","1","2017-09-15 17:31:53","45829"
"A1NBHHH443OZPE","cs_wg_v5_pilot1","33F859I566EJSMIJIYNR9LLW31MHB9","63","0","TRAFFIC","9","5","0","2582","TRAFFIC","9","2017-09-15 17:31:54","45830"
"AEXF5EUX32U0M","cs_wg_v5_pilot1","3TPZPLC3M0D628CUMIGQ0BPB10JP3V","15","0","KEYBOARD","10","5","0","2517","keyboard","10","2017-09-15 17:31:55","45831"
"AOTCPS24JM5DQ","cs_wg_v5_pilot1","39K0FND3AHG01QE23H386F9M250MAS","17","0","LADDER","9","5","1","3818","ladder","9","2017-09-15 17:31:56","45832"
"A320QA9HJFUOZO","cs_wg_v5_pilot1","3NL0RFNU0FOQ9DYI94G1EZVILQ9K4A","76","0","BOOKSHELF","10","5","0","1067","bookshelf","10","2017-09-15 17:31:58","45833"
"A3PYFNAED6X1BL","cs_wg_v5_pilot1","35BLDD71I6YKSLGJT1KYA4J82JJVZJ","46","0","FOOTBALL","9","5","0","2547","football","9","2017-09-15 17:31:59","45834"
"A2R9MIRIP29431","cs_wg_v5_pilot1","3ZDAD0O1T1EGAYCFNOWYC1FCXY5TX4","83","0","MACHINE","10","5","0","928","machine","10","2017-09-15 17:32:02","45835"
"A2WNVSJ1Y06SS1","cs_wg_v5_pilot1","3TVSS0C0E111LY7PDJ0CAI15OWZTWB","35","0","HELICOPTER","10","5","0","1398","helicopter","10","2017-09-15 17:32:03","45836"
"A1NBHHH443OZPE","cs_wg_v5_pilot1","33F859I566EJSMIJIYNR9LLW31MHB9","64","0","BASKET","10","5","0","1813","BASKET","10","2017-09-15 17:32:05","45837"
"AWWOJW8YTE7M5","cs_wg_v5_pilot1","38YMOXR4MU0VJ0WDH6SJZ89R4OOW63","14","0","BASKET","1","5","1","2174","basket","1","2017-09-15 17:32:06","45838"
"A320QA9HJFUOZO","cs_wg_v5_pilot1","3NL0RFNU0FOQ9DYI94G1EZVILQ9K4A","77","0","UMBRELLA","10","5","0","997","umbrella","10","2017-09-15 17:32:07","45839"
"AOTCPS24JM5DQ","cs_wg_v5_pilot1","39K0FND3AHG01QE23H386F9M250MAS","18","0","STRUCTURE","0","5","0","1434","structure","0","2017-09-15 17:32:07","45840"
"AEXF5EUX32U0M","cs_wg_v5_pilot1","3TPZPLC3M0D628CUMIGQ0BPB10JP3V","16","0","TRAFFIC","9","5","0","2337","traffic","9","2017-09-15 17:32:08","45841"
"A25DP39XRZDLQM","cs_wg_v5_pilot1","37WLF8U1WPR4O02WSS9GBXFWHHFK6V","40","0","KEYBOARD","10","5","0","9258","KEYBOARD","10","2017-09-15 17:32:08","45842"
"A3PYFNAED6X1BL","cs_wg_v5_pilot1","35BLDD71I6YKSLGJT1KYA4J82JJVZJ","47","0","BASKET","0","5","1","3327","basket","0","2017-09-15 17:32:12","45843"
"A2WNVSJ1Y06SS1","cs_wg_v5_pilot1","3TVSS0C0E111LY7PDJ0CAI15OWZTWB","36","0","TRAFFIC","10","5","0","1276","traffic","10","2017-09-15 17:32:13","45844"
"A2R9MIRIP29431","cs_wg_v5_pilot1","3ZDAD0O1T1EGAYCFNOWYC1FCXY5TX4","84","0","STRUCTURE","10","5","0","1058","structure","10","2017-09-15 17:32:14","45845"
"A320QA9HJFUOZO","cs_wg_v5_pilot1","3NL0RFNU0FOQ9DYI94G1EZVILQ9K4A","78","0","HELICOPTER","0","5","1","1294","helicopter","0","2017-09-15 17:32:15","45846"
"A1NBHHH443OZPE","cs_wg_v5_pilot1","33F859I566EJSMIJIYNR9LLW31MHB9","65","0","DOORWAY","9","5","0","1589","DOORWAY","9","2017-09-15 17:32:16","45847"
"AOTCPS24JM5DQ","cs_wg_v5_pilot1","39K0FND3AHG01QE23H386F9M250MAS","19","0","COMMUNITY","0","5","0","1818","community","0","2017-09-15 17:32:16","45848"
"A13WFFPE9L1QAB","cs_wg_v5_pilot1","3GDTJDAPVUCMI2LN6JJUAO3RCH0M8O","18","0","BOOKSHELF","1","5","0","28165","bookshelf","1","2017-09-15 17:32:20","45849"
"AWWOJW8YTE7M5","cs_wg_v5_pilot1","38YMOXR4MU0VJ0WDH6SJZ89R4OOW63","15","0","UMBRELLA","10","5","0","1814","umbrella","10","2017-09-15 17:32:20","45850"
"A2R9MIRIP29431","cs_wg_v5_pilot1","3ZDAD0O1T1EGAYCFNOWYC1FCXY5TX4","85","0","MACHINE","10","5","0","995","machine","10","2017-09-15 17:32:22","45851"
"A320QA9HJFUOZO","cs_wg_v5_pilot1","3NL0RFNU0FOQ9DYI94G1EZVILQ9K4A","79","0","BASKET","1","5","1","1188","basket","1","2017-09-15 17:32:23","45852"
"A2WNVSJ1Y06SS1","cs_wg_v5_pilot1","3TVSS0C0E111LY7PDJ0CAI15OWZTWB","37","0","STRUCTURE","9","5","0","1895","structure","9","2017-09-15 17:32:24","45853"
"AOTCPS24JM5DQ","cs_wg_v5_pilot1","39K0FND3AHG01QE23H386F9M250MAS","20","0","UMBRELLA","0","5","0","905","umbrella","0","2017-09-15 17:32:25","45854"
"A3PYFNAED6X1BL","cs_wg_v5_pilot1","35BLDD71I6YKSLGJT1KYA4J82JJVZJ","48","0","BOOKSHELF","1","5","1","5048","bookshelf","1","2017-09-15 17:32:26","45855"
"AEXF5EUX32U0M","cs_wg_v5_pilot1","3TPZPLC3M0D628CUMIGQ0BPB10JP3V","17","0","STOMACH","9","5","1","2217","stomach","9","2017-09-15 17:32:28","45856"
"A1NBHHH443OZPE","cs_wg_v5_pilot1","33F859I566EJSMIJIYNR9LLW31MHB9","66","0","STRUCTURE","0","5","1","2531","STRUCTURE","0","2017-09-15 17:32:29","45857"
"A320QA9HJFUOZO","cs_wg_v5_pilot1","3NL0RFNU0FOQ9DYI94G1EZVILQ9K4A","80","0","STRUCTURE","10","5","0","869","structure","10","2017-09-15 17:32:30","45858"
"AWWOJW8YTE7M5","cs_wg_v5_pilot1","38YMOXR4MU0VJ0WDH6SJZ89R4OOW63","16","0","DOORWAY","9","5","0","3486","doorway","9","2017-09-15 17:32:31","45859"
"A2R9MIRIP29431","cs_wg_v5_pilot1","3ZDAD0O1T1EGAYCFNOWYC1FCXY5TX4","86","0","KEYBOARD","0","5","1","873","keyboard","0","2017-09-15 17:32:32","45860"
"A25DP39XRZDLQM","cs_wg_v5_pilot1","37WLF8U1WPR4O02WSS9GBXFWHHFK6V","41","0","BOOKSHELF","0","5","1","10538","BOOKSHELF","0","2017-09-15 17:32:33","45861"
"AOTCPS24JM5DQ","cs_wg_v5_pilot1","39K0FND3AHG01QE23H386F9M250MAS","21","0","WEDDING","10","5","0","884","wedding","10","2017-09-15 17:32:35","45862"
"A320QA9HJFUOZO","cs_wg_v5_pilot1","3NL0RFNU0FOQ9DYI94G1EZVILQ9K4A","81","0","LADDER","0","5","1","2924","ladder","0","2017-09-15 17:32:40","45863"
"A3PYFNAED6X1BL","cs_wg_v5_pilot1","35BLDD71I6YKSLGJT1KYA4J82JJVZJ","49","0","LADDER","9","5","0","4662","ladder","9","2017-09-15 17:32:42","45864"
"AEXF5EUX32U0M","cs_wg_v5_pilot1","3TPZPLC3M0D628CUMIGQ0BPB10JP3V","18","0","TRAFFIC","9","5","0","2363","traffic","9","2017-09-15 17:32:42","45865"
"A13WFFPE9L1QAB","cs_wg_v5_pilot1","3GDTJDAPVUCMI2LN6JJUAO3RCH0M8O","19","0","TRAFFIC","9","5","0","9818","traffic","9","2017-09-15 17:32:44","45866"
"A2R9MIRIP29431","cs_wg_v5_pilot1","3ZDAD0O1T1EGAYCFNOWYC1FCXY5TX4","87","0","KEYBOARD","0","5","1","1077","keyboard","0","2017-09-15 17:32:44","45867"
"A1NBHHH443OZPE","cs_wg_v5_pilot1","33F859I566EJSMIJIYNR9LLW31MHB9","67","0","KEYBOARD","10","5","0","2211","KEYBOARD","10","2017-09-15 17:32:45","45868"
"A2WNVSJ1Y06SS1","cs_wg_v5_pilot1","3TVSS0C0E111LY7PDJ0CAI15OWZTWB","38","0","STOMACH","10","5","0","1532","stomach","9","2017-09-15 17:32:45","45869"
"AWWOJW8YTE7M5","cs_wg_v5_pilot1","38YMOXR4MU0VJ0WDH6SJZ89R4OOW63","17","0","KEYBOARD","0","5","1","2108","keyboard","0","2017-09-15 17:32:46","45870"
"A25DP39XRZDLQM","cs_wg_v5_pilot1","37WLF8U1WPR4O02WSS9GBXFWHHFK6V","42","0","FOOTBALL","1","5","1","5165","FOOTBALL","1","2017-09-15 17:32:48","45871"
"A320QA9HJFUOZO","cs_wg_v5_pilot1","3NL0RFNU0FOQ9DYI94G1EZVILQ9K4A","82","0","BOOKSHELF","10","5","0","863","bookshelf","10","2017-09-15 17:32:53","45872"
"AEXF5EUX32U0M","cs_wg_v5_pilot1","3TPZPLC3M0D628CUMIGQ0BPB10JP3V","19","0","UMBRELLA","0","5","0","2138","umbrella","0","2017-09-15 17:32:53","45873"
"A3PYFNAED6X1BL","cs_wg_v5_pilot1","35BLDD71I6YKSLGJT1KYA4J82JJVZJ","50","0","LADDER","9","5","0","2700","ladder","9","2017-09-15 17:32:54","45874"
"A2R9MIRIP29431","cs_wg_v5_pilot1","3ZDAD0O1T1EGAYCFNOWYC1FCXY5TX4","88","0","STOMACH","0","5","1","1990","stomach","0","2017-09-15 17:32:54","45875"
"A2WNVSJ1Y06SS1","cs_wg_v5_pilot1","3TVSS0C0E111LY7PDJ0CAI15OWZTWB","39","0","FOOTBALL","0","5","1","1974","football","0","2017-09-15 17:32:54","45876"
"AOTCPS24JM5DQ","cs_wg_v5_pilot1","39K0FND3AHG01QE23H386F9M250MAS","22","0","BOOKSHELF","9","5","0","10650","bookshelf","9","2017-09-15 17:32:55","45877"
"AWWOJW8YTE7M5","cs_wg_v5_pilot1","38YMOXR4MU0VJ0WDH6SJZ89R4OOW63","18","0","MACHINE","9","5","0","2682","machine","9","2017-09-15 17:32:58","45878"
"A1NBHHH443OZPE","cs_wg_v5_pilot1","33F859I566EJSMIJIYNR9LLW31MHB9","68","0","STRUCTURE","0","5","1","1928","STRUCTURE","0","2017-09-15 17:32:58","45879"
"A320QA9HJFUOZO","cs_wg_v5_pilot1","3NL0RFNU0FOQ9DYI94G1EZVILQ9K4A","83","0","STRUCTURE","10","5","0","845","structure","10","2017-09-15 17:33:01","45880"
"A2WNVSJ1Y06SS1","cs_wg_v5_pilot1","3TVSS0C0E111LY7PDJ0CAI15OWZTWB","40","0","BOOKSHELF","10","5","0","1294","bookshelf","10","2017-09-15 17:33:03","45881"
"A2R9MIRIP29431","cs_wg_v5_pilot1","3ZDAD0O1T1EGAYCFNOWYC1FCXY5TX4","89","0","STOMACH","0","5","1","942","stomach","0","2017-09-15 17:33:04","45882"
"A25DP39XRZDLQM","cs_wg_v5_pilot1","37WLF8U1WPR4O02WSS9GBXFWHHFK6V","43","0","COMMUNITY","10","5","0","4610","COMMUNITY","10","2017-09-15 17:33:05","45883"
"AOTCPS24JM5DQ","cs_wg_v5_pilot1","39K0FND3AHG01QE23H386F9M250MAS","23","0","WEDDING","10","5","0","2888","wedding","10","2017-09-15 17:33:05","45884"
"A3PYFNAED6X1BL","cs_wg_v5_pilot1","35BLDD71I6YKSLGJT1KYA4J82JJVZJ","51","0","BOOKSHELF","1","5","1","3237","bookshelf","1","2017-09-15 17:33:07","45885"
"A320QA9HJFUOZO","cs_wg_v5_pilot1","3NL0RFNU0FOQ9DYI94G1EZVILQ9K4A","84","0","WEDDING","0","5","1","977","wedding","0","2017-09-15 17:33:08","45886"
"AEXF5EUX32U0M","cs_wg_v5_pilot1","3TPZPLC3M0D628CUMIGQ0BPB10JP3V","20","0","KEYBOARD","10","5","0","2457","keyboard","10","2017-09-15 17:33:10","45887"
"A1NBHHH443OZPE","cs_wg_v5_pilot1","33F859I566EJSMIJIYNR9LLW31MHB9","69","0","FOOTBALL","1","5","1","1828","FOOTBALL","1","2017-09-15 17:33:11","45888"
"AWWOJW8YTE7M5","cs_wg_v5_pilot1","38YMOXR4MU0VJ0WDH6SJZ89R4OOW63","19","0","STOMACH","0","5","1","2223","stomach","0","2017-09-15 17:33:12","45889"
"A2WNVSJ1Y06SS1","cs_wg_v5_pilot1","3TVSS0C0E111LY7PDJ0CAI15OWZTWB","41","0","BASKET","1","5","1","1337","basket","1","2017-09-15 17:33:13","45890"
"AOTCPS24JM5DQ","cs_wg_v5_pilot1","39K0FND3AHG01QE23H386F9M250MAS","24","0","DOORWAY","9","5","0","868","doorway","9","2017-09-15 17:33:13","45891"
"A2R9MIRIP29431","cs_wg_v5_pilot1","3ZDAD0O1T1EGAYCFNOWYC1FCXY5TX4","90","0","DOORWAY","0","5","1","1098","doorway","0","2017-09-15 17:33:13","45892"
"A320QA9HJFUOZO","cs_wg_v5_pilot1","3NL0RFNU0FOQ9DYI94G1EZVILQ9K4A","85","0","STOMACH","0","5","1","1028","stomach","0","2017-09-15 17:33:16","45893"
"A25DP39XRZDLQM","cs_wg_v5_pilot1","37WLF8U1WPR4O02WSS9GBXFWHHFK6V","44","0","STRUCTURE","0","5","1","6341","STRUCTURE","0","2017-09-15 17:33:21","45894"
"A2WNVSJ1Y06SS1","cs_wg_v5_pilot1","3TVSS0C0E111LY7PDJ0CAI15OWZTWB","42","0","STRUCTURE","9","5","0","1270","structure","9","2017-09-15 17:33:21","45895"
"AOTCPS24JM5DQ","cs_wg_v5_pilot1","39K0FND3AHG01QE23H386F9M250MAS","25","0","DOORWAY","9","5","0","907","doorway","9","2017-09-15 17:33:22","45896"
"A320QA9HJFUOZO","cs_wg_v5_pilot1","3NL0RFNU0FOQ9DYI94G1EZVILQ9K4A","86","0","WEDDING","0","5","1","909","wedding","0","2017-09-15 17:33:23","45897"
"AEXF5EUX32U0M","cs_wg_v5_pilot1","3TPZPLC3M0D628CUMIGQ0BPB10JP3V","21","0","UMBRELLA","0","5","1","2485","umbrella","0","2017-09-15 17:33:24","45898"
"AWWOJW8YTE7M5","cs_wg_v5_pilot1","38YMOXR4MU0VJ0WDH6SJZ89R4OOW63","20","0","STRUCTURE","9","5","0","3940","structure","9","2017-09-15 17:33:24","45899"
"A13WFFPE9L1QAB","cs_wg_v5_pilot1","3GDTJDAPVUCMI2LN6JJUAO3RCH0M8O","20","0","DOORWAY","10","5","0","17149","doorway","10","2017-09-15 17:33:25","45900"
"AOTCPS24JM5DQ","cs_wg_v5_pilot1","39K0FND3AHG01QE23H386F9M250MAS","26","0","UMBRELLA","0","5","0","680","umbrella","0","2017-09-15 17:33:31","45901"
"A2WNVSJ1Y06SS1","cs_wg_v5_pilot1","3TVSS0C0E111LY7PDJ0CAI15OWZTWB","43","0","KEYBOARD","0","5","1","1549","keyboard","0","2017-09-15 17:33:31","45902"
"A320QA9HJFUOZO","cs_wg_v5_pilot1","3NL0RFNU0FOQ9DYI94G1EZVILQ9K4A","87","0","STOMACH","0","5","1","905","stomach","0","2017-09-15 17:33:32","45903"
"A1NBHHH443OZPE","cs_wg_v5_pilot1","33F859I566EJSMIJIYNR9LLW31MHB9","70","0","DOORWAY","9","5","0","13291","DOORWAY","9","2017-09-15 17:33:34","45904"
"A25DP39XRZDLQM","cs_wg_v5_pilot1","37WLF8U1WPR4O02WSS9GBXFWHHFK6V","45","0","HELICOPTER","1","5","1","4185","HELICOPTER","1","2017-09-15 17:33:35","45905"
"AEXF5EUX32U0M","cs_wg_v5_pilot1","3TPZPLC3M0D628CUMIGQ0BPB10JP3V","22","0","DOORWAY","9","5","0","2920","doorway","9","2017-09-15 17:33:36","45906"
"A320QA9HJFUOZO","cs_wg_v5_pilot1","3NL0RFNU0FOQ9DYI94G1EZVILQ9K4A","88","0","DOORWAY","9","5","0","963","doorway","9","2017-09-15 17:33:39","45907"
"AOTCPS24JM5DQ","cs_wg_v5_pilot1","39K0FND3AHG01QE23H386F9M250MAS","27","0","BASKET","1","5","0","639","basket","1","2017-09-15 17:33:40","45908"
"AWWOJW8YTE7M5","cs_wg_v5_pilot1","38YMOXR4MU0VJ0WDH6SJZ89R4OOW63","21","0","KEYBOARD","0","5","1","3328","keyboard","0","2017-09-15 17:33:41","45909"
"A2WNVSJ1Y06SS1","cs_wg_v5_pilot1","3TVSS0C0E111LY7PDJ0CAI15OWZTWB","44","0","DOORWAY","0","5","1","3577","doorway","0","2017-09-15 17:33:44","45910"
"A1NBHHH443OZPE","cs_wg_v5_pilot1","33F859I566EJSMIJIYNR9LLW31MHB9","71","0","DOORWAY","9","5","0","1419","DOORWAY","9","2017-09-15 17:33:44","45911"
"A3PYFNAED6X1BL","cs_wg_v5_pilot1","35BLDD71I6YKSLGJT1KYA4J82JJVZJ","52","0","DOORWAY","9","5","0","26055","doorway","9","2017-09-15 17:33:46","45912"
"A320QA9HJFUOZO","cs_wg_v5_pilot1","3NL0RFNU0FOQ9DYI94G1EZVILQ9K4A","89","0","TRAFFIC","9","5","0","744","traffic","9","2017-09-15 17:33:47","45913"
"A25DP39XRZDLQM","cs_wg_v5_pilot1","37WLF8U1WPR4O02WSS9GBXFWHHFK6V","46","0","HELICOPTER","1","5","1","3564","HELICOPTER","1","2017-09-15 17:33:49","45914"
"AWWOJW8YTE7M5","cs_wg_v5_pilot1","38YMOXR4MU0VJ0WDH6SJZ89R4OOW63","22","0","MACHINE","9","5","0","1698","machine","9","2017-09-15 17:33:50","45915"
"AOTCPS24JM5DQ","cs_wg_v5_pilot1","39K0FND3AHG01QE23H386F9M250MAS","28","0","MACHINE","1","5","0","933","machine","1","2017-09-15 17:33:51","45916"
"A320QA9HJFUOZO","cs_wg_v5_pilot1","3NL0RFNU0FOQ9DYI94G1EZVILQ9K4A","90","0","DOORWAY","9","5","0","943","doorway","9","2017-09-15 17:33:55","45917"
"A2WNVSJ1Y06SS1","cs_wg_v5_pilot1","3TVSS0C0E111LY7PDJ0CAI15OWZTWB","45","0","HELICOPTER","10","5","0","1560","helicopter","10","2017-09-15 17:33:56","45918"
"A3PYFNAED6X1BL","cs_wg_v5_pilot1","35BLDD71I6YKSLGJT1KYA4J82JJVZJ","53","0","MACHINE","1","5","1","2873","machine","1","2017-09-15 17:33:58","45919"
"A1NBHHH443OZPE","cs_wg_v5_pilot1","33F859I566EJSMIJIYNR9LLW31MHB9","72","0","HELICOPTER","10","5","0","1566","HELICOPTER","10","2017-09-15 17:33:59","45920"
"AOTCPS24JM5DQ","cs_wg_v5_pilot1","39K0FND3AHG01QE23H386F9M250MAS","29","0","LADDER","9","5","1","1816","ladder","9","2017-09-15 17:34:00","45921"
"AWWOJW8YTE7M5","cs_wg_v5_pilot1","38YMOXR4MU0VJ0WDH6SJZ89R4OOW63","23","0","BOOKSHELF","0","5","1","3468","bookshelf","0","2017-09-15 17:34:02","45922"
"A320QA9HJFUOZO","cs_wg_v5_pilot1","3NL0RFNU0FOQ9DYI94G1EZVILQ9K4A","91","0","DOORWAY","9","5","0","699","doorway","9","2017-09-15 17:34:03","45923"
"A2WNVSJ1Y06SS1","cs_wg_v5_pilot1","3TVSS0C0E111LY7PDJ0CAI15OWZTWB","46","0","TRAFFIC","10","5","0","959","traffic","20","2017-09-15 17:34:05","45924"
"A13WFFPE9L1QAB","cs_wg_v5_pilot1","3GDTJDAPVUCMI2LN6JJUAO3RCH0M8O","21","0","MACHINE","10","5","0","7599","machine","10","2017-09-15 17:34:05","45925"
"A3KC26Z78FBOJT","cs_wg_v5_pilot1","3YT88D1N08Z5RHFE9QBI4U3C7QDK3P","0","0","STRUCTURE","9","5","1","4571","Structure","9","2017-09-15 17:34:07","45926"
"A25DP39XRZDLQM","cs_wg_v5_pilot1","37WLF8U1WPR4O02WSS9GBXFWHHFK6V","47","0","STRUCTURE","0","5","1","8452","STRUCTURE","0","2017-09-15 17:34:07","45927"
"AOTCPS24JM5DQ","cs_wg_v5_pilot1","39K0FND3AHG01QE23H386F9M250MAS","30","0","UMBRELLA","0","5","0","453","umbrella","0","2017-09-15 17:34:09","45928"
"A1NBHHH443OZPE","cs_wg_v5_pilot1","33F859I566EJSMIJIYNR9LLW31MHB9","73","0","COMMUNITY","0","5","1","1449","COMMUNITY","0","2017-09-15 17:34:09","45929"
"A3PYFNAED6X1BL","cs_wg_v5_pilot1","35BLDD71I6YKSLGJT1KYA4J82JJVZJ","54","0","STRUCTURE","10","5","0","1390","structure","10","2017-09-15 17:34:12","45930"
"AWWOJW8YTE7M5","cs_wg_v5_pilot1","38YMOXR4MU0VJ0WDH6SJZ89R4OOW63","24","0","BASKET","1","5","1","2694","basket","1","2017-09-15 17:34:13","45931"
"A320QA9HJFUOZO","cs_wg_v5_pilot1","3NL0RFNU0FOQ9DYI94G1EZVILQ9K4A","92","0","STOMACH","0","5","1","1865","stomach","0","2017-09-15 17:34:16","45932"
"AEXF5EUX32U0M","cs_wg_v5_pilot1","3TPZPLC3M0D628CUMIGQ0BPB10JP3V","23","0","BOOKSHELF","10","5","0","3594","bookshelf","10","2017-09-15 17:34:16","45933"
"A2WNVSJ1Y06SS1","cs_wg_v5_pilot1","3TVSS0C0E111LY7PDJ0CAI15OWZTWB","47","0","STRUCTURE","9","5","0","4766","structure","9","2017-09-15 17:34:18","45934"
"AOTCPS24JM5DQ","cs_wg_v5_pilot1","39K0FND3AHG01QE23H386F9M250MAS","31","0","LADDER","9","5","0","1212","ladder","9","2017-09-15 17:34:19","45935"
"A3KC26Z78FBOJT","cs_wg_v5_pilot1","3YT88D1N08Z5RHFE9QBI4U3C7QDK3P","1","0","LADDER","0","5","0","2799","Ladder","0","2017-09-15 17:34:20","45936"
"A1NBHHH443OZPE","cs_wg_v5_pilot1","33F859I566EJSMIJIYNR9LLW31MHB9","74","0","TRAFFIC","9","5","0","1933","TRAFFIC","9","2017-09-15 17:34:23","45937"
"AWWOJW8YTE7M5","cs_wg_v5_pilot1","38YMOXR4MU0VJ0WDH6SJZ89R4OOW63","25","0","TRAFFIC","1","5","1","2969","traffic","1","2017-09-15 17:34:24","45938"
"A25DP39XRZDLQM","cs_wg_v5_pilot1","37WLF8U1WPR4O02WSS9GBXFWHHFK6V","48","0","STOMACH","0","5","1","7959","STOMACH","0","2017-09-15 17:34:26","45939"
"A320QA9HJFUOZO","cs_wg_v5_pilot1","3NL0RFNU0FOQ9DYI94G1EZVILQ9K4A","93","0","UMBRELLA","10","5","0","1141","umbrella","10","2017-09-15 17:34:27","45940"
"AOTCPS24JM5DQ","cs_wg_v5_pilot1","39K0FND3AHG01QE23H386F9M250MAS","32","0","BASKET","1","5","0","776","basket","9","2017-09-15 17:34:27","45941"
"A2WNVSJ1Y06SS1","cs_wg_v5_pilot1","3TVSS0C0E111LY7PDJ0CAI15OWZTWB","48","0","LADDER","0","5","1","4016","ladder","0","2017-09-15 17:34:29","45942"
"AEXF5EUX32U0M","cs_wg_v5_pilot1","3TPZPLC3M0D628CUMIGQ0BPB10JP3V","24","0","HELICOPTER","0","5","0","3167","helicopter","0","2017-09-15 17:34:34","45943"
"A3KC26Z78FBOJT","cs_wg_v5_pilot1","3YT88D1N08Z5RHFE9QBI4U3C7QDK3P","2","0","BOOKSHELF","10","5","0","2551","Bookshelf","10","2017-09-15 17:34:35","45944"
"AWWOJW8YTE7M5","cs_wg_v5_pilot1","38YMOXR4MU0VJ0WDH6SJZ89R4OOW63","26","0","WEDDING","10","5","0","3386","wedding","10","2017-09-15 17:34:36","45945"
"A1NBHHH443OZPE","cs_wg_v5_pilot1","33F859I566EJSMIJIYNR9LLW31MHB9","75","0","BOOKSHELF","0","5","0","1627","BOOKSHELF","0","2017-09-15 17:34:37","45946"
"AOTCPS24JM5DQ","cs_wg_v5_pilot1","39K0FND3AHG01QE23H386F9M250MAS","33","0","HELICOPTER","10","5","0","1689","helicopter","10","2017-09-15 17:34:38","45947"
"A2WNVSJ1Y06SS1","cs_wg_v5_pilot1","3TVSS0C0E111LY7PDJ0CAI15OWZTWB","49","0","DOORWAY","0","5","1","1958","doorway","0","2017-09-15 17:34:38","45948"
"A3PYFNAED6X1BL","cs_wg_v5_pilot1","35BLDD71I6YKSLGJT1KYA4J82JJVZJ","55","0","FOOTBALL","9","5","0","2262","football","9","2017-09-15 17:34:39","45949"
"A25DP39XRZDLQM","cs_wg_v5_pilot1","37WLF8U1WPR4O02WSS9GBXFWHHFK6V","49","0","COMMUNITY","10","5","0","4811","COMMUNITY","10","2017-09-15 17:34:42","45950"
"AEXF5EUX32U0M","cs_wg_v5_pilot1","3TPZPLC3M0D628CUMIGQ0BPB10JP3V","25","0","MACHINE","10","5","0","1991","machine","10","2017-09-15 17:34:44","45951"
"A320QA9HJFUOZO","cs_wg_v5_pilot1","3NL0RFNU0FOQ9DYI94G1EZVILQ9K4A","94","0","TRAFFIC","9","5","0","1208","traffic","9","2017-09-15 17:34:46","45952"
"AOTCPS24JM5DQ","cs_wg_v5_pilot1","39K0FND3AHG01QE23H386F9M250MAS","34","0","KEYBOARD","0","5","1","1510","keyboard","0","2017-09-15 17:34:47","45953"
"A1NBHHH443OZPE","cs_wg_v5_pilot1","33F859I566EJSMIJIYNR9LLW31MHB9","76","0","UMBRELLA","1","5","1","2463","UMBRELLA","1","2017-09-15 17:34:49","45954"
"A3KC26Z78FBOJT","cs_wg_v5_pilot1","3YT88D1N08Z5RHFE9QBI4U3C7QDK3P","3","0","KEYBOARD","0","5","0","3115","Keyboard","0","2017-09-15 17:34:49","45955"
"A2WNVSJ1Y06SS1","cs_wg_v5_pilot1","3TVSS0C0E111LY7PDJ0CAI15OWZTWB","50","0","FOOTBALL","0","5","1","2245","football","0","2017-09-15 17:34:49","45956"
"A3PYFNAED6X1BL","cs_wg_v5_pilot1","35BLDD71I6YKSLGJT1KYA4J82JJVZJ","56","0","TRAFFIC","10","5","0","3250","traffic","10","2017-09-15 17:34:53","45957"
"A320QA9HJFUOZO","cs_wg_v5_pilot1","3NL0RFNU0FOQ9DYI94G1EZVILQ9K4A","95","0","LADDER","0","5","1","1407","ladder","0","2017-09-15 17:34:54","45958"
"AOTCPS24JM5DQ","cs_wg_v5_pilot1","39K0FND3AHG01QE23H386F9M250MAS","35","0","BASKET","1","5","0","418","basket","1","2017-09-15 17:34:54","45959"
"AEXF5EUX32U0M","cs_wg_v5_pilot1","3TPZPLC3M0D628CUMIGQ0BPB10JP3V","26","0","TRAFFIC","9","5","1","3644","traffic","9","2017-09-15 17:34:56","45960"
"AWWOJW8YTE7M5","cs_wg_v5_pilot1","38YMOXR4MU0VJ0WDH6SJZ89R4OOW63","27","0","FOOTBALL","1","5","1","3182","football ","1","2017-09-15 17:34:56","45961"
"A25DP39XRZDLQM","cs_wg_v5_pilot1","37WLF8U1WPR4O02WSS9GBXFWHHFK6V","50","0","BASKET","9","5","0","5122","BASKET","9","2017-09-15 17:34:58","45962"
"A2WNVSJ1Y06SS1","cs_wg_v5_pilot1","3TVSS0C0E111LY7PDJ0CAI15OWZTWB","51","0","MACHINE","9","5","0","2806","machine","9","2017-09-15 17:34:58","45963"
"A1NBHHH443OZPE","cs_wg_v5_pilot1","33F859I566EJSMIJIYNR9LLW31MHB9","77","0","STOMACH","0","5","1","1534","STOMACH","0","2017-09-15 17:35:00","45964"
"A320QA9HJFUOZO","cs_wg_v5_pilot1","3NL0RFNU0FOQ9DYI94G1EZVILQ9K4A","96","0","FOOTBALL","1","5","1","1352","football","1","2017-09-15 17:35:03","45965"
"A3PYFNAED6X1BL","cs_wg_v5_pilot1","35BLDD71I6YKSLGJT1KYA4J82JJVZJ","57","0","UMBRELLA","10","5","0","1971","umrella","10","2017-09-15 17:35:04","45966"
"A13WFFPE9L1QAB","cs_wg_v5_pilot1","3GDTJDAPVUCMI2LN6JJUAO3RCH0M8O","22","0","STRUCTURE","0","5","0","34315","structure","0","2017-09-15 17:35:04","45967"
"A3KC26Z78FBOJT","cs_wg_v5_pilot1","3YT88D1N08Z5RHFE9QBI4U3C7QDK3P","4","0","HELICOPTER","1","5","1","2755","Helicopter","1","2017-09-15 17:35:05","45968"
"AWWOJW8YTE7M5","cs_wg_v5_pilot1","38YMOXR4MU0VJ0WDH6SJZ89R4OOW63","28","0","STOMACH","0","5","1","2355","stomach","0","2017-09-15 17:35:08","45969"
