"subject","version","assignmentId","trial","trial_type","word","value","alt","choice","rt","resp","resp2","stamp","id"
"A3542PB4Z0NE80","cs_wg_full_v2_conf_p","3EJJQNKU9R668TZ8EV9H90Q2EV3RHN","0",NULL,"THRONE","5","CANNON","1","4670","cannon","5","2018-07-02 19:57:47","417290"
"AXFK8W13EYDUX","cs_wg_full_v2_conf_p","3JAOYWH7VI52QPMCBZOTA7JFPQ79LQ","0",NULL,"GOGGLES","8","ANIMAL","1","3111","Animal","8","2018-07-02 19:57:52","417291"
"A3542PB4Z0NE80","cs_wg_full_v2_conf_p","3EJJQNKU9R668TZ8EV9H90Q2EV3RHN","1",NULL,"TONGUE","10","SUNBURN","0","3554","tongue","10","2018-07-02 19:58:00","417292"
"AXFK8W13EYDUX","cs_wg_full_v2_conf_p","3JAOYWH7VI52QPMCBZOTA7JFPQ79LQ","1",NULL,"GOGGLES","3","ADDICT","0","4124","goggles","3","2018-07-02 19:58:05","417293"
"A3542PB4Z0NE80","cs_wg_full_v2_conf_p","3EJJQNKU9R668TZ8EV9H90Q2EV3RHN","2",NULL,"MUFFIN","9","SILVER","1","1509","silver","9","2018-07-02 19:58:11","417294"
"AXFK8W13EYDUX","cs_wg_full_v2_conf_p","3JAOYWH7VI52QPMCBZOTA7JFPQ79LQ","2",NULL,"ANIMAL","6","SHIVER","1","3184","shiver ","6","2018-07-02 19:58:16","417295"
"A3542PB4Z0NE80","cs_wg_full_v2_conf_p","3EJJQNKU9R668TZ8EV9H90Q2EV3RHN","3",NULL,"MUFFIN","12","PARENT","0","2215","muffin","12","2018-07-02 19:58:21","417296"
"AAXVPAK0I9PT6","cs_wg_full_v2_conf_p","3LBXNTKX0RWXQJ31PIRHL1E2WZGX9Z","0",NULL,"SILVER","2","CHORUS","1","4501","Chorus","2","2018-07-02 19:58:22","417297"
"A303X7UXRA6FP2","cs_wg_full_v2_conf_p","3TE3O8573092T3WQVA6AMWK0PCM2RH","0",NULL,"BAPTISM","3","TONGUE","0","6885","Baptism","3","2018-07-02 19:58:24","417298"
"AXFK8W13EYDUX","cs_wg_full_v2_conf_p","3JAOYWH7VI52QPMCBZOTA7JFPQ79LQ","3",NULL,"MONKEY","8","ANIMAL","1","2652","animal","8","2018-07-02 19:58:28","417299"
"A3542PB4Z0NE80","cs_wg_full_v2_conf_p","3EJJQNKU9R668TZ8EV9H90Q2EV3RHN","4",NULL,"SUNBURN","7","CHORUS","1","1493","chorus","7","2018-07-02 19:58:31","417300"
"AAXVPAK0I9PT6","cs_wg_full_v2_conf_p","3LBXNTKX0RWXQJ31PIRHL1E2WZGX9Z","1",NULL,"ABDOMEN","3","SUNBURN","0","4498","Abdomen","3","2018-07-02 19:58:36","417301"
"A303X7UXRA6FP2","cs_wg_full_v2_conf_p","3TE3O8573092T3WQVA6AMWK0PCM2RH","1",NULL,"BAPTISM","5","FIREMAN","1","3773","Fireman","5","2018-07-02 19:58:39","417302"
"A1VGZ87KEGN5NE","cs_wg_full_v2_conf_p","3LUY3GC63Z1O3RDHOUJGDS1TZAK7PA","0",NULL,"FRIEND","11","ROYALTY","1","6117","Royalty","11","2018-07-02 19:58:40","417303"
"AXFK8W13EYDUX","cs_wg_full_v2_conf_p","3JAOYWH7VI52QPMCBZOTA7JFPQ79LQ","4",NULL,"MONKEY","7","BUDGET","0","3556","monkey","7","2018-07-02 19:58:40","417304"
"A3542PB4Z0NE80","cs_wg_full_v2_conf_p","3EJJQNKU9R668TZ8EV9H90Q2EV3RHN","5",NULL,"MUFFIN","12","CANNON","0","2369","muffin","12","2018-07-02 19:58:41","417305"
"AAXVPAK0I9PT6","cs_wg_full_v2_conf_p","3LBXNTKX0RWXQJ31PIRHL1E2WZGX9Z","2",NULL,"CHORUS","12","FIREFLY","1","2081","Firefly","12","2018-07-02 19:58:49","417306"
"AXFK8W13EYDUX","cs_wg_full_v2_conf_p","3JAOYWH7VI52QPMCBZOTA7JFPQ79LQ","5",NULL,"COFFEE","8","ANIMAL","1","2275","animal","8","2018-07-02 19:58:50","417307"
"A303X7UXRA6FP2","cs_wg_full_v2_conf_p","3TE3O8573092T3WQVA6AMWK0PCM2RH","2",NULL,"SCIENCE","8","BAPTISM","0","2911","Science","8","2018-07-02 19:58:51","417308"
"A3542PB4Z0NE80","cs_wg_full_v2_conf_p","3EJJQNKU9R668TZ8EV9H90Q2EV3RHN","6",NULL,"TONGUE","10","CANNON","0","2455","tongue","10","2018-07-02 19:58:53","417309"
"A1VGZ87KEGN5NE","cs_wg_full_v2_conf_p","3LUY3GC63Z1O3RDHOUJGDS1TZAK7PA","1",NULL,"ROYALTY","11","JUNGLE","0","4685","Royalty","11","2018-07-02 19:58:59","417310"
"AAXVPAK0I9PT6","cs_wg_full_v2_conf_p","3LBXNTKX0RWXQJ31PIRHL1E2WZGX9Z","3",NULL,"SILVER","8","PRIEST","1","2001","Priest","8","2018-07-02 19:59:00","417311"
"A3542PB4Z0NE80","cs_wg_full_v2_conf_p","3EJJQNKU9R668TZ8EV9H90Q2EV3RHN","7",NULL,"SILVER","9","SUMMER","0","2087","silver","9","2018-07-02 19:59:02","417312"
"AXFK8W13EYDUX","cs_wg_full_v2_conf_p","3JAOYWH7VI52QPMCBZOTA7JFPQ79LQ","6",NULL,"SHIVER","9","FACTORY","1","2618","factory","9","2018-07-02 19:59:02","417313"
"AECDIRXC7CBY2","cs_wg_full_v2_conf_p","3NXNZ5RS1AY3B4XA75NJR21EU6279F","0",NULL,"COFFEE","9","CAMERA","0","6089","coffee","9","2018-07-02 19:59:03","417314"
"A303X7UXRA6FP2","cs_wg_full_v2_conf_p","3TE3O8573092T3WQVA6AMWK0PCM2RH","3",NULL,"BAPTISM","3","TURKEY","0","3135","baptism","3","2018-07-02 19:59:04","417315"
"AAXVPAK0I9PT6","cs_wg_full_v2_conf_p","3LBXNTKX0RWXQJ31PIRHL1E2WZGX9Z","4",NULL,"MAGNET","10","PRIEST","0","1622","Magnet","10","2018-07-02 19:59:10","417316"
"A3542PB4Z0NE80","cs_wg_full_v2_conf_p","3EJJQNKU9R668TZ8EV9H90Q2EV3RHN","8",NULL,"ROYALTY","3","PARENT","0","1956","royalty","3","2018-07-02 19:59:13","417317"
"AXFK8W13EYDUX","cs_wg_full_v2_conf_p","3JAOYWH7VI52QPMCBZOTA7JFPQ79LQ","7",NULL,"SPATULA","10","COFFEE","0","3541","spatula","10","2018-07-02 19:59:14","417318"
"A303X7UXRA6FP2","cs_wg_full_v2_conf_p","3TE3O8573092T3WQVA6AMWK0PCM2RH","4",NULL,"TONGUE","9","SPATULA","1","2470","spatula","9","2018-07-02 19:59:16","417319"
"AECDIRXC7CBY2","cs_wg_full_v2_conf_p","3NXNZ5RS1AY3B4XA75NJR21EU6279F","1",NULL,"SUNBURN","7","SPIRAL","0","4217","sunburn","7
7","2018-07-02 19:59:19","417320"
"A3542PB4Z0NE80","cs_wg_full_v2_conf_p","3EJJQNKU9R668TZ8EV9H90Q2EV3RHN","9",NULL,"CANNON","10","TONGUE","1","1893","tongue","10","2018-07-02 19:59:22","417321"
"AAXVPAK0I9PT6","cs_wg_full_v2_conf_p","3LBXNTKX0RWXQJ31PIRHL1E2WZGX9Z","5",NULL,"CHORUS","9","PUMPKIN","1","1525","Pumpkin","9","2018-07-02 19:59:22","417322"
"AXFK8W13EYDUX","cs_wg_full_v2_conf_p","3JAOYWH7VI52QPMCBZOTA7JFPQ79LQ","8",NULL,"MONKEY","7","SHIVER","0","4231","monkey","7","2018-07-02 19:59:26","417323"
"A303X7UXRA6FP2","cs_wg_full_v2_conf_p","3TE3O8573092T3WQVA6AMWK0PCM2RH","5",NULL,"TONGUE","6","CANVAS","0","3712","tongue","6","2018-07-02 19:59:29","417324"
"A3542PB4Z0NE80","cs_wg_full_v2_conf_p","3EJJQNKU9R668TZ8EV9H90Q2EV3RHN","10",NULL,"ADDICT","6","SILVER","0","1355","addict","6","2018-07-02 19:59:31","417325"
"AECDIRXC7CBY2","cs_wg_full_v2_conf_p","3NXNZ5RS1AY3B4XA75NJR21EU6279F","2",NULL,"BULLET","1","DAGGER","0","1873","bullet","1","2018-07-02 19:59:33","417326"
"AAXVPAK0I9PT6","cs_wg_full_v2_conf_p","3LBXNTKX0RWXQJ31PIRHL1E2WZGX9Z","6",NULL,"PRIEST","7","TONGUE","1","1560","Tongue","9","2018-07-02 19:59:34","417327"
"AXFK8W13EYDUX","cs_wg_full_v2_conf_p","3JAOYWH7VI52QPMCBZOTA7JFPQ79LQ","9",NULL,"SPATULA","12","SCIENCE","1","2830","science","12","2018-07-02 19:59:36","417328"
"A303X7UXRA6FP2","cs_wg_full_v2_conf_p","3TE3O8573092T3WQVA6AMWK0PCM2RH","6",NULL,"CHORUS","1","BAPTISM","0","1999","chorus","1","2018-07-02 19:59:40","417329"
"A3542PB4Z0NE80","cs_wg_full_v2_conf_p","3EJJQNKU9R668TZ8EV9H90Q2EV3RHN","11",NULL,"CANNON","4","PARENT","1","1712","parent","4","2018-07-02 19:59:43","417330"
"AECDIRXC7CBY2","cs_wg_full_v2_conf_p","3NXNZ5RS1AY3B4XA75NJR21EU6279F","3",NULL,"CANVAS","3","ADDICT","0","2517","canvas","3","2018-07-02 19:59:43","417331"
"AAXVPAK0I9PT6","cs_wg_full_v2_conf_p","3LBXNTKX0RWXQJ31PIRHL1E2WZGX9Z","7",NULL,"BIKINI","5","DOLLAR","0","1814","Bikini","5","2018-07-02 19:59:44","417332"
"AXFK8W13EYDUX","cs_wg_full_v2_conf_p","3JAOYWH7VI52QPMCBZOTA7JFPQ79LQ","10",NULL,"SPATULA","4","BUDGET","1","3509","budget","4","2018-07-02 19:59:49","417333"
"A303X7UXRA6FP2","cs_wg_full_v2_conf_p","3TE3O8573092T3WQVA6AMWK0PCM2RH","7",NULL,"CHORUS","4","COFFEE","1","2208","coffee","4","2018-07-02 19:59:52","417334"
"AAXVPAK0I9PT6","cs_wg_full_v2_conf_p","3LBXNTKX0RWXQJ31PIRHL1E2WZGX9Z","8",NULL,"SUNBURN","11","DOLLAR","1","2058","Dollar","11","2018-07-02 19:59:54","417335"
"A3542PB4Z0NE80","cs_wg_full_v2_conf_p","3EJJQNKU9R668TZ8EV9H90Q2EV3RHN","12",NULL,"ROYALTY","2","SUMMER","1","1713","summer","2","2018-07-02 19:59:55","417336"
"AECDIRXC7CBY2","cs_wg_full_v2_conf_p","3NXNZ5RS1AY3B4XA75NJR21EU6279F","4",NULL,"SUNBURN","9","COFFEE","1","5072","coffee","9","2018-07-02 19:59:58","417337"
"AXFK8W13EYDUX","cs_wg_full_v2_conf_p","3JAOYWH7VI52QPMCBZOTA7JFPQ79LQ","11",NULL,"COFFEE","2","BUDGET","0","3490","coffee","2","2018-07-02 20:00:00","417338"
"A3542PB4Z0NE80","cs_wg_full_v2_conf_p","3EJJQNKU9R668TZ8EV9H90Q2EV3RHN","13",NULL,"MUFFIN","12","SUMMER","0","1425","muffin","12","2018-07-02 20:00:04","417339"
"A303X7UXRA6FP2","cs_wg_full_v2_conf_p","3TE3O8573092T3WQVA6AMWK0PCM2RH","8",NULL,"COFFEE","5","FIREMAN","1","3871","fireman","5","2018-07-02 20:00:05","417340"
"AAXVPAK0I9PT6","cs_wg_full_v2_conf_p","3LBXNTKX0RWXQJ31PIRHL1E2WZGX9Z","9",NULL,"ABDOMEN","10","MAGNET","1","1719","Magnet ","10","2018-07-02 20:00:07","417341"
"AECDIRXC7CBY2","cs_wg_full_v2_conf_p","3NXNZ5RS1AY3B4XA75NJR21EU6279F","5",NULL,"ANIMAL","5","ADDICT","0","2027","animal","5","2018-07-02 20:00:08","417342"
"AXFK8W13EYDUX","cs_wg_full_v2_conf_p","3JAOYWH7VI52QPMCBZOTA7JFPQ79LQ","12",NULL,"MONKEY","7","COFFEE","0","2139","monkey","7","2018-07-02 20:00:11","417343"
"A3542PB4Z0NE80","cs_wg_full_v2_conf_p","3EJJQNKU9R668TZ8EV9H90Q2EV3RHN","14",NULL,"SUMMER","6","ADDICT","1","1868","addict","6","2018-07-02 20:00:13","417344"
"A303X7UXRA6FP2","cs_wg_full_v2_conf_p","3TE3O8573092T3WQVA6AMWK0PCM2RH","9",NULL,"SCIENCE","8","CANVAS","0","2992","science","8","2018-07-02 20:00:18","417345"
"AAXVPAK0I9PT6","cs_wg_full_v2_conf_p","3LBXNTKX0RWXQJ31PIRHL1E2WZGX9Z","10",NULL,"SUNBURN","6","THRONE","1","1787","Throne","6","2018-07-02 20:00:19","417346"
"A3UNS38BYD3OQR","cs_wg_full_v2_conf_p","37Z929RLG998EHQGTEQBDTYMBRHTSN","0",NULL,"ADDICT","9","CHURCH","0","8372","addict","9","2018-07-02 20:00:20","417347"
"AECDIRXC7CBY2","cs_wg_full_v2_conf_p","3NXNZ5RS1AY3B4XA75NJR21EU6279F","6",NULL,"PLANET","9","COFFEE","1","2968","coffee","9","2018-07-02 20:00:21","417348"
"A3542PB4Z0NE80","cs_wg_full_v2_conf_p","3EJJQNKU9R668TZ8EV9H90Q2EV3RHN","15",NULL,"SILVER","1","THRONE","1","2270","throne","1","2018-07-02 20:00:22","417349"
"A32XNYX09SMR01","cs_wg_full_v2_conf_p","3ZSANO2JCF8YVC8FYULMWPJLKIBFS3","0",NULL,"SMOKER","9","CHORUS","1","6313","chorus","9","2018-07-02 20:00:22","417350"
"AXFK8W13EYDUX","cs_wg_full_v2_conf_p","3JAOYWH7VI52QPMCBZOTA7JFPQ79LQ","13",NULL,"SCIENCE","1","PRIEST","1","4053","priest","1","2018-07-02 20:00:23","417351"
"AAXVPAK0I9PT6","cs_wg_full_v2_conf_p","3LBXNTKX0RWXQJ31PIRHL1E2WZGX9Z","11",NULL,"PRIEST","11","DOLLAR","1","1602","Dollar","11","2018-07-02 20:00:27","417352"
"A3542PB4Z0NE80","cs_wg_full_v2_conf_p","3EJJQNKU9R668TZ8EV9H90Q2EV3RHN","16",NULL,"SUMMER","11","CHICKEN","1","1897","chicken","11","2018-07-02 20:00:31","417353"
"A2XBG28E8AA6MW","cs_wg_full_v2_conf_p","37C0GNLMHF4WAUWM0BNT7KK8QGYD64","0",NULL,"BABOON","3","DOLLAR","0","10429","baboon","3","2018-07-02 20:00:32","417354"
"A303X7UXRA6FP2","cs_wg_full_v2_conf_p","3TE3O8573092T3WQVA6AMWK0PCM2RH","10",NULL,"BAPTISM","9","SPATULA","1","2970","spatula","9","2018-07-02 20:00:32","417355"
"AXFK8W13EYDUX","cs_wg_full_v2_conf_p","3JAOYWH7VI52QPMCBZOTA7JFPQ79LQ","14",NULL,"BUDGET","12","SCIENCE","1","3054","science","12","2018-07-02 20:00:34","417356"
"AAXVPAK0I9PT6","cs_wg_full_v2_conf_p","3LBXNTKX0RWXQJ31PIRHL1E2WZGX9Z","12",NULL,"THRONE","1","SUNBURN","1","1305","Sunburn","1","2018-07-02 20:00:37","417357"
"A3UNS38BYD3OQR","cs_wg_full_v2_conf_p","37Z929RLG998EHQGTEQBDTYMBRHTSN","1",NULL,"PRIEST","7","WAFFLE","1","6732","waffle","7","2018-07-02 20:00:41","417358"
"A32XNYX09SMR01","cs_wg_full_v2_conf_p","3ZSANO2JCF8YVC8FYULMWPJLKIBFS3","1",NULL,"SILVER","4","FRIEND","1","5899","friend","4","2018-07-02 20:00:41","417359"
"AECDIRXC7CBY2","cs_wg_full_v2_conf_p","3NXNZ5RS1AY3B4XA75NJR21EU6279F","7",NULL,"BULLET","7","SUNBURN","1","11383","sunburn","7","2018-07-02 20:00:41","417360"
"A3542PB4Z0NE80","cs_wg_full_v2_conf_p","3EJJQNKU9R668TZ8EV9H90Q2EV3RHN","17",NULL,"CHICKEN","11","THRONE","0","1458","chicken","11","2018-07-02 20:00:42","417361"
"A303X7UXRA6FP2","cs_wg_full_v2_conf_p","3TE3O8573092T3WQVA6AMWK0PCM2RH","11",NULL,"BAPTISM","7","JAVELIN","1","2446","javelin","7","2018-07-02 20:00:44","417362"
"AXFK8W13EYDUX","cs_wg_full_v2_conf_p","3JAOYWH7VI52QPMCBZOTA7JFPQ79LQ","15",NULL,"PRIEST","10","SPATULA","1","3760","spatula","10","2018-07-02 20:00:46","417363"
"AAXVPAK0I9PT6","cs_wg_full_v2_conf_p","3LBXNTKX0RWXQJ31PIRHL1E2WZGX9Z","13",NULL,"TONGUE","1","SUNBURN","1","1201","Sunburn","1","2018-07-02 20:00:46","417364"
"A3542PB4Z0NE80","cs_wg_full_v2_conf_p","3EJJQNKU9R668TZ8EV9H90Q2EV3RHN","18",NULL,"TONGUE","10","SUMMER","0","1546","tongue","10","2018-07-02 20:00:52","417365"
"A303X7UXRA6FP2","cs_wg_full_v2_conf_p","3TE3O8573092T3WQVA6AMWK0PCM2RH","12",NULL,"JAVELIN","7","FIREMAN","0","2110","javelin","7","2018-07-02 20:00:55","417366"
"AXFK8W13EYDUX","cs_wg_full_v2_conf_p","3JAOYWH7VI52QPMCBZOTA7JFPQ79LQ","16",NULL,"GOGGLES","3","COFFEE","0","2664","goggles","3","2018-07-02 20:00:56","417367"
"AAXVPAK0I9PT6","cs_wg_full_v2_conf_p","3LBXNTKX0RWXQJ31PIRHL1E2WZGX9Z","14",NULL,"MAGNET","2","CHORUS","1","1827","Chorus","2","2018-07-02 20:00:58","417368"
"A32XNYX09SMR01","cs_wg_full_v2_conf_p","3ZSANO2JCF8YVC8FYULMWPJLKIBFS3","2",NULL,"ADDICT","4","FRIEND","1","5281","friend","4","2018-07-02 20:00:59","417369"
"A3UNS38BYD3OQR","cs_wg_full_v2_conf_p","37Z929RLG998EHQGTEQBDTYMBRHTSN","2",NULL,"SPATULA","3","PUMPKIN","1","2842","pumpkin ","3","2018-07-02 20:01:00","417370"
"A3542PB4Z0NE80","cs_wg_full_v2_conf_p","3EJJQNKU9R668TZ8EV9H90Q2EV3RHN","19",NULL,"ROYALTY","10","TONGUE","1","1972","tongue","10","2018-07-02 20:01:01","417371"
"AECDIRXC7CBY2","cs_wg_full_v2_conf_p","3NXNZ5RS1AY3B4XA75NJR21EU6279F","8",NULL,"DAGGER","12","COFFEE","0","13147","dagger","12","2018-07-02 20:01:04","417372"
"AXFK8W13EYDUX","cs_wg_full_v2_conf_p","3JAOYWH7VI52QPMCBZOTA7JFPQ79LQ","17",NULL,"ANIMAL","8","BUDGET","0","2956","animal","8","2018-07-02 20:01:06","417373"
"A2XBG28E8AA6MW","cs_wg_full_v2_conf_p","37C0GNLMHF4WAUWM0BNT7KK8QGYD64","1",NULL,"DOLLAR","7","CASINO","1","16233","casino","7","2018-07-02 20:01:07","417374"
"A303X7UXRA6FP2","cs_wg_full_v2_conf_p","3TE3O8573092T3WQVA6AMWK0PCM2RH","13",NULL,"ALMOND","2","BAPTISM","0","1952","almond ","2","2018-07-02 20:01:08","417375"
"A3542PB4Z0NE80","cs_wg_full_v2_conf_p","3EJJQNKU9R668TZ8EV9H90Q2EV3RHN","20",NULL,"SUNBURN","8","ADDICT","0","2516","sunburn","8","2018-07-02 20:01:11","417376"
"A32XNYX09SMR01","cs_wg_full_v2_conf_p","3ZSANO2JCF8YVC8FYULMWPJLKIBFS3","3",NULL,"WAFFLE","6","DRAGON","0","4939","waffle","6","2018-07-02 20:01:14","417377"
"AXFK8W13EYDUX","cs_wg_full_v2_conf_p","3JAOYWH7VI52QPMCBZOTA7JFPQ79LQ","18",NULL,"BUDGET","5","CARROT","1","1707","carrot","5","2018-07-02 20:01:14","417378"
"AECDIRXC7CBY2","cs_wg_full_v2_conf_p","3NXNZ5RS1AY3B4XA75NJR21EU6279F","9",NULL,"MONKEY","4","THRONE","1","2570","throne","4","2018-07-02 20:01:15","417379"
"AAXVPAK0I9PT6","cs_wg_full_v2_conf_p","3LBXNTKX0RWXQJ31PIRHL1E2WZGX9Z","15",NULL,"BIKINI","5","PRIEST","0","8584","Bikini","5","2018-07-02 20:01:17","417380"
"A303X7UXRA6FP2","cs_wg_full_v2_conf_p","3TE3O8573092T3WQVA6AMWK0PCM2RH","14",NULL,"ALMOND","5","FIREMAN","1","2782","fireman","5","2018-07-02 20:01:18","417381"
"A3542PB4Z0NE80","cs_wg_full_v2_conf_p","3EJJQNKU9R668TZ8EV9H90Q2EV3RHN","21",NULL,"CHICKEN","11","TONGUE","0","1400","chicken","11","2018-07-02 20:01:20","417382"
"A1JH27GMNQDE6A","cs_wg_full_v2_conf_p","35H6S234SA116HHTL55A98WGDZ156P","0",NULL,"BABOON","2","TRIVIA","0","8139","babun","2","2018-07-02 20:01:23","417383"
"AECDIRXC7CBY2","cs_wg_full_v2_conf_p","3NXNZ5RS1AY3B4XA75NJR21EU6279F","10",NULL,"ADDICT","5","ANIMAL","1","2283","animal","5
5","2018-07-02 20:01:28","417384"
"A3542PB4Z0NE80","cs_wg_full_v2_conf_p","3EJJQNKU9R668TZ8EV9H90Q2EV3RHN","22",NULL,"CHICKEN","11","ROYALTY","0","1117","chicken","11","2018-07-02 20:01:28","417385"
"A303X7UXRA6FP2","cs_wg_full_v2_conf_p","3TE3O8573092T3WQVA6AMWK0PCM2RH","15",NULL,"CAMERA","12","CHORUS","0","1855","camera","12","2018-07-02 20:01:29","417386"
"AXFK8W13EYDUX","cs_wg_full_v2_conf_p","3JAOYWH7VI52QPMCBZOTA7JFPQ79LQ","19",NULL,"MONKEY","10","SPATULA","1","4792","spatula","10","2018-07-02 20:01:29","417387"
"A32XNYX09SMR01","cs_wg_full_v2_conf_p","3ZSANO2JCF8YVC8FYULMWPJLKIBFS3","4",NULL,"JAVELIN","8","SMOKER","0","4465","javelin","8","2018-07-02 20:01:31","417388"
"AAXVPAK0I9PT6","cs_wg_full_v2_conf_p","3LBXNTKX0RWXQJ31PIRHL1E2WZGX9Z","16",NULL,"THRONE","6","CHORUS","0","3852","Throne","6","2018-07-02 20:01:32","417389"
"A3542PB4Z0NE80","cs_wg_full_v2_conf_p","3EJJQNKU9R668TZ8EV9H90Q2EV3RHN","23",NULL,"SILVER","11","CHICKEN","1","1138","chicken","11","2018-07-02 20:01:36","417390"
"AECDIRXC7CBY2","cs_wg_full_v2_conf_p","3NXNZ5RS1AY3B4XA75NJR21EU6279F","11",NULL,"SPIRAL","2","MONKEY","1","2379","monkey","2","2018-07-02 20:01:38","417391"
"A303X7UXRA6FP2","cs_wg_full_v2_conf_p","3TE3O8573092T3WQVA6AMWK0PCM2RH","16",NULL,"TURKEY","11","CANVAS","0","3160","turkey","11","2018-07-02 20:01:40","417392"
"AXFK8W13EYDUX","cs_wg_full_v2_conf_p","3JAOYWH7VI52QPMCBZOTA7JFPQ79LQ","20",NULL,"ADDICT","11","COFFEE","0","3448","addict","11","2018-07-02 20:01:40","417393"
"AAXVPAK0I9PT6","cs_wg_full_v2_conf_p","3LBXNTKX0RWXQJ31PIRHL1E2WZGX9Z","17",NULL,"DOLLAR","11","THRONE","0","3711","Dollar","11","2018-07-02 20:01:42","417394"
"AJJKCFQTPX1I3","cs_wg_full_v2_conf_p","3VELCLL3GKKY1S9LLB620OWCUIZF1K","0",NULL,"BABOON","4","SUNBURN","0","12073","baboon","4","2018-07-02 20:01:43","417395"
"A2XBG28E8AA6MW","cs_wg_full_v2_conf_p","37C0GNLMHF4WAUWM0BNT7KK8QGYD64","2",NULL,"CHURCH","1","BUDGET","1","15533","budget","1","2018-07-02 20:01:43","417396"
"A1JH27GMNQDE6A","cs_wg_full_v2_conf_p","35H6S234SA116HHTL55A98WGDZ156P","1",NULL,"ROYALTY","10","TENNIS","0","3826","royalty","10","2018-07-02 20:01:44","417397"
"A32XNYX09SMR01","cs_wg_full_v2_conf_p","3ZSANO2JCF8YVC8FYULMWPJLKIBFS3","5",NULL,"WAFFLE","5","ANIMAL","1","3894","animal","5","2018-07-02 20:01:45","417398"
"A3542PB4Z0NE80","cs_wg_full_v2_conf_p","3EJJQNKU9R668TZ8EV9H90Q2EV3RHN","24",NULL,"SUMMER","3","ROYALTY","1","1878","royalty","3","2018-07-02 20:01:47","417399"
"AECDIRXC7CBY2","cs_wg_full_v2_conf_p","3NXNZ5RS1AY3B4XA75NJR21EU6279F","12",NULL,"COFFEE","10","ADDICT","1","2901","addict","10","2018-07-02 20:01:48","417400"
"AXFK8W13EYDUX","cs_wg_full_v2_conf_p","3JAOYWH7VI52QPMCBZOTA7JFPQ79LQ","21",NULL,"CARROT","5","GOGGLES","0","4255","carrot","5","2018-07-02 20:01:51","417401"
"A303X7UXRA6FP2","cs_wg_full_v2_conf_p","3TE3O8573092T3WQVA6AMWK0PCM2RH","17",NULL,"SPATULA","11","TURKEY","1","3400","turkey","11","2018-07-02 20:01:52","417402"
"AAXVPAK0I9PT6","cs_wg_full_v2_conf_p","3LBXNTKX0RWXQJ31PIRHL1E2WZGX9Z","18",NULL,"TONGUE","5","BIKINI","1","3507","Bikini","5","2018-07-02 20:01:54","417403"
"A1JH27GMNQDE6A","cs_wg_full_v2_conf_p","35H6S234SA116HHTL55A98WGDZ156P","2",NULL,"CASINO","1","TENNIS","1","2449","tennis","1","2018-07-02 20:01:56","417404"
"A3542PB4Z0NE80","cs_wg_full_v2_conf_p","3EJJQNKU9R668TZ8EV9H90Q2EV3RHN","25",NULL,"THRONE","12","MUFFIN","1","1498","muffin","12","2018-07-02 20:01:57","417405"
"AXFK8W13EYDUX","cs_wg_full_v2_conf_p","3JAOYWH7VI52QPMCBZOTA7JFPQ79LQ","22",NULL,"SHIVER","6","CARROT","0","1956","shiver","6","2018-07-02 20:02:02","417406"
"AECDIRXC7CBY2","cs_wg_full_v2_conf_p","3NXNZ5RS1AY3B4XA75NJR21EU6279F","13",NULL,"BULLET","4","THRONE","1","7754","throne","4","2018-07-02 20:02:03","417407"
"A32XNYX09SMR01","cs_wg_full_v2_conf_p","3ZSANO2JCF8YVC8FYULMWPJLKIBFS3","6",NULL,"DRAGON","10","ANIMAL","0","2254","dragon","10","2018-07-02 20:02:03","417408"
"A303X7UXRA6FP2","cs_wg_full_v2_conf_p","3TE3O8573092T3WQVA6AMWK0PCM2RH","18",NULL,"TONGUE","12","CAMERA","1","3638","camera","12","2018-07-02 20:02:04","417409"
"AJJKCFQTPX1I3","cs_wg_full_v2_conf_p","3VELCLL3GKKY1S9LLB620OWCUIZF1K","1",NULL,"CHICKEN","9","GIRAFFE","1","5715","giraffe","9","2018-07-02 20:02:05","417410"
"A3542PB4Z0NE80","cs_wg_full_v2_conf_p","3EJJQNKU9R668TZ8EV9H90Q2EV3RHN","26",NULL,"SUMMER","1","THRONE","1","1636","throne","1","2018-07-02 20:02:06","417411"
"AAXVPAK0I9PT6","cs_wg_full_v2_conf_p","3LBXNTKX0RWXQJ31PIRHL1E2WZGX9Z","19",NULL,"DOLLAR","11","MAGNET","0","3471","Dollar","11","2018-07-02 20:02:07","417412"
"AXFK8W13EYDUX","cs_wg_full_v2_conf_p","3JAOYWH7VI52QPMCBZOTA7JFPQ79LQ","23",NULL,"SCIENCE","12","FACTORY","0","2131","science","12","2018-07-02 20:02:10","417413"
"A2XBG28E8AA6MW","cs_wg_full_v2_conf_p","37C0GNLMHF4WAUWM0BNT7KK8QGYD64","3",NULL,"PICTURE","10","BEAVER","1","6977","beaver","10","2018-07-02 20:02:12","417414"
"A3UNS38BYD3OQR","cs_wg_full_v2_conf_p","37Z929RLG998EHQGTEQBDTYMBRHTSN","3",NULL,"SCIENCE","6","DOLLAR","0","4428","science ","6","2018-07-02 20:02:12","417415"
"A1JH27GMNQDE6A","cs_wg_full_v2_conf_p","35H6S234SA116HHTL55A98WGDZ156P","3",NULL,"CHICKEN","9","TENNIS","0","3019","chicken","9
9","2018-07-02 20:02:12","417416"
"A3542PB4Z0NE80","cs_wg_full_v2_conf_p","3EJJQNKU9R668TZ8EV9H90Q2EV3RHN","27",NULL,"MUFFIN","12","ROYALTY","0","1224","muffin","12","2018-07-02 20:02:15","417417"
"AECDIRXC7CBY2","cs_wg_full_v2_conf_p","3NXNZ5RS1AY3B4XA75NJR21EU6279F","14",NULL,"COFFEE","9","BULLET","0","3828","coffee","9","2018-07-02 20:02:15","417418"
"A32XNYX09SMR01","cs_wg_full_v2_conf_p","3ZSANO2JCF8YVC8FYULMWPJLKIBFS3","7",NULL,"SILVER","2","WAFFLE","0","2612","silver","2","2018-07-02 20:02:16","417419"
"A303X7UXRA6FP2","cs_wg_full_v2_conf_p","3TE3O8573092T3WQVA6AMWK0PCM2RH","19",NULL,"JAVELIN","7","CHORUS","0","3961","javelin","7","2018-07-02 20:02:16","417420"
"AAXVPAK0I9PT6","cs_wg_full_v2_conf_p","3LBXNTKX0RWXQJ31PIRHL1E2WZGX9Z","20",NULL,"ABDOMEN","12","FIREFLY","1","1424","Firefly","12","2018-07-02 20:02:17","417421"
"AXFK8W13EYDUX","cs_wg_full_v2_conf_p","3JAOYWH7VI52QPMCBZOTA7JFPQ79LQ","24",NULL,"FACTORY","9","ANIMAL","0","2392","factory","9","2018-07-02 20:02:21","417422"
"A3542PB4Z0NE80","cs_wg_full_v2_conf_p","3EJJQNKU9R668TZ8EV9H90Q2EV3RHN","28",NULL,"ROYALTY","9","SILVER","1","1435","silver","9","2018-07-02 20:02:24","417423"
"AECDIRXC7CBY2","cs_wg_full_v2_conf_p","3NXNZ5RS1AY3B4XA75NJR21EU6279F","15",NULL,"ANIMAL","8","CAMERA","1","2009","camera","8","2018-07-02 20:02:25","417424"
"AAXVPAK0I9PT6","cs_wg_full_v2_conf_p","3LBXNTKX0RWXQJ31PIRHL1E2WZGX9Z","21",NULL,"SILVER","4","ABDOMEN","0","1562","Silver","4","2018-07-02 20:02:26","417425"
"A32XNYX09SMR01","cs_wg_full_v2_conf_p","3ZSANO2JCF8YVC8FYULMWPJLKIBFS3","8",NULL,"CHIMNEY","10","DRAGON","1","2301","dragon","10","2018-07-02 20:02:28","417426"
"A1JH27GMNQDE6A","cs_wg_full_v2_conf_p","35H6S234SA116HHTL55A98WGDZ156P","4",NULL,"BABOON","2","CASINO","0","6638","baboon","2","2018-07-02 20:02:30","417427"
"AJJKCFQTPX1I3","cs_wg_full_v2_conf_p","3VELCLL3GKKY1S9LLB620OWCUIZF1K","2",NULL,"PILLAR","5","CHICKEN","1","11291","chicken","5","2018-07-02 20:02:30","417428"
"AXFK8W13EYDUX","cs_wg_full_v2_conf_p","3JAOYWH7VI52QPMCBZOTA7JFPQ79LQ","25",NULL,"CARROT","5","BUDGET","0","3291","carrot","5","2018-07-02 20:02:31","417429"
"A303X7UXRA6FP2","cs_wg_full_v2_conf_p","3TE3O8573092T3WQVA6AMWK0PCM2RH","20",NULL,"CAMERA","12","FIREMAN","0","3145","camera","12","2018-07-02 20:02:31","417430"
"A3542PB4Z0NE80","cs_wg_full_v2_conf_p","3EJJQNKU9R668TZ8EV9H90Q2EV3RHN","29",NULL,"CHORUS","10","TONGUE","1","3098","tongue","10","2018-07-02 20:02:34","417431"
"AECDIRXC7CBY2","cs_wg_full_v2_conf_p","3NXNZ5RS1AY3B4XA75NJR21EU6279F","16",NULL,"BULLET","11","SPIRAL","1","2257","spiral","11","2018-07-02 20:02:35","417432"
"AAXVPAK0I9PT6","cs_wg_full_v2_conf_p","3LBXNTKX0RWXQJ31PIRHL1E2WZGX9Z","22",NULL,"SILVER","12","FIREFLY","1","2041","Firefly","12","2018-07-02 20:02:37","417433"
"A2XBG28E8AA6MW","cs_wg_full_v2_conf_p","37C0GNLMHF4WAUWM0BNT7KK8QGYD64","4",NULL,"PRIEST","6","CABINET","1","3453","cabinet","6","2018-07-02 20:02:40","417434"
"AXFK8W13EYDUX","cs_wg_full_v2_conf_p","3JAOYWH7VI52QPMCBZOTA7JFPQ79LQ","26",NULL,"FACTORY","9","PRIEST","0","2507","factory","9","2018-07-02 20:02:40","417435"
"A303X7UXRA6FP2","cs_wg_full_v2_conf_p","3TE3O8573092T3WQVA6AMWK0PCM2RH","21",NULL,"ALMOND","8","SCIENCE","1","3392","science","8","2018-07-02 20:02:43","417436"
"A1JH27GMNQDE6A","cs_wg_full_v2_conf_p","35H6S234SA116HHTL55A98WGDZ156P","5",NULL,"TRIVIA","6","TENNIS","0","2989","trivia","6","2018-07-02 20:02:43","417437"
"A3542PB4Z0NE80","cs_wg_full_v2_conf_p","3EJJQNKU9R668TZ8EV9H90Q2EV3RHN","30",NULL,"SUNBURN","12","MUFFIN","1","1394","muffin","12","2018-07-02 20:02:43","417438"
"A32XNYX09SMR01","cs_wg_full_v2_conf_p","3ZSANO2JCF8YVC8FYULMWPJLKIBFS3","9",NULL,"JAVELIN","6","WAFFLE","1","7537","waffle","6","2018-07-02 20:02:45","417439"
"AAXVPAK0I9PT6","cs_wg_full_v2_conf_p","3LBXNTKX0RWXQJ31PIRHL1E2WZGX9Z","23",NULL,"CHORUS","5","BIKINI","1","2503","Bikini","5","2018-07-02 20:02:49","417440"
"AECDIRXC7CBY2","cs_wg_full_v2_conf_p","3NXNZ5RS1AY3B4XA75NJR21EU6279F","17",NULL,"BULLET","8","CAMERA","1","7085","camera","8","2018-07-02 20:02:50","417441"
"AXFK8W13EYDUX","cs_wg_full_v2_conf_p","3JAOYWH7VI52QPMCBZOTA7JFPQ79LQ","27",NULL,"CARROT","5","COFFEE","0","1568","carrot","5","2018-07-02 20:02:52","417442"
"A3542PB4Z0NE80","cs_wg_full_v2_conf_p","3EJJQNKU9R668TZ8EV9H90Q2EV3RHN","31",NULL,"PARENT","4","ROYALTY","0","2214","parent","4","2018-07-02 20:02:53","417443"
"A303X7UXRA6FP2","cs_wg_full_v2_conf_p","3TE3O8573092T3WQVA6AMWK0PCM2RH","22",NULL,"CAMERA","12","TONGUE","0","2502","camera","12","2018-07-02 20:02:53","417444"
"A32XNYX09SMR01","cs_wg_full_v2_conf_p","3ZSANO2JCF8YVC8FYULMWPJLKIBFS3","10",NULL,"CHIMNEY","3","SUNBURN","1","1933","sunburn","3","2018-07-02 20:02:57","417445"
"AJJKCFQTPX1I3","cs_wg_full_v2_conf_p","3VELCLL3GKKY1S9LLB620OWCUIZF1K","3",NULL,"BABOON","4","ABDOMEN","0","9363","babboon","4","2018-07-02 20:02:59","417446"
"AAXVPAK0I9PT6","cs_wg_full_v2_conf_p","3LBXNTKX0RWXQJ31PIRHL1E2WZGX9Z","24",NULL,"FIREFLY","12","TONGUE","0","1991","Firefly","12","2018-07-02 20:02:59","417447"
"A1JH27GMNQDE6A","cs_wg_full_v2_conf_p","35H6S234SA116HHTL55A98WGDZ156P","6",NULL,"BABOON","11","CHORUS","1","3022","chorus","11","2018-07-02 20:02:59","417448"
"A3542PB4Z0NE80","cs_wg_full_v2_conf_p","3EJJQNKU9R668TZ8EV9H90Q2EV3RHN","32",NULL,"CHICKEN","11","CANNON","0","1169","chicken","11","2018-07-02 20:03:02","417449"
"AXFK8W13EYDUX","cs_wg_full_v2_conf_p","3JAOYWH7VI52QPMCBZOTA7JFPQ79LQ","28",NULL,"FACTORY","9","CARROT","0","2665","factory","9","2018-07-02 20:03:03","417450"
"AECDIRXC7CBY2","cs_wg_full_v2_conf_p","3NXNZ5RS1AY3B4XA75NJR21EU6279F","18",NULL,"THRONE","10","ADDICT","1","5998","addict","10","2018-07-02 20:03:04","417451"
"A303X7UXRA6FP2","cs_wg_full_v2_conf_p","3TE3O8573092T3WQVA6AMWK0PCM2RH","23",NULL,"BAPTISM","3","ALMOND","0","2464","baptism","3","2018-07-02 20:03:05","417452"
"A32XNYX09SMR01","cs_wg_full_v2_conf_p","3ZSANO2JCF8YVC8FYULMWPJLKIBFS3","11",NULL,"SILVER","12","BABOON","1","2015","baboon","12","2018-07-02 20:03:08","417453"
"AAXVPAK0I9PT6","cs_wg_full_v2_conf_p","3LBXNTKX0RWXQJ31PIRHL1E2WZGX9Z","25",NULL,"CHORUS","10","MAGNET","1","2267","Magnet","12","2018-07-02 20:03:10","417454"
"A3542PB4Z0NE80","cs_wg_full_v2_conf_p","3EJJQNKU9R668TZ8EV9H90Q2EV3RHN","33",NULL,"CHICKEN","11","SUMMER","0","1313","chicken","11","2018-07-02 20:03:11","417455"
"A1JH27GMNQDE6A","cs_wg_full_v2_conf_p","35H6S234SA116HHTL55A98WGDZ156P","7",NULL,"DAGGER","5","CHICKEN","0","3005","dagger","5","2018-07-02 20:03:12","417456"
"AJJKCFQTPX1I3","cs_wg_full_v2_conf_p","3VELCLL3GKKY1S9LLB620OWCUIZF1K","4",NULL,"GIRAFFE","9","PILLAR","0","4358","girraffe","9","2018-07-02 20:03:16","417457"
"A303X7UXRA6FP2","cs_wg_full_v2_conf_p","3TE3O8573092T3WQVA6AMWK0PCM2RH","24",NULL,"CAMERA","12","ALMOND","0","2726","camera","12","2018-07-02 20:03:17","417458"
"AECDIRXC7CBY2","cs_wg_full_v2_conf_p","3NXNZ5RS1AY3B4XA75NJR21EU6279F","19",NULL,"CAMERA","12","DAGGER","1","6258","dagger","12","2018-07-02 20:03:18","417459"
"AXFK8W13EYDUX","cs_wg_full_v2_conf_p","3JAOYWH7VI52QPMCBZOTA7JFPQ79LQ","29",NULL,"FACTORY","9","BUDGET","0","2663","factory","9","2018-07-02 20:03:18","417460"
"A3542PB4Z0NE80","cs_wg_full_v2_conf_p","3EJJQNKU9R668TZ8EV9H90Q2EV3RHN","34",NULL,"SILVER","9","ADDICT","0","1519","silver","9","2018-07-02 20:03:19","417461"
"A32XNYX09SMR01","cs_wg_full_v2_conf_p","3ZSANO2JCF8YVC8FYULMWPJLKIBFS3","12",NULL,"DRAGON","10","SILVER","0","3564","dragon","10","2018-07-02 20:03:21","417462"
"A1JH27GMNQDE6A","cs_wg_full_v2_conf_p","35H6S234SA116HHTL55A98WGDZ156P","8",NULL,"CAMERA","12","BABOON","0","2757","camera","12","2018-07-02 20:03:25","417463"
"A2XBG28E8AA6MW","cs_wg_full_v2_conf_p","37C0GNLMHF4WAUWM0BNT7KK8QGYD64","5",NULL,"DOLLAR","6","CABINET","1","7161","cabinet","6","2018-07-02 20:03:28","417464"
"AAXVPAK0I9PT6","cs_wg_full_v2_conf_p","3LBXNTKX0RWXQJ31PIRHL1E2WZGX9Z","26",NULL,"BIKINI","5","FIREFLY","0","3633","Bikini","5","2018-07-02 20:03:29","417465"
"A3542PB4Z0NE80","cs_wg_full_v2_conf_p","3EJJQNKU9R668TZ8EV9H90Q2EV3RHN","35",NULL,"CANNON","8","SUNBURN","1","2106","sunburn","8","2018-07-02 20:03:30","417466"
"AXFK8W13EYDUX","cs_wg_full_v2_conf_p","3JAOYWH7VI52QPMCBZOTA7JFPQ79LQ","30",NULL,"PRIEST","1","SCIENCE","0","2424","priest","1","2018-07-02 20:03:30","417467"
"A32XNYX09SMR01","cs_wg_full_v2_conf_p","3ZSANO2JCF8YVC8FYULMWPJLKIBFS3","13",NULL,"JAVELIN","1","CHIMNEY","1","2029","chimney","1","2018-07-02 20:03:32","417468"
"A303X7UXRA6FP2","cs_wg_full_v2_conf_p","3TE3O8573092T3WQVA6AMWK0PCM2RH","25",NULL,"CAMERA","4","COFFEE","1","5736","coffee","4","2018-07-02 20:03:33","417469"
"AECDIRXC7CBY2","cs_wg_full_v2_conf_p","3NXNZ5RS1AY3B4XA75NJR21EU6279F","20",NULL,"SPIRAL","11","CANVAS","0","4330","spiral","11
11","2018-07-02 20:03:35","417470"
"A1JH27GMNQDE6A","cs_wg_full_v2_conf_p","35H6S234SA116HHTL55A98WGDZ156P","9",NULL,"DAGGER","5","BABOON","0","2750","dagger","5","2018-07-02 20:03:37","417471"
"A3542PB4Z0NE80","cs_wg_full_v2_conf_p","3EJJQNKU9R668TZ8EV9H90Q2EV3RHN","36",NULL,"THRONE","4","PARENT","1","1760","parent","4","2018-07-02 20:03:38","417472"
"AJJKCFQTPX1I3","cs_wg_full_v2_conf_p","3VELCLL3GKKY1S9LLB620OWCUIZF1K","5",NULL,"ABDOMEN","7","EARDRUM","1","9139","eardrum","7","2018-07-02 20:03:40","417473"
"AXFK8W13EYDUX","cs_wg_full_v2_conf_p","3JAOYWH7VI52QPMCBZOTA7JFPQ79LQ","31",NULL,"GOGGLES","3","CARROT","0","3083","goggles","3","2018-07-02 20:03:40","417474"
"A303X7UXRA6FP2","cs_wg_full_v2_conf_p","3TE3O8573092T3WQVA6AMWK0PCM2RH","26",NULL,"TONGUE","11","TURKEY","1","2912","turkey","11","2018-07-02 20:03:45","417475"
"AECDIRXC7CBY2","cs_wg_full_v2_conf_p","3NXNZ5RS1AY3B4XA75NJR21EU6279F","21",NULL,"CANVAS","3","COFFEE","0","2177","canvas","3","2018-07-02 20:03:45","417476"
"A3542PB4Z0NE80","cs_wg_full_v2_conf_p","3EJJQNKU9R668TZ8EV9H90Q2EV3RHN","37",NULL,"THRONE","7","CHORUS","1","1356","chorus","7","2018-07-02 20:03:47","417477"
"A32XNYX09SMR01","cs_wg_full_v2_conf_p","3ZSANO2JCF8YVC8FYULMWPJLKIBFS3","14",NULL,"DRAGON","10","CHORUS","0","2048","dragon","10","2018-07-02 20:03:48","417478"
"AAXVPAK0I9PT6","cs_wg_full_v2_conf_p","3LBXNTKX0RWXQJ31PIRHL1E2WZGX9Z","27",NULL,"ABDOMEN","6","THRONE","1","9859","Throne","8","2018-07-02 20:03:49","417479"
"A1JH27GMNQDE6A","cs_wg_full_v2_conf_p","35H6S234SA116HHTL55A98WGDZ156P","10",NULL,"GIRAFFE","4","DAGGER","0","2928","giraffe","4","2018-07-02 20:03:51","417480"
"AXFK8W13EYDUX","cs_wg_full_v2_conf_p","3JAOYWH7VI52QPMCBZOTA7JFPQ79LQ","32",NULL,"COFFEE","7","MONKEY","1","2331","monkey","7","2018-07-02 20:03:51","417481"
"A3542PB4Z0NE80","cs_wg_full_v2_conf_p","3EJJQNKU9R668TZ8EV9H90Q2EV3RHN","38",NULL,"ADDICT","12","MUFFIN","1","1434","muffin","12","2018-07-02 20:03:55","417482"
"AECDIRXC7CBY2","cs_wg_full_v2_conf_p","3NXNZ5RS1AY3B4XA75NJR21EU6279F","22",NULL,"THRONE","8","CAMERA","1","2682","camera","8","2018-07-02 20:03:56","417483"
"A303X7UXRA6FP2","cs_wg_full_v2_conf_p","3TE3O8573092T3WQVA6AMWK0PCM2RH","27",NULL,"JAVELIN","12","CAMERA","1","3771","camera","12","2018-07-02 20:03:57","417484"
"A2XBG28E8AA6MW","cs_wg_full_v2_conf_p","37C0GNLMHF4WAUWM0BNT7KK8QGYD64","6",NULL,"HERMIT","7","CASINO","1","4690","casino","7","2018-07-02 20:03:57","417485"
"A32XNYX09SMR01","cs_wg_full_v2_conf_p","3ZSANO2JCF8YVC8FYULMWPJLKIBFS3","15",NULL,"ADDICT","11","WAFFLE","0","2206","addict","11","2018-07-02 20:04:00","417486"
"AJJKCFQTPX1I3","cs_wg_full_v2_conf_p","3VELCLL3GKKY1S9LLB620OWCUIZF1K","6",NULL,"BAGPIPE","7","EARDRUM","1","7061","eardrum","7","2018-07-02 20:04:02","417487"
"A3542PB4Z0NE80","cs_wg_full_v2_conf_p","3EJJQNKU9R668TZ8EV9H90Q2EV3RHN","39",NULL,"SUMMER","9","SILVER","1","1440","silver","9","2018-07-02 20:04:04","417488"
"A1JH27GMNQDE6A","cs_wg_full_v2_conf_p","35H6S234SA116HHTL55A98WGDZ156P","11",NULL,"CAMERA","8","SUNBURN","1","4368","sunburn","8","2018-07-02 20:04:05","417489"
"AAXVPAK0I9PT6","cs_wg_full_v2_conf_p","3LBXNTKX0RWXQJ31PIRHL1E2WZGX9Z","28",NULL,"PRIEST","12","FIREFLY","1","1894","Firefly","12","2018-07-02 20:04:06","417490"
"AECDIRXC7CBY2","cs_wg_full_v2_conf_p","3NXNZ5RS1AY3B4XA75NJR21EU6279F","23",NULL,"ANIMAL","5","MONKEY","0","2866","animal","5","2018-07-02 20:04:07","417491"
"AXFK8W13EYDUX","cs_wg_full_v2_conf_p","3JAOYWH7VI52QPMCBZOTA7JFPQ79LQ","33",NULL,"MONKEY","12","SCIENCE","1","9381","science","12","2018-07-02 20:04:11","417492"
"A303X7UXRA6FP2","cs_wg_full_v2_conf_p","3TE3O8573092T3WQVA6AMWK0PCM2RH","28",NULL,"FIREMAN","7","JAVELIN","1","3240","javelin","7","2018-07-02 20:04:12","417493"
"A3542PB4Z0NE80","cs_wg_full_v2_conf_p","3EJJQNKU9R668TZ8EV9H90Q2EV3RHN","40",NULL,"ADDICT","6","SUMMER","0","1794","addict","6","2018-07-02 20:04:13","417494"
"A32XNYX09SMR01","cs_wg_full_v2_conf_p","3ZSANO2JCF8YVC8FYULMWPJLKIBFS3","16",NULL,"DRAGON","11","ADDICT","1","2889","addict","11","2018-07-02 20:04:15","417495"
"AAXVPAK0I9PT6","cs_wg_full_v2_conf_p","3LBXNTKX0RWXQJ31PIRHL1E2WZGX9Z","29",NULL,"BIKINI","4","SILVER","1","1709","Silver","4","2018-07-02 20:04:16","417496"
"A1JH27GMNQDE6A","cs_wg_full_v2_conf_p","35H6S234SA116HHTL55A98WGDZ156P","12",NULL,"CHORUS","11","GIRAFFE","0","2353","chorus","11","2018-07-02 20:04:17","417497"
"AECDIRXC7CBY2","cs_wg_full_v2_conf_p","3NXNZ5RS1AY3B4XA75NJR21EU6279F","24",NULL,"BULLET","10","ADDICT","1","2902","addict","10","2018-07-02 20:04:18","417498"
"A2XBG28E8AA6MW","cs_wg_full_v2_conf_p","37C0GNLMHF4WAUWM0BNT7KK8QGYD64","7",NULL,"PICTURE","6","CABINET","1","2620","cabinet","6","2018-07-02 20:04:18","417499"
"A3IZBLUBBAYCQN","cs_wg_full_v2_conf_p","3OSWBBLG1EY9T9GI1YWJ7XXSNKWXDH","0",NULL,"FIREFLY","1","BATTERY","0","7359","Firefly","1","2018-07-02 20:04:19","417500"
"AJJKCFQTPX1I3","cs_wg_full_v2_conf_p","3VELCLL3GKKY1S9LLB620OWCUIZF1K","7",NULL,"ABDOMEN","11","BAGPIPE","1","4614","bagpipe","11","2018-07-02 20:04:22","417501"
"A1I6FBVN7DY49L","cs_wg_full_v2_conf_p","3LUY3GC63Z1O3RDHOUJGDS1TZAK7PA","0",NULL,"ANIMAL","3","CASINO","1","8269","casino","3","2018-07-02 20:04:22","417502"
"A3542PB4Z0NE80","cs_wg_full_v2_conf_p","3EJJQNKU9R668TZ8EV9H90Q2EV3RHN","41",NULL,"THRONE","11","CHICKEN","1","1811","chicken","11","2018-07-02 20:04:22","417503"
"A303X7UXRA6FP2","cs_wg_full_v2_conf_p","3TE3O8573092T3WQVA6AMWK0PCM2RH","29",NULL,"COFFEE","10","CANVAS","1","3215","canvas","10","2018-07-02 20:04:24","417504"
"AXFK8W13EYDUX","cs_wg_full_v2_conf_p","3JAOYWH7VI52QPMCBZOTA7JFPQ79LQ","34",NULL,"SPATULA","10","SHIVER","0","2758","spatula","10","2018-07-02 20:04:25","417505"
"AECDIRXC7CBY2","cs_wg_full_v2_conf_p","3NXNZ5RS1AY3B4XA75NJR21EU6279F","25",NULL,"THRONE","4","BULLET","0","2527","throne","4","2018-07-02 20:04:27","417506"
"A32XNYX09SMR01","cs_wg_full_v2_conf_p","3ZSANO2JCF8YVC8FYULMWPJLKIBFS3","17",NULL,"FRIEND","4","ADDICT","0","3812","friend","4","2018-07-02 20:04:29","417507"
"AAXVPAK0I9PT6","cs_wg_full_v2_conf_p","3LBXNTKX0RWXQJ31PIRHL1E2WZGX9Z","30",NULL,"MAGNET","6","THRONE","1","3168","Throne","6","2018-07-02 20:04:29","417508"
"A3542PB4Z0NE80","cs_wg_full_v2_conf_p","3EJJQNKU9R668TZ8EV9H90Q2EV3RHN","42",NULL,"SUNBURN","8","PARENT","0","1571","sunburn","8","2018-07-02 20:04:32","417509"
"A1JH27GMNQDE6A","cs_wg_full_v2_conf_p","35H6S234SA116HHTL55A98WGDZ156P","13",NULL,"CAMERA","10","ROYALTY","1","5858","royalty","10","2018-07-02 20:04:34","417510"
"AXFK8W13EYDUX","cs_wg_full_v2_conf_p","3JAOYWH7VI52QPMCBZOTA7JFPQ79LQ","35",NULL,"SPATULA","10","CARROT","0","1376","spatula","10","2018-07-02 20:04:34","417511"
"A3IZBLUBBAYCQN","cs_wg_full_v2_conf_p","3OSWBBLG1EY9T9GI1YWJ7XXSNKWXDH","1",NULL,"ADDICT","11","DAGGER","1","3339","dagger","11","2018-07-02 20:04:36","417512"
"AECDIRXC7CBY2","cs_wg_full_v2_conf_p","3NXNZ5RS1AY3B4XA75NJR21EU6279F","26",NULL,"SUNBURN","10","ADDICT","1","3303","addict","10","2018-07-02 20:04:38","417513"
"AJJKCFQTPX1I3","cs_wg_full_v2_conf_p","3VELCLL3GKKY1S9LLB620OWCUIZF1K","8",NULL,"DAGGER","1","EARDRUM","0","4150","daggar","1","2018-07-02 20:04:39","417514"
"AAXVPAK0I9PT6","cs_wg_full_v2_conf_p","3LBXNTKX0RWXQJ31PIRHL1E2WZGX9Z","31",NULL,"PUMPKIN","9","ABDOMEN","0","2745","Pumpkin","9","2018-07-02 20:04:40","417515"
"A303X7UXRA6FP2","cs_wg_full_v2_conf_p","3TE3O8573092T3WQVA6AMWK0PCM2RH","30",NULL,"COFFEE","7","JAVELIN","1","8745","javelin","7","2018-07-02 20:04:41","417516"
"A3542PB4Z0NE80","cs_wg_full_v2_conf_p","3EJJQNKU9R668TZ8EV9H90Q2EV3RHN","43",NULL,"ROYALTY","3","THRONE","0","1746","royalty","3","2018-07-02 20:04:41","417517"
"A1I6FBVN7DY49L","cs_wg_full_v2_conf_p","3LUY3GC63Z1O3RDHOUJGDS1TZAK7PA","1",NULL,"SMOKER","1","SPIRAL","0","3194","smoker","1","2018-07-02 20:04:41","417518"
"A2XBG28E8AA6MW","cs_wg_full_v2_conf_p","37C0GNLMHF4WAUWM0BNT7KK8QGYD64","8",NULL,"BEAVER","10","PICTURE","0","4182","beaver","10","2018-07-02 20:04:42","417519"
"A32XNYX09SMR01","cs_wg_full_v2_conf_p","3ZSANO2JCF8YVC8FYULMWPJLKIBFS3","18",NULL,"SUNBURN","7","SMOKER","1","4261","smoker","7","2018-07-02 20:04:42","417520"
"AXFK8W13EYDUX","cs_wg_full_v2_conf_p","3JAOYWH7VI52QPMCBZOTA7JFPQ79LQ","36",NULL,"ADDICT","8","ANIMAL","1","4757","animal","8","2018-07-02 20:04:46","417521"
"A1JH27GMNQDE6A","cs_wg_full_v2_conf_p","35H6S234SA116HHTL55A98WGDZ156P","14",NULL,"CAMERA","12","DAGGER","0","2810","camera","12","2018-07-02 20:04:47","417522"
"AECDIRXC7CBY2","cs_wg_full_v2_conf_p","3NXNZ5RS1AY3B4XA75NJR21EU6279F","27",NULL,"PLANET","6","BULLET","0","2750","planet","6","2018-07-02 20:04:49","417523"
"A3542PB4Z0NE80","cs_wg_full_v2_conf_p","3EJJQNKU9R668TZ8EV9H90Q2EV3RHN","44",NULL,"CHORUS","12","MUFFIN","1","1398","muffin","12","2018-07-02 20:04:49","417524"
"AAXVPAK0I9PT6","cs_wg_full_v2_conf_p","3LBXNTKX0RWXQJ31PIRHL1E2WZGX9Z","32",NULL,"ABDOMEN","9","PUMPKIN","1","1619","Pumpkin","9","2018-07-02 20:04:49","417525"
"A3IZBLUBBAYCQN","cs_wg_full_v2_conf_p","3OSWBBLG1EY9T9GI1YWJ7XXSNKWXDH","2",NULL,"SMOKER","9","BARREL","0","2788","smoker","9","2018-07-02 20:04:53","417526"
"A32XNYX09SMR01","cs_wg_full_v2_conf_p","3ZSANO2JCF8YVC8FYULMWPJLKIBFS3","19",NULL,"ADDICT","12","BABOON","1","3193","baboon","12","2018-07-02 20:04:57","417527"
"A1I6FBVN7DY49L","cs_wg_full_v2_conf_p","3LUY3GC63Z1O3RDHOUJGDS1TZAK7PA","2",NULL,"BAKERY","3","CASINO","1","6851","casino","3","2018-07-02 20:04:58","417528"
"AJJKCFQTPX1I3","cs_wg_full_v2_conf_p","3VELCLL3GKKY1S9LLB620OWCUIZF1K","9",NULL,"GIRAFFE","9","BABOON","0","5405","girraffe","9","2018-07-02 20:04:58","417529"
"AAXVPAK0I9PT6","cs_wg_full_v2_conf_p","3LBXNTKX0RWXQJ31PIRHL1E2WZGX9Z","33",NULL,"MAGNET","1","SUNBURN","1","2159","Sunburn","1","2018-07-02 20:04:58","417530"
"AXFK8W13EYDUX","cs_wg_full_v2_conf_p","3JAOYWH7VI52QPMCBZOTA7JFPQ79LQ","37",NULL,"ADDICT","7","MONKEY","1","2288","monkey","7","2018-07-02 20:04:58","417531"
"A3542PB4Z0NE80","cs_wg_full_v2_conf_p","3EJJQNKU9R668TZ8EV9H90Q2EV3RHN","45",NULL,"SILVER","12","MUFFIN","1","1311","muffin","12","2018-07-02 20:04:59","417532"
"A1JH27GMNQDE6A","cs_wg_full_v2_conf_p","35H6S234SA116HHTL55A98WGDZ156P","15",NULL,"TENNIS","3","SUMMER","1","3306","summer","3","2018-07-02 20:04:59","417533"
"A303X7UXRA6FP2","cs_wg_full_v2_conf_p","3TE3O8573092T3WQVA6AMWK0PCM2RH","31",NULL,"SPATULA","9","CHORUS","0","7110","spatula","9","2018-07-02 20:05:01","417534"
"A2XBG28E8AA6MW","cs_wg_full_v2_conf_p","37C0GNLMHF4WAUWM0BNT7KK8QGYD64","9",NULL,"DOLLAR","9","HERMIT","0","2940","dollar","9","2018-07-02 20:05:02","417535"
"AECDIRXC7CBY2","cs_wg_full_v2_conf_p","3NXNZ5RS1AY3B4XA75NJR21EU6279F","28",NULL,"DAGGER","12","MONKEY","0","4360","dagger","12","2018-07-02 20:05:03","417536"
"AXFK8W13EYDUX","cs_wg_full_v2_conf_p","3JAOYWH7VI52QPMCBZOTA7JFPQ79LQ","38",NULL,"SHIVER","6","BUDGET","0","2156","shiver","6","2018-07-02 20:05:09","417537"
"A3IZBLUBBAYCQN","cs_wg_full_v2_conf_p","3OSWBBLG1EY9T9GI1YWJ7XXSNKWXDH","3",NULL,"FIREFLY","3","BARREL","1","3303","barrel","3","2018-07-02 20:05:09","417538"
"A3542PB4Z0NE80","cs_wg_full_v2_conf_p","3EJJQNKU9R668TZ8EV9H90Q2EV3RHN","46",NULL,"SUMMER","7","CHORUS","1","1904","chorus","7","2018-07-02 20:05:09","417539"
"A32XNYX09SMR01","cs_wg_full_v2_conf_p","3ZSANO2JCF8YVC8FYULMWPJLKIBFS3","20",NULL,"ANIMAL","5","CHORUS","0","3664","animal","5","2018-07-02 20:05:12","417540"
"AAXVPAK0I9PT6","cs_wg_full_v2_conf_p","3LBXNTKX0RWXQJ31PIRHL1E2WZGX9Z","34",NULL,"THRONE","6","BIKINI","0","2550","Throne","6","2018-07-02 20:05:13","417541"
"A1JH27GMNQDE6A","cs_wg_full_v2_conf_p","35H6S234SA116HHTL55A98WGDZ156P","16",NULL,"SUNBURN","8","DAGGER","0","3667","sunburn","8","2018-07-02 20:05:13","417542"
"AJJKCFQTPX1I3","cs_wg_full_v2_conf_p","3VELCLL3GKKY1S9LLB620OWCUIZF1K","10",NULL,"BAGPIPE","8","FRIEND","1","3402","friend","8","2018-07-02 20:05:13","417543"
"AECDIRXC7CBY2","cs_wg_full_v2_conf_p","3NXNZ5RS1AY3B4XA75NJR21EU6279F","29",NULL,"ANIMAL","11","SPIRAL","1","3035","spiral","11
11","2018-07-02 20:05:15","417544"
"A303X7UXRA6FP2","cs_wg_full_v2_conf_p","3TE3O8573092T3WQVA6AMWK0PCM2RH","32",NULL,"COFFEE","12","CAMERA","1","4684","coffee","12","2018-07-02 20:05:15","417545"
"A1I6FBVN7DY49L","cs_wg_full_v2_conf_p","3LUY3GC63Z1O3RDHOUJGDS1TZAK7PA","3",NULL,"BAKERY","10","GOGGLES","0","3637","bakery","10","2018-07-02 20:05:16","417546"
"AXFK8W13EYDUX","cs_wg_full_v2_conf_p","3JAOYWH7VI52QPMCBZOTA7JFPQ79LQ","39",NULL,"GOGGLES","9","FACTORY","1","1816","factory","9","2018-07-02 20:05:17","417547"
"A3542PB4Z0NE80","cs_wg_full_v2_conf_p","3EJJQNKU9R668TZ8EV9H90Q2EV3RHN","47",NULL,"CANNON","11","CHICKEN","1","1164","chicken","11","2018-07-02 20:05:18","417548"
"AAXVPAK0I9PT6","cs_wg_full_v2_conf_p","3LBXNTKX0RWXQJ31PIRHL1E2WZGX9Z","35",NULL,"SUNBURN","1","ABDOMEN","0","1370","Sunburn","1","2018-07-02 20:05:21","417549"
"A32XNYX09SMR01","cs_wg_full_v2_conf_p","3ZSANO2JCF8YVC8FYULMWPJLKIBFS3","21",NULL,"CHIMNEY","12","BABOON","1","3960","baboon","12","2018-07-02 20:05:24","417550"
"A3IZBLUBBAYCQN","cs_wg_full_v2_conf_p","3OSWBBLG1EY9T9GI1YWJ7XXSNKWXDH","4",NULL,"SILVER","7","BARREL","0","3426","silver","7","2018-07-02 20:05:25","417551"
"AXFK8W13EYDUX","cs_wg_full_v2_conf_p","3JAOYWH7VI52QPMCBZOTA7JFPQ79LQ","40",NULL,"ADDICT","3","GOGGLES","1","2089","goggles","3","2018-07-02 20:05:26","417552"
"A3542PB4Z0NE80","cs_wg_full_v2_conf_p","3EJJQNKU9R668TZ8EV9H90Q2EV3RHN","48",NULL,"THRONE","6","ADDICT","1","1823","addict","6","2018-07-02 20:05:27","417553"
"A303X7UXRA6FP2","cs_wg_full_v2_conf_p","3TE3O8573092T3WQVA6AMWK0PCM2RH","33",NULL,"TONGUE","6","COFFEE","0","2712","tongue","6","2018-07-02 20:05:27","417554"
"AJJKCFQTPX1I3","cs_wg_full_v2_conf_p","3VELCLL3GKKY1S9LLB620OWCUIZF1K","11",NULL,"SUNBURN","2","DAGGER","0","3820","sunburn","2","2018-07-02 20:05:29","417555"
"A1JH27GMNQDE6A","cs_wg_full_v2_conf_p","35H6S234SA116HHTL55A98WGDZ156P","17",NULL,"ROYALTY","10","GIRAFFE","0","5598","royalty","10","2018-07-02 20:05:29","417556"
"A1I6FBVN7DY49L","cs_wg_full_v2_conf_p","3LUY3GC63Z1O3RDHOUJGDS1TZAK7PA","4",NULL,"CHIMNEY","9","BAKERY","0","4273","chimney ","9","2018-07-02 20:05:30","417557"
"AAXVPAK0I9PT6","cs_wg_full_v2_conf_p","3LBXNTKX0RWXQJ31PIRHL1E2WZGX9Z","36",NULL,"DOLLAR","12","FIREFLY","1","1974","Firefly","12","2018-07-02 20:05:31","417558"
"AECDIRXC7CBY2","cs_wg_full_v2_conf_p","3NXNZ5RS1AY3B4XA75NJR21EU6279F","30",NULL,"SPIRAL","12","DAGGER","1","7591","dagger","12","2018-07-02 20:05:31","417559"
"A2XBG28E8AA6MW","cs_wg_full_v2_conf_p","37C0GNLMHF4WAUWM0BNT7KK8QGYD64","10",NULL,"BABOON","3","PICTURE","0","3230","baboon","3","2018-07-02 20:05:35","417560"
"A32XNYX09SMR01","cs_wg_full_v2_conf_p","3ZSANO2JCF8YVC8FYULMWPJLKIBFS3","22",NULL,"WAFFLE","6","SUNBURN","0","1842","waffle","6","2018-07-02 20:05:36","417561"
"AXFK8W13EYDUX","cs_wg_full_v2_conf_p","3JAOYWH7VI52QPMCBZOTA7JFPQ79LQ","41",NULL,"ADDICT","11","SCIENCE","0","3444","addict","11","2018-07-02 20:05:37","417562"
"A3542PB4Z0NE80","cs_wg_full_v2_conf_p","3EJJQNKU9R668TZ8EV9H90Q2EV3RHN","49",NULL,"SUMMER","8","SUNBURN","1","1603","sunburn","8","2018-07-02 20:05:37","417563"
"AECDIRXC7CBY2","cs_wg_full_v2_conf_p","3NXNZ5RS1AY3B4XA75NJR21EU6279F","31",NULL,"MONKEY","2","BULLET","0","2753","monkey","2","2018-07-02 20:05:41","417564"
"AAXVPAK0I9PT6","cs_wg_full_v2_conf_p","3LBXNTKX0RWXQJ31PIRHL1E2WZGX9Z","37",NULL,"DOLLAR","11","BIKINI","0","2362","Dollar","11","2018-07-02 20:05:41","417565"
"A3IZBLUBBAYCQN","cs_wg_full_v2_conf_p","3OSWBBLG1EY9T9GI1YWJ7XXSNKWXDH","5",NULL,"BANQUET","5","PLANET","1","3554","planet","5","2018-07-02 20:05:43","417566"
"A1I6FBVN7DY49L","cs_wg_full_v2_conf_p","3LUY3GC63Z1O3RDHOUJGDS1TZAK7PA","5",NULL,"HEAVEN","7","ANIMAL","1","4247","animal","7","2018-07-02 20:05:44","417567"
"A3542PB4Z0NE80","cs_wg_full_v2_conf_p","3EJJQNKU9R668TZ8EV9H90Q2EV3RHN","50",NULL,"PARENT","11","CHICKEN","1","1706","chicken","11","2018-07-02 20:05:46","417568"
"AXFK8W13EYDUX","cs_wg_full_v2_conf_p","3JAOYWH7VI52QPMCBZOTA7JFPQ79LQ","42",NULL,"MONKEY","7","GOGGLES","0","2204","monkey","7","2018-07-02 20:05:47","417569"
"A303X7UXRA6FP2","cs_wg_full_v2_conf_p","3TE3O8573092T3WQVA6AMWK0PCM2RH","34",NULL,"SPATULA","8","SCIENCE","1","11164","science","8","2018-07-02 20:05:47","417570"
"AJJKCFQTPX1I3","cs_wg_full_v2_conf_p","3VELCLL3GKKY1S9LLB620OWCUIZF1K","12",NULL,"CHICKEN","5","BABOON","0","7883","chicken","5","2018-07-02 20:05:48","417571"
"A32XNYX09SMR01","cs_wg_full_v2_conf_p","3ZSANO2JCF8YVC8FYULMWPJLKIBFS3","23",NULL,"SUNBURN","6","WAFFLE","1","3474","waffle","6","2018-07-02 20:05:49","417572"
"A1JH27GMNQDE6A","cs_wg_full_v2_conf_p","35H6S234SA116HHTL55A98WGDZ156P","18",NULL,"CHICKEN","9","SUNBURN","0","10965","chicken","9","2018-07-02 20:05:50","417573"
"A2XBG28E8AA6MW","cs_wg_full_v2_conf_p","37C0GNLMHF4WAUWM0BNT7KK8QGYD64","11",NULL,"CASINO","7","CHURCH","0","2558","casino","7","2018-07-02 20:05:54","417574"
"AAXVPAK0I9PT6","cs_wg_full_v2_conf_p","3LBXNTKX0RWXQJ31PIRHL1E2WZGX9Z","38",NULL,"TONGUE","7","THRONE","0","1814","Tongue","7","2018-07-02 20:05:55","417575"
"A3542PB4Z0NE80","cs_wg_full_v2_conf_p","3EJJQNKU9R668TZ8EV9H90Q2EV3RHN","51",NULL,"SUMMER","2","PARENT","0","3919","summer","2","2018-07-02 20:05:57","417576"
"AECDIRXC7CBY2","cs_wg_full_v2_conf_p","3NXNZ5RS1AY3B4XA75NJR21EU6279F","32",NULL,"SUNBURN","12","DAGGER","1","6107","dagger","12","2018-07-02 20:05:57","417577"
"AXFK8W13EYDUX","cs_wg_full_v2_conf_p","3JAOYWH7VI52QPMCBZOTA7JFPQ79LQ","43",NULL,"BUDGET","4","ADDICT","0","2448","budget","4","2018-07-02 20:05:57","417578"
"A303X7UXRA6FP2","cs_wg_full_v2_conf_p","3TE3O8573092T3WQVA6AMWK0PCM2RH","35",NULL,"TONGUE","6","JAVELIN","0","2111","tongue","6","2018-07-02 20:05:57","417579"
"A3IZBLUBBAYCQN","cs_wg_full_v2_conf_p","3OSWBBLG1EY9T9GI1YWJ7XXSNKWXDH","6",NULL,"SILVER","2","ADDICT","1","3654","addict","2","2018-07-02 20:05:58","417580"
"A32XNYX09SMR01","cs_wg_full_v2_conf_p","3ZSANO2JCF8YVC8FYULMWPJLKIBFS3","24",NULL,"CHORUS","9","CHIMNEY","0","2180","chorus","9","2018-07-02 20:06:01","417581"
"A1I6FBVN7DY49L","cs_wg_full_v2_conf_p","3LUY3GC63Z1O3RDHOUJGDS1TZAK7PA","6",NULL,"BALCONY","6","SMOKER","0","5280","balcony ","6","2018-07-02 20:06:02","417582"
"AAXVPAK0I9PT6","cs_wg_full_v2_conf_p","3LBXNTKX0RWXQJ31PIRHL1E2WZGX9Z","39",NULL,"TONGUE","8","PRIEST","1","1789","Priest","8","2018-07-02 20:06:04","417583"
"A1JH27GMNQDE6A","cs_wg_full_v2_conf_p","35H6S234SA116HHTL55A98WGDZ156P","19",NULL,"SUNBURN","8","GIRAFFE","0","2766","sunburn","8","2018-07-02 20:06:05","417584"
"AXFK8W13EYDUX","cs_wg_full_v2_conf_p","3JAOYWH7VI52QPMCBZOTA7JFPQ79LQ","44",NULL,"CARROT","5","PRIEST","0","3608","carrot","5","2018-07-02 20:06:07","417585"
"A3542PB4Z0NE80","cs_wg_full_v2_conf_p","3EJJQNKU9R668TZ8EV9H90Q2EV3RHN","52",NULL,"TONGUE","12","MUFFIN","1","2316","muffin","12","2018-07-02 20:06:07","417586"
"A303X7UXRA6FP2","cs_wg_full_v2_conf_p","3TE3O8573092T3WQVA6AMWK0PCM2RH","36",NULL,"CHORUS","1","ALMOND","0","2111","chorus","1","2018-07-02 20:06:08","417587"
"AECDIRXC7CBY2","cs_wg_full_v2_conf_p","3NXNZ5RS1AY3B4XA75NJR21EU6279F","33",NULL,"COFFEE","11","SPIRAL","1","3101","spiral","11","2018-07-02 20:06:08","417588"
"A32XNYX09SMR01","cs_wg_full_v2_conf_p","3ZSANO2JCF8YVC8FYULMWPJLKIBFS3","25",NULL,"SMOKER","10","DRAGON","1","2336","dragon","10","2018-07-02 20:06:12","417589"
"A1I6FBVN7DY49L","cs_wg_full_v2_conf_p","3LUY3GC63Z1O3RDHOUJGDS1TZAK7PA","7",NULL,"GOGGLES","4","BUDGET","1","2426","budget ","4","2018-07-02 20:06:13","417590"
"AAXVPAK0I9PT6","cs_wg_full_v2_conf_p","3LBXNTKX0RWXQJ31PIRHL1E2WZGX9Z","40",NULL,"PUMPKIN","9","TONGUE","0","1877","Pumpkin","9","2018-07-02 20:06:14","417591"
"A3IZBLUBBAYCQN","cs_wg_full_v2_conf_p","3OSWBBLG1EY9T9GI1YWJ7XXSNKWXDH","7",NULL,"SMOKER","9","ADDICT","0","3078","smoker","9","2018-07-02 20:06:16","417592"
"A3542PB4Z0NE80","cs_wg_full_v2_conf_p","3EJJQNKU9R668TZ8EV9H90Q2EV3RHN","53",NULL,"CANNON","12","MUFFIN","1","1236","muffin","12","2018-07-02 20:06:16","417593"
"AECDIRXC7CBY2","cs_wg_full_v2_conf_p","3NXNZ5RS1AY3B4XA75NJR21EU6279F","34",NULL,"MONKEY","8","CAMERA","1","3015","camera","8","2018-07-02 20:06:18","417594"
"A2XBG28E8AA6MW","cs_wg_full_v2_conf_p","37C0GNLMHF4WAUWM0BNT7KK8QGYD64","12",NULL,"CHURCH","5","BABOON","0","3809","church","5","2018-07-02 20:06:20","417595"
"A1JH27GMNQDE6A","cs_wg_full_v2_conf_p","35H6S234SA116HHTL55A98WGDZ156P","20",NULL,"CASINO","7","ROYALTY","0","3749","casino","7","2018-07-02 20:06:20","417596"
"A303X7UXRA6FP2","cs_wg_full_v2_conf_p","3TE3O8573092T3WQVA6AMWK0PCM2RH","37",NULL,"JAVELIN","10","CANVAS","1","5065","canvas","10","2018-07-02 20:06:21","417597"
"AAXVPAK0I9PT6","cs_wg_full_v2_conf_p","3LBXNTKX0RWXQJ31PIRHL1E2WZGX9Z","41",NULL,"PUMPKIN","8","PRIEST","1","1453","Priest","8","2018-07-02 20:06:22","417598"
"AJJKCFQTPX1I3","cs_wg_full_v2_conf_p","3VELCLL3GKKY1S9LLB620OWCUIZF1K","13",NULL,"BABOON","4","PILLAR","0","7584","baboone","4","2018-07-02 20:06:23","417599"
"A32XNYX09SMR01","cs_wg_full_v2_conf_p","3ZSANO2JCF8YVC8FYULMWPJLKIBFS3","26",NULL,"SILVER","11","ADDICT","1","3168","addict","12","2018-07-02 20:06:25","417600"
"AXFK8W13EYDUX","cs_wg_full_v2_conf_p","3JAOYWH7VI52QPMCBZOTA7JFPQ79LQ","45",NULL,"FACTORY","9","GOGGLES","0","7272","factory","9","2018-07-02 20:06:26","417601"
"A3542PB4Z0NE80","cs_wg_full_v2_conf_p","3EJJQNKU9R668TZ8EV9H90Q2EV3RHN","54",NULL,"CHORUS","7","CANNON","0","1641","chorus","7","2018-07-02 20:06:27","417602"
"AECDIRXC7CBY2","cs_wg_full_v2_conf_p","3NXNZ5RS1AY3B4XA75NJR21EU6279F","35",NULL,"CAMERA","10","ADDICT","1","2382","addict","10","2018-07-02 20:06:27","417603"
"A1I6FBVN7DY49L","cs_wg_full_v2_conf_p","3LUY3GC63Z1O3RDHOUJGDS1TZAK7PA","8",NULL,"CASINO","7","ANIMAL","1","7147","animal ","7","2018-07-02 20:06:28","417604"
"A3IZBLUBBAYCQN","cs_wg_full_v2_conf_p","3OSWBBLG1EY9T9GI1YWJ7XXSNKWXDH","8",NULL,"BARREL","10","BALCONY","1","3263","balcony","10","2018-07-02 20:06:31","417605"
"AAXVPAK0I9PT6","cs_wg_full_v2_conf_p","3LBXNTKX0RWXQJ31PIRHL1E2WZGX9Z","42",NULL,"CHORUS","8","PRIEST","1","953","Priest","8","2018-07-02 20:06:33","417606"
"A303X7UXRA6FP2","cs_wg_full_v2_conf_p","3TE3O8573092T3WQVA6AMWK0PCM2RH","38",NULL,"SPATULA","9","COFFEE","0","3577","spatula","9","2018-07-02 20:06:34","417607"
"AXFK8W13EYDUX","cs_wg_full_v2_conf_p","3JAOYWH7VI52QPMCBZOTA7JFPQ79LQ","46",NULL,"ANIMAL","7","MONKEY","1","1831","monkey","7","2018-07-02 20:06:35","417608"
"A1JH27GMNQDE6A","cs_wg_full_v2_conf_p","35H6S234SA116HHTL55A98WGDZ156P","21",NULL,"GIRAFFE","8","SUNBURN","1","7098","sunburn","8","2018-07-02 20:06:36","417609"
"A32XNYX09SMR01","cs_wg_full_v2_conf_p","3ZSANO2JCF8YVC8FYULMWPJLKIBFS3","27",NULL,"ADDICT","11","JAVELIN","0","2040","addict","11","2018-07-02 20:06:36","417610"
"A3542PB4Z0NE80","cs_wg_full_v2_conf_p","3EJJQNKU9R668TZ8EV9H90Q2EV3RHN","55",NULL,"ADDICT","8","SUNBURN","1","3370","sunburn","8","2018-07-02 20:06:37","417611"
"AECDIRXC7CBY2","cs_wg_full_v2_conf_p","3NXNZ5RS1AY3B4XA75NJR21EU6279F","36",NULL,"MONKEY","10","ADDICT","1","3336","addict","10","2018-07-02 20:06:39","417612"
"A1I6FBVN7DY49L","cs_wg_full_v2_conf_p","3LUY3GC63Z1O3RDHOUJGDS1TZAK7PA","9",NULL,"BALCONY","6","BUDGET","0","3778","balcony ","6","2018-07-02 20:06:39","417613"
"AJJKCFQTPX1I3","cs_wg_full_v2_conf_p","3VELCLL3GKKY1S9LLB620OWCUIZF1K","14",NULL,"BAGPIPE","5","CHICKEN","1","4187","chicken","5","2018-07-02 20:06:41","417614"
"AAXVPAK0I9PT6","cs_wg_full_v2_conf_p","3LBXNTKX0RWXQJ31PIRHL1E2WZGX9Z","43",NULL,"PRIEST","4","SILVER","1","1354","Silver","4","2018-07-02 20:06:42","417615"
"A3542PB4Z0NE80","cs_wg_full_v2_conf_p","3EJJQNKU9R668TZ8EV9H90Q2EV3RHN","56",NULL,"ROYALTY","6","ADDICT","1","1353","addict","6","2018-07-02 20:06:45","417616"
"A3IZBLUBBAYCQN","cs_wg_full_v2_conf_p","3OSWBBLG1EY9T9GI1YWJ7XXSNKWXDH","9",NULL,"BALCONY","10","DAGGER","0","3138","balcony","10","2018-07-02 20:06:46","417617"
"A2XBG28E8AA6MW","cs_wg_full_v2_conf_p","37C0GNLMHF4WAUWM0BNT7KK8QGYD64","13",NULL,"BABOON","11","PRIEST","1","4311","PRIEST","11","2018-07-02 20:06:46","417618"
"AXFK8W13EYDUX","cs_wg_full_v2_conf_p","3JAOYWH7VI52QPMCBZOTA7JFPQ79LQ","47",NULL,"PRIEST","7","MONKEY","1","1841","monkey","7","2018-07-02 20:06:46","417619"
"AECDIRXC7CBY2","cs_wg_full_v2_conf_p","3NXNZ5RS1AY3B4XA75NJR21EU6279F","37",NULL,"ADDICT","10","CAMERA","0","2201","addict","10","2018-07-02 20:06:48","417620"
"A1JH27GMNQDE6A","cs_wg_full_v2_conf_p","35H6S234SA116HHTL55A98WGDZ156P","22",NULL,"TRIVIA","6","CHORUS","0","3153","trivia","6","2018-07-02 20:06:50","417621"
"A32XNYX09SMR01","cs_wg_full_v2_conf_p","3ZSANO2JCF8YVC8FYULMWPJLKIBFS3","28",NULL,"FRIEND","4","JAVELIN","0","2273","friend","4","2018-07-02 20:06:51","417622"
"AAXVPAK0I9PT6","cs_wg_full_v2_conf_p","3LBXNTKX0RWXQJ31PIRHL1E2WZGX9Z","44",NULL,"ABDOMEN","3","BIKINI","0","1667","Abdomen","3","2018-07-02 20:06:52","417623"
"A303X7UXRA6FP2","cs_wg_full_v2_conf_p","3TE3O8573092T3WQVA6AMWK0PCM2RH","39",NULL,"ALMOND","4","COFFEE","1","3400","coffee","4","2018-07-02 20:06:54","417624"
"A3542PB4Z0NE80","cs_wg_full_v2_conf_p","3EJJQNKU9R668TZ8EV9H90Q2EV3RHN","57",NULL,"SILVER","9","CHORUS","0","1500","silver","9","2018-07-02 20:06:57","417625"
"AXFK8W13EYDUX","cs_wg_full_v2_conf_p","3JAOYWH7VI52QPMCBZOTA7JFPQ79LQ","48",NULL,"PRIEST","9","FACTORY","1","2576","factory","9","2018-07-02 20:06:57","417626"
"A1I6FBVN7DY49L","cs_wg_full_v2_conf_p","3LUY3GC63Z1O3RDHOUJGDS1TZAK7PA","10",NULL,"SMOKER","1","CHIMNEY","0","7057","smoker","1","2018-07-02 20:06:57","417627"
"AECDIRXC7CBY2","cs_wg_full_v2_conf_p","3NXNZ5RS1AY3B4XA75NJR21EU6279F","38",NULL,"CAMERA","11","SPIRAL","1","3171","spiral","11","2018-07-02 20:06:58","417628"
"AJJKCFQTPX1I3","cs_wg_full_v2_conf_p","3VELCLL3GKKY1S9LLB620OWCUIZF1K","15",NULL,"DAGGER","10","PEANUT","1","3403","peanut","10","2018-07-02 20:06:58","417629"
"A3IZBLUBBAYCQN","cs_wg_full_v2_conf_p","3OSWBBLG1EY9T9GI1YWJ7XXSNKWXDH","10",NULL,"ANIMAL","8","BARREL","0","2286","animal","8","2018-07-02 20:07:01","417630"
"AAXVPAK0I9PT6","cs_wg_full_v2_conf_p","3LBXNTKX0RWXQJ31PIRHL1E2WZGX9Z","45",NULL,"SUNBURN","8","PRIEST","1","2606","Priest","8","2018-07-02 20:07:02","417631"
"A32XNYX09SMR01","cs_wg_full_v2_conf_p","3ZSANO2JCF8YVC8FYULMWPJLKIBFS3","29",NULL,"ANIMAL","7","SMOKER","1","2955","smoker","7","2018-07-02 20:07:02","417632"
"A3542PB4Z0NE80","cs_wg_full_v2_conf_p","3EJJQNKU9R668TZ8EV9H90Q2EV3RHN","58",NULL,"TONGUE","10","ROYALTY","0","1867","tongue","10","2018-07-02 20:07:06","417633"
"A1JH27GMNQDE6A","cs_wg_full_v2_conf_p","35H6S234SA116HHTL55A98WGDZ156P","23",NULL,"SUNBURN","8","TENNIS","0","5937","sunburn","8","2018-07-02 20:07:06","417634"
"A303X7UXRA6FP2","cs_wg_full_v2_conf_p","3TE3O8573092T3WQVA6AMWK0PCM2RH","40",NULL,"CHORUS","11","TURKEY","1","3864","turkey","11","2018-07-02 20:07:07","417635"
"A1I6FBVN7DY49L","cs_wg_full_v2_conf_p","3LUY3GC63Z1O3RDHOUJGDS1TZAK7PA","11",NULL,"CHIMNEY","9","SMOKER","0","2476","chimney","9","2018-07-02 20:07:07","417636"
"AECDIRXC7CBY2","cs_wg_full_v2_conf_p","3NXNZ5RS1AY3B4XA75NJR21EU6279F","39",NULL,"PLANET","6","SUNBURN","0","3653","planet","6","2018-07-02 20:07:09","417637"
"AXFK8W13EYDUX","cs_wg_full_v2_conf_p","3JAOYWH7VI52QPMCBZOTA7JFPQ79LQ","49",NULL,"MONKEY","7","CARROT","0","4384","monkey","7","2018-07-02 20:07:09","417638"
"AAXVPAK0I9PT6","cs_wg_full_v2_conf_p","3LBXNTKX0RWXQJ31PIRHL1E2WZGX9Z","46",NULL,"FIREFLY","12","PRIEST","0","1660","Firefly","12","2018-07-02 20:07:12","417639"
"AJJKCFQTPX1I3","cs_wg_full_v2_conf_p","3VELCLL3GKKY1S9LLB620OWCUIZF1K","16",NULL,"PEANUT","6","TRIVIA","1","2796","trivia","6","2018-07-02 20:07:13","417640"
"A32XNYX09SMR01","cs_wg_full_v2_conf_p","3ZSANO2JCF8YVC8FYULMWPJLKIBFS3","30",NULL,"DRAGON","10","JAVELIN","0","2237","dragon","10","2018-07-02 20:07:14","417641"
"A3542PB4Z0NE80","cs_wg_full_v2_conf_p","3EJJQNKU9R668TZ8EV9H90Q2EV3RHN","59",NULL,"SUMMER","12","MUFFIN","1","1329","muffin","12","2018-07-02 20:07:14","417642"
"A3IZBLUBBAYCQN","cs_wg_full_v2_conf_p","3OSWBBLG1EY9T9GI1YWJ7XXSNKWXDH","11",NULL,"SMOKER","5","PLANET","1","2790","planet","5","2018-07-02 20:07:16","417643"
"A303X7UXRA6FP2","cs_wg_full_v2_conf_p","3TE3O8573092T3WQVA6AMWK0PCM2RH","41",NULL,"SCIENCE","6","TONGUE","1","2792","tongue","6","2018-07-02 20:07:18","417644"
"A1I6FBVN7DY49L","cs_wg_full_v2_conf_p","3LUY3GC63Z1O3RDHOUJGDS1TZAK7PA","12",NULL,"SPIRAL","2","BAKERY","0","3179","spiral","2","2018-07-02 20:07:20","417645"
"AXFK8W13EYDUX","cs_wg_full_v2_conf_p","3JAOYWH7VI52QPMCBZOTA7JFPQ79LQ","50",NULL,"COFFEE","12","SCIENCE","1","3693","science","12","2018-07-02 20:07:20","417646"
"A1JH27GMNQDE6A","cs_wg_full_v2_conf_p","35H6S234SA116HHTL55A98WGDZ156P","24",NULL,"GIRAFFE","4","SUMMER","0","5106","giraffe","4","2018-07-02 20:07:22","417647"
"A3542PB4Z0NE80","cs_wg_full_v2_conf_p","3EJJQNKU9R668TZ8EV9H90Q2EV3RHN","60",NULL,"SUNBURN","8","THRONE","0","1162","sunburn","8","2018-07-02 20:07:23","417648"
"AAXVPAK0I9PT6","cs_wg_full_v2_conf_p","3LBXNTKX0RWXQJ31PIRHL1E2WZGX9Z","47",NULL,"PUMPKIN","9","CHORUS","0","3695","Pumpkin","9","2018-07-02 20:07:24","417649"
"A32XNYX09SMR01","cs_wg_full_v2_conf_p","3ZSANO2JCF8YVC8FYULMWPJLKIBFS3","31",NULL,"WAFFLE","7","SMOKER","1","2043","smoker","7","2018-07-02 20:07:24","417650"
"AECDIRXC7CBY2","cs_wg_full_v2_conf_p","3NXNZ5RS1AY3B4XA75NJR21EU6279F","40",NULL,"THRONE","3","CANVAS","1","5627","canvas","3","2018-07-02 20:07:26","417651"
"AXFK8W13EYDUX","cs_wg_full_v2_conf_p","3JAOYWH7VI52QPMCBZOTA7JFPQ79LQ","51",NULL,"ADDICT","11","BUDGET","0","3148","addict","11","2018-07-02 20:07:30","417652"
"A303X7UXRA6FP2","cs_wg_full_v2_conf_p","3TE3O8573092T3WQVA6AMWK0PCM2RH","42",NULL,"CANVAS","10","COFFEE","0","3977","canvas","10","2018-07-02 20:07:31","417654"
"A3IZBLUBBAYCQN","cs_wg_full_v2_conf_p","3OSWBBLG1EY9T9GI1YWJ7XXSNKWXDH","12",NULL,"SMOKER","4","BANQUET","1","3058","banquet","4","2018-07-02 20:07:31","417655"
"AJJKCFQTPX1I3","cs_wg_full_v2_conf_p","3VELCLL3GKKY1S9LLB620OWCUIZF1K","17",NULL,"TRIVIA","3","PILLAR","1","6711","pillar","3","2018-07-02 20:07:31","417656"
"A3542PB4Z0NE80","cs_wg_full_v2_conf_p","3EJJQNKU9R668TZ8EV9H90Q2EV3RHN","61",NULL,"PARENT","6","ADDICT","1","1623","addict","6","2018-07-02 20:07:32","417657"
"A1I6FBVN7DY49L","cs_wg_full_v2_conf_p","3LUY3GC63Z1O3RDHOUJGDS1TZAK7PA","13",NULL,"BALCONY","6","PICTURE","0","2326","balcony ","6","2018-07-02 20:07:34","417658"
"AAXVPAK0I9PT6","cs_wg_full_v2_conf_p","3LBXNTKX0RWXQJ31PIRHL1E2WZGX9Z","48",NULL,"CHORUS","2","SUNBURN","0","3311","Chorus","2","2018-07-02 20:07:35","417659"
"A1JH27GMNQDE6A","cs_wg_full_v2_conf_p","35H6S234SA116HHTL55A98WGDZ156P","25",NULL,"SUNBURN","6","TRIVIA","1","4681","trivia","6","2018-07-02 20:07:40","417660"
"AXFK8W13EYDUX","cs_wg_full_v2_conf_p","3JAOYWH7VI52QPMCBZOTA7JFPQ79LQ","52",NULL,"SCIENCE","10","SPATULA","1","1941","spatula","10","2018-07-02 20:07:40","417661"
"A303X7UXRA6FP2","cs_wg_full_v2_conf_p","3TE3O8573092T3WQVA6AMWK0PCM2RH","43",NULL,"SCIENCE","8","ALMOND","0","1777","science","8","2018-07-02 20:07:41","417662"
"AECDIRXC7CBY2","cs_wg_full_v2_conf_p","3NXNZ5RS1AY3B4XA75NJR21EU6279F","41",NULL,"MONKEY","7","SUNBURN","1","6917","sunburn","7","2018-07-02 20:07:41","417663"
"A3542PB4Z0NE80","cs_wg_full_v2_conf_p","3EJJQNKU9R668TZ8EV9H90Q2EV3RHN","62",NULL,"ADDICT","6","THRONE","0","1890","addict","6","2018-07-02 20:07:41","417664"
"A32XNYX09SMR01","cs_wg_full_v2_conf_p","3ZSANO2JCF8YVC8FYULMWPJLKIBFS3","32",NULL,"WAFFLE","9","CHORUS","1","4421","chorus","9","2018-07-02 20:07:42","417665"
"AAXVPAK0I9PT6","cs_wg_full_v2_conf_p","3LBXNTKX0RWXQJ31PIRHL1E2WZGX9Z","49",NULL,"CHORUS","3","ABDOMEN","1","1226","Abdomen","3","2018-07-02 20:07:46","417666"
"A1I6FBVN7DY49L","cs_wg_full_v2_conf_p","3LUY3GC63Z1O3RDHOUJGDS1TZAK7PA","14",NULL,"SPIRAL","11","GOGGLES","1","3618","goggles","11","2018-07-02 20:07:47","417667"
"A3542PB4Z0NE80","cs_wg_full_v2_conf_p","3EJJQNKU9R668TZ8EV9H90Q2EV3RHN","63",NULL,"THRONE","9","SILVER","1","989","silver","9","2018-07-02 20:07:49","417668"
"AECDIRXC7CBY2","cs_wg_full_v2_conf_p","3NXNZ5RS1AY3B4XA75NJR21EU6279F","42",NULL,"CAMERA","8","BULLET","0","1967","canvas","8","2018-07-02 20:07:50","417669"
"AJJKCFQTPX1I3","cs_wg_full_v2_conf_p","3VELCLL3GKKY1S9LLB620OWCUIZF1K","18",NULL,"FRIEND","1","DAGGER","1","5949","dagger","1","2018-07-02 20:07:50","417670"
"AXFK8W13EYDUX","cs_wg_full_v2_conf_p","3JAOYWH7VI52QPMCBZOTA7JFPQ79LQ","53",NULL,"SPATULA","11","ADDICT","1","4601","addict","11","2018-07-02 20:07:51","417671"
"A32XNYX09SMR01","cs_wg_full_v2_conf_p","3ZSANO2JCF8YVC8FYULMWPJLKIBFS3","33",NULL,"WAFFLE","6","CHIMNEY","0","2028","waffle","6","2018-07-02 20:07:52","417672"
"A303X7UXRA6FP2","cs_wg_full_v2_conf_p","3TE3O8573092T3WQVA6AMWK0PCM2RH","44",NULL,"CANVAS","10","CAMERA","0","3684","canvas","10","2018-07-02 20:07:52","417673"
"A1JH27GMNQDE6A","cs_wg_full_v2_conf_p","35H6S234SA116HHTL55A98WGDZ156P","26",NULL,"DAGGER","5","TENNIS","0","4001","dagger","5","2018-07-02 20:07:53","417674"
"A3IZBLUBBAYCQN","cs_wg_full_v2_conf_p","3OSWBBLG1EY9T9GI1YWJ7XXSNKWXDH","13",NULL,"BALCONY","10","SILVER","0","5867","balcony","10","2018-07-02 20:07:55","417675"
"AAXVPAK0I9PT6","cs_wg_full_v2_conf_p","3LBXNTKX0RWXQJ31PIRHL1E2WZGX9Z","50",NULL,"FIREFLY","12","PUMPKIN","0","1579","Firefly","12","2018-07-02 20:07:56","417676"
"A3542PB4Z0NE80","cs_wg_full_v2_conf_p","3EJJQNKU9R668TZ8EV9H90Q2EV3RHN","64",NULL,"SILVER","9","CANNON","0","860","silver","9","2018-07-02 20:07:57","417677"
"A1ZFEXSYUTCK57","cs_wg_full_v2_conf_p","3EWIJTFFVO86OPO7UHIW41S2DQK0ES","0",NULL,"CHIMNEY","12","BULLET","1","4871","bullet","12","2018-07-02 20:07:59","417678"
"AECDIRXC7CBY2","cs_wg_full_v2_conf_p","3NXNZ5RS1AY3B4XA75NJR21EU6279F","43",NULL,"COFFEE","9","MONKEY","0","2028","coffee","9","2018-07-02 20:07:59","417679"
"A1I6FBVN7DY49L","cs_wg_full_v2_conf_p","3LUY3GC63Z1O3RDHOUJGDS1TZAK7PA","15",NULL,"ANIMAL","7","BAKERY","0","4002","animal","7","2018-07-02 20:07:59","417680"
"AXFK8W13EYDUX","cs_wg_full_v2_conf_p","3JAOYWH7VI52QPMCBZOTA7JFPQ79LQ","54",NULL,"CARROT","12","SCIENCE","1","2121","science","12","2018-07-02 20:08:00","417681"
"A32XNYX09SMR01","cs_wg_full_v2_conf_p","3ZSANO2JCF8YVC8FYULMWPJLKIBFS3","34",NULL,"SILVER","7","SMOKER","1","2855","smoker","7","2018-07-02 20:08:02","417682"
"AAXVPAK0I9PT6","cs_wg_full_v2_conf_p","3LBXNTKX0RWXQJ31PIRHL1E2WZGX9Z","51",NULL,"PRIEST","2","CHORUS","1","951","Chorus","2","2018-07-02 20:08:03","417683"
"A1JH27GMNQDE6A","cs_wg_full_v2_conf_p","35H6S234SA116HHTL55A98WGDZ156P","27",NULL,"CASINO","3","SUMMER","1","3555","summer","3","2018-07-02 20:08:05","417684"
"A303X7UXRA6FP2","cs_wg_full_v2_conf_p","3TE3O8573092T3WQVA6AMWK0PCM2RH","45",NULL,"CHORUS","1","FIREMAN","0","6259","chorus","1","2018-07-02 20:08:07","417685"
"AXFK8W13EYDUX","cs_wg_full_v2_conf_p","3JAOYWH7VI52QPMCBZOTA7JFPQ79LQ","55",NULL,"BUDGET","6","SHIVER","1","1765","shiver","6","2018-07-02 20:08:08","417686"
"A3542PB4Z0NE80","cs_wg_full_v2_conf_p","3EJJQNKU9R668TZ8EV9H90Q2EV3RHN","65",NULL,"PARENT","8","SUNBURN","1","4049","sunburn","8","2018-07-02 20:08:08","417687"
"AECDIRXC7CBY2","cs_wg_full_v2_conf_p","3NXNZ5RS1AY3B4XA75NJR21EU6279F","44",NULL,"MONKEY","11","SPIRAL","1","2147","spiral","11","2018-07-02 20:08:09","417688"
"A3IZBLUBBAYCQN","cs_wg_full_v2_conf_p","3OSWBBLG1EY9T9GI1YWJ7XXSNKWXDH","14",NULL,"ADDICT","3","BARREL","1","3789","barrel","3","2018-07-02 20:08:09","417689"
"A2XBG28E8AA6MW","cs_wg_full_v2_conf_p","37C0GNLMHF4WAUWM0BNT7KK8QGYD64","14",NULL,"CHURCH","6","CABINET","1","3829","CABINET","6","2018-07-02 20:08:10","417690"
"AAXVPAK0I9PT6","cs_wg_full_v2_conf_p","3LBXNTKX0RWXQJ31PIRHL1E2WZGX9Z","52",NULL,"BIKINI","5","THRONE","0","1410","Bikini","5","2018-07-02 20:08:11","417691"
"A3C3TS79TENQS3","cs_wg_full_v2_conf_p","3X66WABAJWJ0PVJVJZQ362BLTHD3GZ","0",NULL,"PEANUT","3","COSTUME","0","10191","Peanut","3","2018-07-02 20:08:12","417692"
"A32XNYX09SMR01","cs_wg_full_v2_conf_p","3ZSANO2JCF8YVC8FYULMWPJLKIBFS3","35",NULL,"CHIMNEY","5","ANIMAL","1","2492","animal","5","2018-07-02 20:08:12","417693"
"A1ZFEXSYUTCK57","cs_wg_full_v2_conf_p","3EWIJTFFVO86OPO7UHIW41S2DQK0ES","1",NULL,"GIRAFFE","6","BAKERY","1","4015","bakery","6","2018-07-02 20:08:16","417694"
"A3542PB4Z0NE80","cs_wg_full_v2_conf_p","3EJJQNKU9R668TZ8EV9H90Q2EV3RHN","66",NULL,"CHICKEN","11","SILVER","0","970","chicken","11","2018-07-02 20:08:16","417695"
"AXFK8W13EYDUX","cs_wg_full_v2_conf_p","3JAOYWH7VI52QPMCBZOTA7JFPQ79LQ","56",NULL,"CARROT","9","FACTORY","1","2640","factory","9","2018-07-02 20:08:18","417696"
"A1JH27GMNQDE6A","cs_wg_full_v2_conf_p","35H6S234SA116HHTL55A98WGDZ156P","28",NULL,"CHICKEN","9","CASINO","0","3660","chicken","9","2018-07-02 20:08:18","417697"
"AECDIRXC7CBY2","cs_wg_full_v2_conf_p","3NXNZ5RS1AY3B4XA75NJR21EU6279F","45",NULL,"COFFEE","9","SUNBURN","0","3930","coffee","9","2018-07-02 20:08:19","417698"
"A3IZBLUBBAYCQN","cs_wg_full_v2_conf_p","3OSWBBLG1EY9T9GI1YWJ7XXSNKWXDH","15",NULL,"PLANET","11","DAGGER","1","7118","dagger","11","2018-07-02 20:08:20","417699"
"AAXVPAK0I9PT6","cs_wg_full_v2_conf_p","3LBXNTKX0RWXQJ31PIRHL1E2WZGX9Z","53",NULL,"MAGNET","7","TONGUE","1","1191","TOngue","7","2018-07-02 20:08:20","417700"
"A32XNYX09SMR01","cs_wg_full_v2_conf_p","3ZSANO2JCF8YVC8FYULMWPJLKIBFS3","36",NULL,"CHORUS","9","ANIMAL","0","1842","chorus","9","2018-07-02 20:08:21","417701"
"A303X7UXRA6FP2","cs_wg_full_v2_conf_p","3TE3O8573092T3WQVA6AMWK0PCM2RH","46",NULL,"CAMERA","10","CANVAS","1","6538","canvas","10","2018-07-02 20:08:22","417702"
"A3542PB4Z0NE80","cs_wg_full_v2_conf_p","3EJJQNKU9R668TZ8EV9H90Q2EV3RHN","67",NULL,"MUFFIN","12","CHICKEN","0","1206","muffin","12","2018-07-02 20:08:25","417703"
"AAXVPAK0I9PT6","cs_wg_full_v2_conf_p","3LBXNTKX0RWXQJ31PIRHL1E2WZGX9Z","54",NULL,"BIKINI","5","ABDOMEN","0","1144","Bikini","5","2018-07-02 20:08:27","417704"
"AXFK8W13EYDUX","cs_wg_full_v2_conf_p","3JAOYWH7VI52QPMCBZOTA7JFPQ79LQ","57",NULL,"SCIENCE","12","CARROT","0","4001","science","12","2018-07-02 20:08:29","417705"
"A2XBG28E8AA6MW","cs_wg_full_v2_conf_p","37C0GNLMHF4WAUWM0BNT7KK8QGYD64","15",NULL,"DOLLAR","9","CHICKEN","0","6812","dollar","9","2018-07-02 20:08:30","417706"
"AECDIRXC7CBY2","cs_wg_full_v2_conf_p","3NXNZ5RS1AY3B4XA75NJR21EU6279F","46",NULL,"DAGGER","10","ADDICT","1","4288","addict","10","2018-07-02 20:08:31","417707"
"A3C3TS79TENQS3","cs_wg_full_v2_conf_p","3X66WABAJWJ0PVJVJZQ362BLTHD3GZ","1",NULL,"COFFEE","10","PEANUT","0","4430","coffee","10","2018-07-02 20:08:31","417708"
"A1ZFEXSYUTCK57","cs_wg_full_v2_conf_p","3EWIJTFFVO86OPO7UHIW41S2DQK0ES","2",NULL,"BASKET","5","GIRAFFE","0","4708","basket","5","2018-07-02 20:08:32","417709"
"A303X7UXRA6FP2","cs_wg_full_v2_conf_p","3TE3O8573092T3WQVA6AMWK0PCM2RH","47",NULL,"SCIENCE","8","JAVELIN","0","3384","science","8","2018-07-02 20:08:33","417710"
"A32XNYX09SMR01","cs_wg_full_v2_conf_p","3ZSANO2JCF8YVC8FYULMWPJLKIBFS3","37",NULL,"BABOON","12","SUNBURN","0","1572","baboon","12","2018-07-02 20:08:33","417711"
"A3IZBLUBBAYCQN","cs_wg_full_v2_conf_p","3OSWBBLG1EY9T9GI1YWJ7XXSNKWXDH","16",NULL,"ANIMAL","10","BALCONY","1","3326","balcony","10","2018-07-02 20:08:34","417712"
"A3542PB4Z0NE80","cs_wg_full_v2_conf_p","3EJJQNKU9R668TZ8EV9H90Q2EV3RHN","68",NULL,"SILVER","9","TONGUE","0","998","silver","9","2018-07-02 20:08:34","417713"
"A1JH27GMNQDE6A","cs_wg_full_v2_conf_p","35H6S234SA116HHTL55A98WGDZ156P","29",NULL,"CHORUS","11","CHICKEN","0","6028","chorus","11","2018-07-02 20:08:35","417714"
"AAXVPAK0I9PT6","cs_wg_full_v2_conf_p","3LBXNTKX0RWXQJ31PIRHL1E2WZGX9Z","55",NULL,"TONGUE","9","PUMPKIN","1","873","Pumpkin","9","2018-07-02 20:08:35","417715"
"AXFK8W13EYDUX","cs_wg_full_v2_conf_p","3JAOYWH7VI52QPMCBZOTA7JFPQ79LQ","58",NULL,"BUDGET","4","PRIEST","0","3040","budget","4","2018-07-02 20:08:39","417716"
"AECDIRXC7CBY2","cs_wg_full_v2_conf_p","3NXNZ5RS1AY3B4XA75NJR21EU6279F","47",NULL,"SUNBURN","3","CANVAS","1","2989","canvas","3","2018-07-02 20:08:41","417717"
"A32XNYX09SMR01","cs_wg_full_v2_conf_p","3ZSANO2JCF8YVC8FYULMWPJLKIBFS3","38",NULL,"BABOON","12","CHORUS","0","1550","baboon","12","2018-07-02 20:08:42","417718"
"A3542PB4Z0NE80","cs_wg_full_v2_conf_p","3EJJQNKU9R668TZ8EV9H90Q2EV3RHN","69",NULL,"SUNBURN","11","CHICKEN","1","1542","chicken","11","2018-07-02 20:08:42","417719"
"A303X7UXRA6FP2","cs_wg_full_v2_conf_p","3TE3O8573092T3WQVA6AMWK0PCM2RH","48",NULL,"TURKEY","11","JAVELIN","0","2816","turkey","11","2018-07-02 20:08:44","417720"
"A1ZFEXSYUTCK57","cs_wg_full_v2_conf_p","3EWIJTFFVO86OPO7UHIW41S2DQK0ES","3",NULL,"ABDOMEN","12","BULLET","1","2520","bullet","12","2018-07-02 20:08:46","417721"
"AAXVPAK0I9PT6","cs_wg_full_v2_conf_p","3LBXNTKX0RWXQJ31PIRHL1E2WZGX9Z","56",NULL,"BIKINI","2","CHORUS","1","1404","Chorus","2","2018-07-02 20:08:47","417722"
"A2XBG28E8AA6MW","cs_wg_full_v2_conf_p","37C0GNLMHF4WAUWM0BNT7KK8QGYD64","16",NULL,"BUDGET","6","CABINET","1","4691","cabinet","6","2018-07-02 20:08:47","417723"
"A3IZBLUBBAYCQN","cs_wg_full_v2_conf_p","3OSWBBLG1EY9T9GI1YWJ7XXSNKWXDH","17",NULL,"BANQUET","11","DAGGER","1","3316","dagger","11","2018-07-02 20:08:47","417724"
"A1JH27GMNQDE6A","cs_wg_full_v2_conf_p","35H6S234SA116HHTL55A98WGDZ156P","30",NULL,"SUNBURN","9","CHICKEN","1","3375","chicken","9","2018-07-02 20:08:48","417725"
"AXFK8W13EYDUX","cs_wg_full_v2_conf_p","3JAOYWH7VI52QPMCBZOTA7JFPQ79LQ","59",NULL,"ANIMAL","9","FACTORY","1","2529","factory","9","2018-07-02 20:08:48","417726"
"A3542PB4Z0NE80","cs_wg_full_v2_conf_p","3EJJQNKU9R668TZ8EV9H90Q2EV3RHN","70",NULL,"CHICKEN","11","ADDICT","0","850","chicken","11","2018-07-02 20:08:50","417727"
"AECDIRXC7CBY2","cs_wg_full_v2_conf_p","3NXNZ5RS1AY3B4XA75NJR21EU6279F","48",NULL,"DAGGER","12","PLANET","0","3606","dagger","12","2018-07-02 20:08:52","417728"
"A32XNYX09SMR01","cs_wg_full_v2_conf_p","3ZSANO2JCF8YVC8FYULMWPJLKIBFS3","39",NULL,"FRIEND","4","SUNBURN","0","2042","friend","4","2018-07-02 20:08:53","417729"
"A3C3TS79TENQS3","cs_wg_full_v2_conf_p","3X66WABAJWJ0PVJVJZQ362BLTHD3GZ","2",NULL,"TRIVIA","12","EARDRUM","1","6756","Eardrum","12","2018-07-02 20:08:53","417730"
"A303X7UXRA6FP2","cs_wg_full_v2_conf_p","3TE3O8573092T3WQVA6AMWK0PCM2RH","49",NULL,"SPATULA","9","ALMOND","0","1964","spatula","9","2018-07-02 20:08:54","417731"
"AAXVPAK0I9PT6","cs_wg_full_v2_conf_p","3LBXNTKX0RWXQJ31PIRHL1E2WZGX9Z","57",NULL,"ABDOMEN","3","CHORUS","0","1088","Abdomen","3","2018-07-02 20:08:57","417732"
"AXFK8W13EYDUX","cs_wg_full_v2_conf_p","3JAOYWH7VI52QPMCBZOTA7JFPQ79LQ","60",NULL,"ADDICT","11","SHIVER","0","1992","addict","11","2018-07-02 20:08:58","417733"
"A3542PB4Z0NE80","cs_wg_full_v2_conf_p","3EJJQNKU9R668TZ8EV9H90Q2EV3RHN","71",NULL,"CHICKEN","11","PARENT","0","1364","chicken","11","2018-07-02 20:08:58","417734"
"A1ZFEXSYUTCK57","cs_wg_full_v2_conf_p","3EWIJTFFVO86OPO7UHIW41S2DQK0ES","4",NULL,"GIRAFFE","4","ABDOMEN","1","2499","abdomen","4","2018-07-02 20:09:00","417735"
"A3IZBLUBBAYCQN","cs_wg_full_v2_conf_p","3OSWBBLG1EY9T9GI1YWJ7XXSNKWXDH","18",NULL,"PILLAR","6","SILVER","0","2869","pillar","6","2018-07-02 20:09:01","417736"
"AECDIRXC7CBY2","cs_wg_full_v2_conf_p","3NXNZ5RS1AY3B4XA75NJR21EU6279F","49",NULL,"DAGGER","12","ANIMAL","0","1710","dagger","12","2018-07-02 20:09:02","417737"
"A1JH27GMNQDE6A","cs_wg_full_v2_conf_p","35H6S234SA116HHTL55A98WGDZ156P","31",NULL,"BABOON","4","GIRAFFE","1","4437","giraffe","4","2018-07-02 20:09:02","417738"
"A303X7UXRA6FP2","cs_wg_full_v2_conf_p","3TE3O8573092T3WQVA6AMWK0PCM2RH","50",NULL,"SPATULA","9","FIREMAN","0","1479","spautula","9","2018-07-02 20:09:04","417739"
"A32XNYX09SMR01","cs_wg_full_v2_conf_p","3ZSANO2JCF8YVC8FYULMWPJLKIBFS3","40",NULL,"JAVELIN","2","SILVER","1","3570","silver","2","2018-07-02 20:09:05","417740"
"A3542PB4Z0NE80","cs_wg_full_v2_conf_p","3EJJQNKU9R668TZ8EV9H90Q2EV3RHN","72",NULL,"TONGUE","10","SILVER","0","888","tongue","10","2018-07-02 20:09:06","417741"
"AAXVPAK0I9PT6","cs_wg_full_v2_conf_p","3LBXNTKX0RWXQJ31PIRHL1E2WZGX9Z","58",NULL,"THRONE","6","MAGNET","0","1189","Throne","6","2018-07-02 20:09:07","417742"
"A2XBG28E8AA6MW","cs_wg_full_v2_conf_p","37C0GNLMHF4WAUWM0BNT7KK8QGYD64","17",NULL,"BUDGET","12","CHICKEN","1","5530","chicken","12","2018-07-02 20:09:08","417743"
"AXFK8W13EYDUX","cs_wg_full_v2_conf_p","3JAOYWH7VI52QPMCBZOTA7JFPQ79LQ","61",NULL,"ANIMAL","8","PRIEST","0","2579","animal","8","2018-07-02 20:09:08","417744"
"A1I6FBVN7DY49L","cs_wg_full_v2_conf_p","3LUY3GC63Z1O3RDHOUJGDS1TZAK7PA","16",NULL,"COFFEE","12","ANIMAL","0","5995","coffee","11","2018-07-02 20:09:08","417745"
"AECDIRXC7CBY2","cs_wg_full_v2_conf_p","3NXNZ5RS1AY3B4XA75NJR21EU6279F","50",NULL,"PLANET","6","THRONE","0","2398","planet","6","2018-07-02 20:09:11","417746"
"A1ZFEXSYUTCK57","cs_wg_full_v2_conf_p","3EWIJTFFVO86OPO7UHIW41S2DQK0ES","5",NULL,"HEAVEN","10","WALRUS","0","1867","heaven","10","2018-07-02 20:09:14","417747"
"A3IZBLUBBAYCQN","cs_wg_full_v2_conf_p","3OSWBBLG1EY9T9GI1YWJ7XXSNKWXDH","19",NULL,"BALCONY","10","PLANET","0","2646","balcony","10","2018-07-02 20:09:15","417748"
"AAXVPAK0I9PT6","cs_wg_full_v2_conf_p","3LBXNTKX0RWXQJ31PIRHL1E2WZGX9Z","59",NULL,"DOLLAR","11","ABDOMEN","0","1279","Dollar","11","2018-07-02 20:09:15","417749"
"A3542PB4Z0NE80","cs_wg_full_v2_conf_p","3EJJQNKU9R668TZ8EV9H90Q2EV3RHN","73",NULL,"CHORUS","9","SILVER","1","1490","silver","9","2018-07-02 20:09:15","417750"
"A3C3TS79TENQS3","cs_wg_full_v2_conf_p","3X66WABAJWJ0PVJVJZQ362BLTHD3GZ","3",NULL,"FACTORY","2","COSTUME","1","7283","costume","2","2018-07-02 20:09:15","417751"
"A32XNYX09SMR01","cs_wg_full_v2_conf_p","3ZSANO2JCF8YVC8FYULMWPJLKIBFS3","41",NULL,"ADDICT","11","CHIMNEY","0","1634","addict","11","2018-07-02 20:09:16","417752"
"A303X7UXRA6FP2","cs_wg_full_v2_conf_p","3TE3O8573092T3WQVA6AMWK0PCM2RH","51",NULL,"CHORUS","6","TONGUE","1","3876","tongue","6","2018-07-02 20:09:17","417753"
"AUODB4IVC82I9","cs_wg_full_v2_conf_p","38BQUHLA9W1P3U83D08Q7ATTKUIMOI","0",NULL,"PLANET","9","COFFIN","0","6240","Planet","9","2018-07-02 20:09:17","417754"
"A1JH27GMNQDE6A","cs_wg_full_v2_conf_p","35H6S234SA116HHTL55A98WGDZ156P","32",NULL,"BABOON","10","ROYALTY","1","3095","royalty","10","2018-07-02 20:09:17","417755"
"AXFK8W13EYDUX","cs_wg_full_v2_conf_p","3JAOYWH7VI52QPMCBZOTA7JFPQ79LQ","62",NULL,"GOGGLES","6","SHIVER","1","3460","shiver","6","2018-07-02 20:09:18","417756"
"A1I6FBVN7DY49L","cs_wg_full_v2_conf_p","3LUY3GC63Z1O3RDHOUJGDS1TZAK7PA","17",NULL,"HEAVEN","11","GOGGLES","1","2096","goggles","11","2018-07-02 20:09:20","417757"
"AECDIRXC7CBY2","cs_wg_full_v2_conf_p","3NXNZ5RS1AY3B4XA75NJR21EU6279F","51",NULL,"CANVAS","12","DAGGER","1","2831","dagger","12","2018-07-02 20:09:20","417758"
"AAXVPAK0I9PT6","cs_wg_full_v2_conf_p","3LBXNTKX0RWXQJ31PIRHL1E2WZGX9Z","60",NULL,"PRIEST","5","BIKINI","1","1161","Bikini","5","2018-07-02 20:09:23","417759"
"A2XBG28E8AA6MW","cs_wg_full_v2_conf_p","37C0GNLMHF4WAUWM0BNT7KK8QGYD64","18",NULL,"PRIEST","11","CHURCH","0","3660","priest","11","2018-07-02 20:09:23","417760"
"A3542PB4Z0NE80","cs_wg_full_v2_conf_p","3EJJQNKU9R668TZ8EV9H90Q2EV3RHN","74",NULL,"PARENT","9","SILVER","1","1508","silver","9","2018-07-02 20:09:24","417761"
"A32XNYX09SMR01","cs_wg_full_v2_conf_p","3ZSANO2JCF8YVC8FYULMWPJLKIBFS3","42",NULL,"SMOKER","7","WAFFLE","0","2179","smoker","7","2018-07-02 20:09:26","417762"
"AXFK8W13EYDUX","cs_wg_full_v2_conf_p","3JAOYWH7VI52QPMCBZOTA7JFPQ79LQ","63",NULL,"SPATULA","10","PRIEST","0","1580","spatula","10","2018-07-02 20:09:27","417763"
"A1ZFEXSYUTCK57","cs_wg_full_v2_conf_p","3EWIJTFFVO86OPO7UHIW41S2DQK0ES","6",NULL,"DOMINO","1","DAGGER","0","2892","domino","1","2018-07-02 20:09:27","417764"
"AECDIRXC7CBY2","cs_wg_full_v2_conf_p","3NXNZ5RS1AY3B4XA75NJR21EU6279F","52",NULL,"CANVAS","3","BULLET","0","2911","canvas","3","2018-07-02 20:09:30","417765"
"A3IZBLUBBAYCQN","cs_wg_full_v2_conf_p","3OSWBBLG1EY9T9GI1YWJ7XXSNKWXDH","20",NULL,"BANQUET","3","BARREL","1","5280","barrel","3","2018-07-02 20:09:30","417766"
"A1I6FBVN7DY49L","cs_wg_full_v2_conf_p","3LUY3GC63Z1O3RDHOUJGDS1TZAK7PA","18",NULL,"CASINO","3","BUDGET","0","3168","casino ","3","2018-07-02 20:09:31","417767"
"A303X7UXRA6FP2","cs_wg_full_v2_conf_p","3TE3O8573092T3WQVA6AMWK0PCM2RH","52",NULL,"COFFEE","6","TONGUE","1","5945","tongue","6","2018-07-02 20:09:32","417768"
"AUODB4IVC82I9","cs_wg_full_v2_conf_p","38BQUHLA9W1P3U83D08Q7ATTKUIMOI","1",NULL,"BANQUET","7","TONGUE","0","3111","Banquet","7","2018-07-02 20:09:32","417769"
"A1JH27GMNQDE6A","cs_wg_full_v2_conf_p","35H6S234SA116HHTL55A98WGDZ156P","33",NULL,"GIRAFFE","10","ROYALTY","1","2796","royalty","10","2018-07-02 20:09:32","417770"
"AAXVPAK0I9PT6","cs_wg_full_v2_conf_p","3LBXNTKX0RWXQJ31PIRHL1E2WZGX9Z","61",NULL,"THRONE","6","TONGUE","0","1141","Throne","6","2018-07-02 20:09:32","417771"
"A3542PB4Z0NE80","cs_wg_full_v2_conf_p","3EJJQNKU9R668TZ8EV9H90Q2EV3RHN","75",NULL,"TONGUE","11","CHICKEN","1","1809","chicken","11","2018-07-02 20:09:32","417772"
"AXFK8W13EYDUX","cs_wg_full_v2_conf_p","3JAOYWH7VI52QPMCBZOTA7JFPQ79LQ","64",NULL,"ADDICT","11","CARROT","0","2161","addict","11","2018-07-02 20:09:36","417773"
"A32XNYX09SMR01","cs_wg_full_v2_conf_p","3ZSANO2JCF8YVC8FYULMWPJLKIBFS3","43",NULL,"DRAGON","12","BABOON","1","1563","baboon","12","2018-07-02 20:09:36","417774"
"A3C3TS79TENQS3","cs_wg_full_v2_conf_p","3X66WABAJWJ0PVJVJZQ362BLTHD3GZ","4",NULL,"COSTUME","12","EARDRUM","1","5188","eardrum","12","2018-07-02 20:09:37","417775"
"A3HJD15VKJO9V2","cs_wg_full_v2_conf_p","3Q5C1WP23M26ZVGWFZTTEC5Z5OL51R","0",NULL,"CARROT","5","FLIGHT","0","8196","Carrot","5","2018-07-02 20:09:38","417776"
"AECDIRXC7CBY2","cs_wg_full_v2_conf_p","3NXNZ5RS1AY3B4XA75NJR21EU6279F","53",NULL,"ADDICT","10","CANVAS","0","1945","addict","10","2018-07-02 20:09:39","417777"
"AAXVPAK0I9PT6","cs_wg_full_v2_conf_p","3LBXNTKX0RWXQJ31PIRHL1E2WZGX9Z","62",NULL,"CHORUS","4","SILVER","1","1010","Silver","4","2018-07-02 20:09:39","417778"
"A1ZFEXSYUTCK57","cs_wg_full_v2_conf_p","3EWIJTFFVO86OPO7UHIW41S2DQK0ES","7",NULL,"BAKERY","6","GIRAFFE","0","2943","bakery","6","2018-07-02 20:09:40","417779"
"A3542PB4Z0NE80","cs_wg_full_v2_conf_p","3EJJQNKU9R668TZ8EV9H90Q2EV3RHN","76",NULL,"CHICKEN","11","MUFFIN","0","1188","chicken","11","2018-07-02 20:09:40","417780"
"A1I6FBVN7DY49L","cs_wg_full_v2_conf_p","3LUY3GC63Z1O3RDHOUJGDS1TZAK7PA","19",NULL,"BALCONY","6","SPIRAL","0","2845","bakcony ","6","2018-07-02 20:09:42","417781"
"A303X7UXRA6FP2","cs_wg_full_v2_conf_p","3TE3O8573092T3WQVA6AMWK0PCM2RH","53",NULL,"CAMERA","11","TURKEY","1","2839","turkey","11","2018-07-02 20:09:42","417782"
"A32XNYX09SMR01","cs_wg_full_v2_conf_p","3ZSANO2JCF8YVC8FYULMWPJLKIBFS3","44",NULL,"SUNBURN","10","DRAGON","1","1551","dragon","10","2018-07-02 20:09:46","417783"
"A1JH27GMNQDE6A","cs_wg_full_v2_conf_p","35H6S234SA116HHTL55A98WGDZ156P","34",NULL,"DAGGER","10","ROYALTY","1","2862","royalty","10","2018-07-02 20:09:47","417784"
"AUODB4IVC82I9","cs_wg_full_v2_conf_p","38BQUHLA9W1P3U83D08Q7ATTKUIMOI","2",NULL,"PLANET","11","CELERY","1","3725","Celery","11","2018-07-02 20:09:47","417785"
"A3IZBLUBBAYCQN","cs_wg_full_v2_conf_p","3OSWBBLG1EY9T9GI1YWJ7XXSNKWXDH","21",NULL,"FIREFLY","1","BALCONY","0","3444","firefly","1","2018-07-02 20:09:47","417786"
"AAXVPAK0I9PT6","cs_wg_full_v2_conf_p","3LBXNTKX0RWXQJ31PIRHL1E2WZGX9Z","63",NULL,"SILVER","4","TONGUE","0","851","Silver ","4","2018-07-02 20:09:48","417787"
"AECDIRXC7CBY2","cs_wg_full_v2_conf_p","3NXNZ5RS1AY3B4XA75NJR21EU6279F","54",NULL,"DAGGER","12","CAMERA","0","1990","dagger","12","2018-07-02 20:09:48","417788"
"A3542PB4Z0NE80","cs_wg_full_v2_conf_p","3EJJQNKU9R668TZ8EV9H90Q2EV3RHN","77",NULL,"ROYALTY","5","CANNON","1","1993","cannon","5","2018-07-02 20:09:49","417789"
"AXFK8W13EYDUX","cs_wg_full_v2_conf_p","3JAOYWH7VI52QPMCBZOTA7JFPQ79LQ","65",NULL,"BUDGET","2","COFFEE","1","4872","coffee","2","2018-07-02 20:09:50","417790"
"A1ZFEXSYUTCK57","cs_wg_full_v2_conf_p","3EWIJTFFVO86OPO7UHIW41S2DQK0ES","8",NULL,"DAGGER","2","GIRAFFE","0","3825","dagger","2","2018-07-02 20:09:52","417791"
"A303X7UXRA6FP2","cs_wg_full_v2_conf_p","3TE3O8573092T3WQVA6AMWK0PCM2RH","54",NULL,"TURKEY","11","BAPTISM","0","2296","turkey","11","2018-07-02 20:09:52","417792"
"A1I6FBVN7DY49L","cs_wg_full_v2_conf_p","3LUY3GC63Z1O3RDHOUJGDS1TZAK7PA","20",NULL,"BAKERY","2","SPIRAL","1","3759","spiral ","2","2018-07-02 20:09:53","417793"
"A2XBG28E8AA6MW","cs_wg_full_v2_conf_p","37C0GNLMHF4WAUWM0BNT7KK8QGYD64","19",NULL,"CASINO","8","PICTURE","1","11766","picture","8","2018-07-02 20:09:53","417794"
"A3C3TS79TENQS3","cs_wg_full_v2_conf_p","3X66WABAJWJ0PVJVJZQ362BLTHD3GZ","5",NULL,"DRAGON","9","MONKEY","0","4848","dragon","9","2018-07-02 20:09:54","417795"
"AAXVPAK0I9PT6","cs_wg_full_v2_conf_p","3LBXNTKX0RWXQJ31PIRHL1E2WZGX9Z","64",NULL,"TONGUE","7","SILVER","0","984","TOngue","7","2018-07-02 20:09:55","417796"
"A32XNYX09SMR01","cs_wg_full_v2_conf_p","3ZSANO2JCF8YVC8FYULMWPJLKIBFS3","45",NULL,"DRAGON","10","SUNBURN","0","1441","dragon","10","2018-07-02 20:09:57","417797"
"A3542PB4Z0NE80","cs_wg_full_v2_conf_p","3EJJQNKU9R668TZ8EV9H90Q2EV3RHN","78",NULL,"ROYALTY","12","MUFFIN","1","1234","muffin","12","2018-07-02 20:09:59","417798"
"A1JH27GMNQDE6A","cs_wg_full_v2_conf_p","35H6S234SA116HHTL55A98WGDZ156P","35",NULL,"TENNIS","10","ROYALTY","1","2114","royalty","10","2018-07-02 20:09:59","417799"
"AXFK8W13EYDUX","cs_wg_full_v2_conf_p","3JAOYWH7VI52QPMCBZOTA7JFPQ79LQ","66",NULL,"CARROT","11","ADDICT","1","1864","addict","11","2018-07-02 20:09:59","417800"
"A3IZBLUBBAYCQN","cs_wg_full_v2_conf_p","3OSWBBLG1EY9T9GI1YWJ7XXSNKWXDH","22",NULL,"SILVER","11","DAGGER","1","3257","dagger","11","2018-07-02 20:10:01","417801"
"A3HJD15VKJO9V2","cs_wg_full_v2_conf_p","3Q5C1WP23M26ZVGWFZTTEC5Z5OL51R","1",NULL,"PRIEST","4","CARROT","0","7673","priest","4","2018-07-02 20:10:01","417802"
"AAXVPAK0I9PT6","cs_wg_full_v2_conf_p","3LBXNTKX0RWXQJ31PIRHL1E2WZGX9Z","65",NULL,"PUMPKIN","11","DOLLAR","1","966","Dollar","11","2018-07-02 20:10:02","417803"
"A1I6FBVN7DY49L","cs_wg_full_v2_conf_p","3LUY3GC63Z1O3RDHOUJGDS1TZAK7PA","21",NULL,"PICTURE","5","SMOKER","0","2303","picture ","5","2018-07-02 20:10:02","417804"
"A1ZFEXSYUTCK57","cs_wg_full_v2_conf_p","3EWIJTFFVO86OPO7UHIW41S2DQK0ES","9",NULL,"BULLET","12","PENGUIN","0","2262","bullet","12","2018-07-02 20:10:03","417805"
"A303X7UXRA6FP2","cs_wg_full_v2_conf_p","3TE3O8573092T3WQVA6AMWK0PCM2RH","55",NULL,"JAVELIN","7","BAPTISM","0","2686","javelin","7","2018-07-02 20:10:04","417806"
"AUODB4IVC82I9","cs_wg_full_v2_conf_p","38BQUHLA9W1P3U83D08Q7ATTKUIMOI","3",NULL,"COFFIN","3","MONKEY","0","4155","COFFIN","3","2018-07-02 20:10:05","417807"
"AECDIRXC7CBY2","cs_wg_full_v2_conf_p","3NXNZ5RS1AY3B4XA75NJR21EU6279F","55",NULL,"ADDICT","10","COFFEE","0","8691","addict","10","2018-07-02 20:10:05","417808"
"A32XNYX09SMR01","cs_wg_full_v2_conf_p","3ZSANO2JCF8YVC8FYULMWPJLKIBFS3","46",NULL,"ANIMAL","2","SILVER","1","2839","silver","2","2018-07-02 20:10:07","417809"
"A3542PB4Z0NE80","cs_wg_full_v2_conf_p","3EJJQNKU9R668TZ8EV9H90Q2EV3RHN","79",NULL,"PARENT","5","CANNON","1","1769","cannon","5","2018-07-02 20:10:08","417810"
"AXFK8W13EYDUX","cs_wg_full_v2_conf_p","3JAOYWH7VI52QPMCBZOTA7JFPQ79LQ","67",NULL,"ANIMAL","12","SCIENCE","1","3367","science","12","2018-07-02 20:10:10","417811"
"AAXVPAK0I9PT6","cs_wg_full_v2_conf_p","3LBXNTKX0RWXQJ31PIRHL1E2WZGX9Z","66",NULL,"MAGNET","10","BIKINI","0","826","Magnet","10","2018-07-02 20:10:12","417812"
"A3C3TS79TENQS3","cs_wg_full_v2_conf_p","3X66WABAJWJ0PVJVJZQ362BLTHD3GZ","6",NULL,"EARDRUM","6","BAPTISM","1","3351","baptist","6","2018-07-02 20:10:13","417813"
"A1JH27GMNQDE6A","cs_wg_full_v2_conf_p","35H6S234SA116HHTL55A98WGDZ156P","36",NULL,"DAGGER","8","SUNBURN","1","3361","sunburn","8","2018-07-02 20:10:13","417814"
"A2XBG28E8AA6MW","cs_wg_full_v2_conf_p","37C0GNLMHF4WAUWM0BNT7KK8QGYD64","20",NULL,"CABINET","9","DOLLAR","1","9845","dollar","9","2018-07-02 20:10:15","417815"
"A3542PB4Z0NE80","cs_wg_full_v2_conf_p","3EJJQNKU9R668TZ8EV9H90Q2EV3RHN","80",NULL,"ADDICT","6","CANNON","0","1034","addict","6","2018-07-02 20:10:16","417816"
"A32XNYX09SMR01","cs_wg_full_v2_conf_p","3ZSANO2JCF8YVC8FYULMWPJLKIBFS3","47",NULL,"SILVER","8","JAVELIN","1","1457","javelin","8","2018-07-02 20:10:17","417817"
"A1I6FBVN7DY49L","cs_wg_full_v2_conf_p","3LUY3GC63Z1O3RDHOUJGDS1TZAK7PA","22",NULL,"BAKERY","10","PICTURE","0","6349","bakery ","10","2018-07-02 20:10:17","417818"
"A3IZBLUBBAYCQN","cs_wg_full_v2_conf_p","3OSWBBLG1EY9T9GI1YWJ7XXSNKWXDH","23",NULL,"BATTERY","12","SILVER","0","2776","battery","12","2018-07-02 20:10:17","417819"
"AUODB4IVC82I9","cs_wg_full_v2_conf_p","38BQUHLA9W1P3U83D08Q7ATTKUIMOI","4",NULL,"PLANET","6","SUMMER","1","5684","SUMMER","6","2018-07-02 20:10:17","417820"
"A1ZFEXSYUTCK57","cs_wg_full_v2_conf_p","3EWIJTFFVO86OPO7UHIW41S2DQK0ES","10",NULL,"WALRUS","7","GIRAFFE","0","2570","walrus","7","2018-07-02 20:10:17","417821"
"AXFK8W13EYDUX","cs_wg_full_v2_conf_p","3JAOYWH7VI52QPMCBZOTA7JFPQ79LQ","68",NULL,"MONKEY","9","FACTORY","1","1549","factory","9","2018-07-02 20:10:19","417822"
"AAXVPAK0I9PT6","cs_wg_full_v2_conf_p","3LBXNTKX0RWXQJ31PIRHL1E2WZGX9Z","67",NULL,"CHORUS","11","DOLLAR","1","997","Dollar","11","2018-07-02 20:10:20","417823"
"A303X7UXRA6FP2","cs_wg_full_v2_conf_p","3TE3O8573092T3WQVA6AMWK0PCM2RH","56",NULL,"ALMOND","2","CAMERA","0","7183","almond","2","2018-07-02 20:10:20","417824"
"A3HJD15VKJO9V2","cs_wg_full_v2_conf_p","3Q5C1WP23M26ZVGWFZTTEC5Z5OL51R","2",NULL,"BEAVER","2","CHICKEN","0","6161","beaver","2","2018-07-02 20:10:22","417825"
"A1JH27GMNQDE6A","cs_wg_full_v2_conf_p","35H6S234SA116HHTL55A98WGDZ156P","37",NULL,"CASINO","9","CHICKEN","1","2290","chicken","9","2018-07-02 20:10:25","417826"
"A3542PB4Z0NE80","cs_wg_full_v2_conf_p","3EJJQNKU9R668TZ8EV9H90Q2EV3RHN","81",NULL,"CANNON","7","CHORUS","1","1367","chorus","7","2018-07-02 20:10:26","417827"
"A1I6FBVN7DY49L","cs_wg_full_v2_conf_p","3LUY3GC63Z1O3RDHOUJGDS1TZAK7PA","23",NULL,"GOGGLES","11","BAKERY","0","1440","goggles","10","2018-07-02 20:10:27","417828"
"A32XNYX09SMR01","cs_wg_full_v2_conf_p","3ZSANO2JCF8YVC8FYULMWPJLKIBFS3","48",NULL,"ANIMAL","11","ADDICT","1","1584","addict","11","2018-07-02 20:10:27","417829"
"A1ZFEXSYUTCK57","cs_wg_full_v2_conf_p","3EWIJTFFVO86OPO7UHIW41S2DQK0ES","11",NULL,"ABDOMEN","5","BASKET","1","2254","basket","5","2018-07-02 20:10:28","417830"
"AXFK8W13EYDUX","cs_wg_full_v2_conf_p","3JAOYWH7VI52QPMCBZOTA7JFPQ79LQ","69",NULL,"SHIVER","2","COFFEE","1","2861","coffee","2","2018-07-02 20:10:28","417831"
"AAXVPAK0I9PT6","cs_wg_full_v2_conf_p","3LBXNTKX0RWXQJ31PIRHL1E2WZGX9Z","68",NULL,"FIREFLY","12","CHORUS","0","1102","Firefly","12","2018-07-02 20:10:28","417832"
"A303X7UXRA6FP2","cs_wg_full_v2_conf_p","3TE3O8573092T3WQVA6AMWK0PCM2RH","57",NULL,"JAVELIN","7","COFFEE","0","3304","javelin","7","2018-07-02 20:10:31","417833"
"A2XBG28E8AA6MW","cs_wg_full_v2_conf_p","37C0GNLMHF4WAUWM0BNT7KK8QGYD64","21",NULL,"PICTURE","9","DOLLAR","1","7609","dollar","9","2018-07-02 20:10:32","417834"
"A3IZBLUBBAYCQN","cs_wg_full_v2_conf_p","3OSWBBLG1EY9T9GI1YWJ7XXSNKWXDH","24",NULL,"BARREL","4","BANQUET","1","5271","banquet","4","2018-07-02 20:10:33","417835"
"A3542PB4Z0NE80","cs_wg_full_v2_conf_p","3EJJQNKU9R668TZ8EV9H90Q2EV3RHN","82",NULL,"PARENT","4","THRONE","0","1553","parent","4","2018-07-02 20:10:34","417836"
"AXFK8W13EYDUX","cs_wg_full_v2_conf_p","3JAOYWH7VI52QPMCBZOTA7JFPQ79LQ","70",NULL,"ANIMAL","8","COFFEE","0","1591","animal","8","2018-07-02 20:10:37","417837"
"A32XNYX09SMR01","cs_wg_full_v2_conf_p","3ZSANO2JCF8YVC8FYULMWPJLKIBFS3","49",NULL,"JAVELIN","8","SUNBURN","0","2151","javelin","8","2018-07-02 20:10:37","417838"
"AAXVPAK0I9PT6","cs_wg_full_v2_conf_p","3LBXNTKX0RWXQJ31PIRHL1E2WZGX9Z","69",NULL,"PUMPKIN","9","SUNBURN","0","872","Pumpkin","12","2018-07-02 20:10:38","417839"
"A3C3TS79TENQS3","cs_wg_full_v2_conf_p","3X66WABAJWJ0PVJVJZQ362BLTHD3GZ","7",NULL,"COFFEE","2","COSTUME","1","13569","costume","2","2018-07-02 20:10:38","417840"
"A1I6FBVN7DY49L","cs_wg_full_v2_conf_p","3LUY3GC63Z1O3RDHOUJGDS1TZAK7PA","24",NULL,"BUDGET","4","BAKERY","0","4029","budget ","4","2018-07-02 20:10:38","417841"
"A1JH27GMNQDE6A","cs_wg_full_v2_conf_p","35H6S234SA116HHTL55A98WGDZ156P","38",NULL,"BABOON","3","SUMMER","1","3737","summer","3","2018-07-02 20:10:38","417842"
"A1ZFEXSYUTCK57","cs_wg_full_v2_conf_p","3EWIJTFFVO86OPO7UHIW41S2DQK0ES","12",NULL,"BAKERY","3","FACTORY","1","2489","factory","3","2018-07-02 20:10:39","417843"
"A3HJD15VKJO9V2","cs_wg_full_v2_conf_p","3Q5C1WP23M26ZVGWFZTTEC5Z5OL51R","3",NULL,"LIQUID","3","KIDNEY","1","4017","kidney","3","2018-07-02 20:10:41","417844"
"A3542PB4Z0NE80","cs_wg_full_v2_conf_p","3EJJQNKU9R668TZ8EV9H90Q2EV3RHN","83",NULL,"TONGUE","10","CHORUS","0","1048","tongue","10","2018-07-02 20:10:44","417845"
"A303X7UXRA6FP2","cs_wg_full_v2_conf_p","3TE3O8573092T3WQVA6AMWK0PCM2RH","58",NULL,"COFFEE","4","CHORUS","0","4336","coffee","4","2018-07-02 20:10:44","417846"
"AAXVPAK0I9PT6","cs_wg_full_v2_conf_p","3LBXNTKX0RWXQJ31PIRHL1E2WZGX9Z","70",NULL,"CHORUS","2","TONGUE","0","950","Chorus","2","2018-07-02 20:10:45","417847"
"AXFK8W13EYDUX","cs_wg_full_v2_conf_p","3JAOYWH7VI52QPMCBZOTA7JFPQ79LQ","71",NULL,"ADDICT","11","SPATULA","0","2565","addict","11","2018-07-02 20:10:46","417848"
"A2XBG28E8AA6MW","cs_wg_full_v2_conf_p","37C0GNLMHF4WAUWM0BNT7KK8QGYD64","22",NULL,"CABINET","10","BEAVER","1","6062","beaver","10","2018-07-02 20:10:46","417849"
"A3IZBLUBBAYCQN","cs_wg_full_v2_conf_p","3OSWBBLG1EY9T9GI1YWJ7XXSNKWXDH","25",NULL,"SMOKER","8","ANIMAL","1","2690","animal","8","2018-07-02 20:10:49","417850"
"A1ZFEXSYUTCK57","cs_wg_full_v2_conf_p","3EWIJTFFVO86OPO7UHIW41S2DQK0ES","13",NULL,"BULLET","12","FACTORY","0","2075","bullet","12","2018-07-02 20:10:49","417851"
"A32XNYX09SMR01","cs_wg_full_v2_conf_p","3ZSANO2JCF8YVC8FYULMWPJLKIBFS3","50",NULL,"CHIMNEY","1","FRIEND","0","4739","chimney","1","2018-07-02 20:10:50","417852"
"A3542PB4Z0NE80","cs_wg_full_v2_conf_p","3EJJQNKU9R668TZ8EV9H90Q2EV3RHN","84",NULL,"MUFFIN","12","ADDICT","0","896","muffin","12","2018-07-02 20:10:52","417853"
"A1JH27GMNQDE6A","cs_wg_full_v2_conf_p","35H6S234SA116HHTL55A98WGDZ156P","39",NULL,"TRIVIA","6","CHICKEN","0","4955","trivia","6","2018-07-02 20:10:54","417854"
"A1I6FBVN7DY49L","cs_wg_full_v2_conf_p","3LUY3GC63Z1O3RDHOUJGDS1TZAK7PA","25",NULL,"BALCONY","9","CHIMNEY","1","3481","balcony ","9","2018-07-02 20:10:54","417855"
"A3HJD15VKJO9V2","cs_wg_full_v2_conf_p","3Q5C1WP23M26ZVGWFZTTEC5Z5OL51R","4",NULL,"KIDNEY","5","CARROT","1","4761","carrot","5","2018-07-02 20:10:54","417856"
"A303X7UXRA6FP2","cs_wg_full_v2_conf_p","3TE3O8573092T3WQVA6AMWK0PCM2RH","59",NULL,"FIREMAN","6","TONGUE","1","2173","tongue","6","2018-07-02 20:10:54","417857"
"AAXVPAK0I9PT6","cs_wg_full_v2_conf_p","3LBXNTKX0RWXQJ31PIRHL1E2WZGX9Z","71",NULL,"MAGNET","4","SILVER","1","1531","Silver","4","2018-07-02 20:10:56","417858"
"AXFK8W13EYDUX","cs_wg_full_v2_conf_p","3JAOYWH7VI52QPMCBZOTA7JFPQ79LQ","72",NULL,"ADDICT","11","PRIEST","0","1372","addict","11","2018-07-02 20:10:56","417859"
"A3C3TS79TENQS3","cs_wg_full_v2_conf_p","3X66WABAJWJ0PVJVJZQ362BLTHD3GZ","8",NULL,"COFFEE","10","DRAGON","0","7448","coffee","10","2018-07-02 20:10:57","417860"
"AECDIRXC7CBY2","cs_wg_full_v2_conf_p","3NXNZ5RS1AY3B4XA75NJR21EU6279F","56",NULL,"SPIRAL","11","COFFEE","0","47915","spiral","11","2018-07-02 20:11:00","417861"
"A32XNYX09SMR01","cs_wg_full_v2_conf_p","3ZSANO2JCF8YVC8FYULMWPJLKIBFS3","51",NULL,"FRIEND","12","BABOON","1","1908","baboon","12","2018-07-02 20:11:01","417862"
"A3542PB4Z0NE80","cs_wg_full_v2_conf_p","3EJJQNKU9R668TZ8EV9H90Q2EV3RHN","85",NULL,"CHORUS","6","ADDICT","1","1946","addict","6","2018-07-02 20:11:01","417863"
"A1ZFEXSYUTCK57","cs_wg_full_v2_conf_p","3EWIJTFFVO86OPO7UHIW41S2DQK0ES","14",NULL,"BASKET","5","ABDOMEN","0","5190","basket","5","2018-07-02 20:11:04","417864"
"AAXVPAK0I9PT6","cs_wg_full_v2_conf_p","3LBXNTKX0RWXQJ31PIRHL1E2WZGX9Z","72",NULL,"ABDOMEN","8","PRIEST","1","1268","Priest","8","2018-07-02 20:11:05","417865"
"A3IZBLUBBAYCQN","cs_wg_full_v2_conf_p","3OSWBBLG1EY9T9GI1YWJ7XXSNKWXDH","26",NULL,"BARREL","8","ANIMAL","1","2922","animal","8","2018-07-02 20:11:05","417866"
"A1JH27GMNQDE6A","cs_wg_full_v2_conf_p","35H6S234SA116HHTL55A98WGDZ156P","40",NULL,"CASINO","12","CAMERA","1","2653","camera","12","2018-07-02 20:11:06","417867"
"A1I6FBVN7DY49L","cs_wg_full_v2_conf_p","3LUY3GC63Z1O3RDHOUJGDS1TZAK7PA","26",NULL,"PICTURE","5","BUDGET","0","4318","picture ","5","2018-07-02 20:11:06","417868"
"A303X7UXRA6FP2","cs_wg_full_v2_conf_p","3TE3O8573092T3WQVA6AMWK0PCM2RH","60",NULL,"ALMOND","9","SPATULA","1","2374","spatula","9","2018-07-02 20:11:06","417869"
"AXFK8W13EYDUX","cs_wg_full_v2_conf_p","3JAOYWH7VI52QPMCBZOTA7JFPQ79LQ","73",NULL,"ANIMAL","10","SPATULA","1","3002","spatula","10","2018-07-02 20:11:06","417870"
"A2XBG28E8AA6MW","cs_wg_full_v2_conf_p","37C0GNLMHF4WAUWM0BNT7KK8QGYD64","23",NULL,"WAFFLE","4","CASINO","0","2655","waffle","4","2018-07-02 20:11:07","417871"
"A3542PB4Z0NE80","cs_wg_full_v2_conf_p","3EJJQNKU9R668TZ8EV9H90Q2EV3RHN","86",NULL,"TONGUE","10","THRONE","0","1405","tongue","10","2018-07-02 20:11:09","417872"
"AECDIRXC7CBY2","cs_wg_full_v2_conf_p","3NXNZ5RS1AY3B4XA75NJR21EU6279F","57",NULL,"SUNBURN","6","PLANET","1","2828","planet","6","2018-07-02 20:11:10","417873"
"A32XNYX09SMR01","cs_wg_full_v2_conf_p","3ZSANO2JCF8YVC8FYULMWPJLKIBFS3","52",NULL,"CHIMNEY","8","JAVELIN","1","1944","javelin","8","2018-07-02 20:11:11","417874"
"A3HJD15VKJO9V2","cs_wg_full_v2_conf_p","3Q5C1WP23M26ZVGWFZTTEC5Z5OL51R","5",NULL,"PRIEST","10","GIRAFFE","1","2482","giraffe","10","2018-07-02 20:11:12","417875"
"A1ZFEXSYUTCK57","cs_wg_full_v2_conf_p","3EWIJTFFVO86OPO7UHIW41S2DQK0ES","15",NULL,"WALRUS","11","PENGUIN","1","1731","penguin","11","2018-07-02 20:11:14","417876"
"AAXVPAK0I9PT6","cs_wg_full_v2_conf_p","3LBXNTKX0RWXQJ31PIRHL1E2WZGX9Z","73",NULL,"TONGUE","7","DOLLAR","0","1102","Tongue","7","2018-07-02 20:11:14","417877"
"AXFK8W13EYDUX","cs_wg_full_v2_conf_p","3JAOYWH7VI52QPMCBZOTA7JFPQ79LQ","74",NULL,"GOGGLES","3","BUDGET","0","1500","goggles","3","2018-07-02 20:11:15","417878"
"A1I6FBVN7DY49L","cs_wg_full_v2_conf_p","3LUY3GC63Z1O3RDHOUJGDS1TZAK7PA","27",NULL,"SMOKER","12","COFFEE","1","2995","coffee","12","2018-07-02 20:11:16","417879"
"A303X7UXRA6FP2","cs_wg_full_v2_conf_p","3TE3O8573092T3WQVA6AMWK0PCM2RH","61",NULL,"CAMERA","12","BAPTISM","0","2353","camera","12","2018-07-02 20:11:16","417880"
"A1JH27GMNQDE6A","cs_wg_full_v2_conf_p","35H6S234SA116HHTL55A98WGDZ156P","41",NULL,"TENNIS","9","CHICKEN","1","1841","chicken","9","2018-07-02 20:11:17","417881"
"A3C3TS79TENQS3","cs_wg_full_v2_conf_p","3X66WABAJWJ0PVJVJZQ362BLTHD3GZ","9",NULL,"TRIVIA","9","DRAGON","1","8931","dragon","9","2018-07-02 20:11:18","417882"
"A3542PB4Z0NE80","cs_wg_full_v2_conf_p","3EJJQNKU9R668TZ8EV9H90Q2EV3RHN","87",NULL,"MUFFIN","12","THRONE","0","877","muffin","12","2018-07-02 20:11:19","417883"
"AECDIRXC7CBY2","cs_wg_full_v2_conf_p","3NXNZ5RS1AY3B4XA75NJR21EU6279F","58",NULL,"CANVAS","6","PLANET","1","2439","planet","6","2018-07-02 20:11:19","417884"
"A3IZBLUBBAYCQN","cs_wg_full_v2_conf_p","3OSWBBLG1EY9T9GI1YWJ7XXSNKWXDH","27",NULL,"BANQUET","2","ADDICT","1","3940","addict","2","2018-07-02 20:11:21","417885"
"AAXVPAK0I9PT6","cs_wg_full_v2_conf_p","3LBXNTKX0RWXQJ31PIRHL1E2WZGX9Z","74",NULL,"ABDOMEN","3","TONGUE","0","878","Abdomen","3","2018-07-02 20:11:23","417886"
"A1ZFEXSYUTCK57","cs_wg_full_v2_conf_p","3EWIJTFFVO86OPO7UHIW41S2DQK0ES","16",NULL,"FACTORY","8","CHIMNEY","1","1884","chimney","8","2018-07-02 20:11:25","417887"
"A32XNYX09SMR01","cs_wg_full_v2_conf_p","3ZSANO2JCF8YVC8FYULMWPJLKIBFS3","53",NULL,"ANIMAL","10","DRAGON","1","1289","dragon","10","2018-07-02 20:11:25","417888"
"AXFK8W13EYDUX","cs_wg_full_v2_conf_p","3JAOYWH7VI52QPMCBZOTA7JFPQ79LQ","75",NULL,"PRIEST","6","SHIVER","1","2181","shiver","6","2018-07-02 20:11:25","417889"
"A3542PB4Z0NE80","cs_wg_full_v2_conf_p","3EJJQNKU9R668TZ8EV9H90Q2EV3RHN","88",NULL,"MUFFIN","12","CHORUS","0","1002","muffin","12","2018-07-02 20:11:27","417890"
"A1I6FBVN7DY49L","cs_wg_full_v2_conf_p","3LUY3GC63Z1O3RDHOUJGDS1TZAK7PA","28",NULL,"SPIRAL","5","PICTURE","1","4058","picture ","5","2018-07-02 20:11:27","417891"
"AECDIRXC7CBY2","cs_wg_full_v2_conf_p","3NXNZ5RS1AY3B4XA75NJR21EU6279F","59",NULL,"MONKEY","12","DAGGER","1","2128","dagger","12","2018-07-02 20:11:28","417892"
"A1JH27GMNQDE6A","cs_wg_full_v2_conf_p","35H6S234SA116HHTL55A98WGDZ156P","42",NULL,"CAMERA","12","GIRAFFE","0","2158","camera","12","2018-07-02 20:11:28","417893"
"A2YLK83DQ6PA5Y","cs_wg_full_v2_conf_p","3JC6VJ2SABK2TJTWBIMMPDY29IP5AD","0",NULL,"PICKLE","4","DOLLAR","0","5786","pickle","4","2018-07-02 20:11:29","417894"
"A303X7UXRA6FP2","cs_wg_full_v2_conf_p","3TE3O8573092T3WQVA6AMWK0PCM2RH","62",NULL,"TONGUE","8","SCIENCE","1","4625","science","8","2018-07-02 20:11:29","417895"
"AAXVPAK0I9PT6","cs_wg_full_v2_conf_p","3LBXNTKX0RWXQJ31PIRHL1E2WZGX9Z","75",NULL,"PUMPKIN","4","SILVER","1","1126","Silver","4","2018-07-02 20:11:30","417896"
"A3HJD15VKJO9V2","cs_wg_full_v2_conf_p","3Q5C1WP23M26ZVGWFZTTEC5Z5OL51R","6",NULL,"BALCONY","9","KIDNEY","0","2577","Balcony","9","2018-07-02 20:11:32","417897"
"A2XBG28E8AA6MW","cs_wg_full_v2_conf_p","37C0GNLMHF4WAUWM0BNT7KK8QGYD64","24",NULL,"BEAVER","10","BUDGET","0","12536","beaver","10","2018-07-02 20:11:33","417898"
"A3C3TS79TENQS3","cs_wg_full_v2_conf_p","3X66WABAJWJ0PVJVJZQ362BLTHD3GZ","10",NULL,"COFFEE","4","FACTORY","1","3457","factory","4","2018-07-02 20:11:33","417899"
"AUODB4IVC82I9","cs_wg_full_v2_conf_p","38BQUHLA9W1P3U83D08Q7ATTKUIMOI","5",NULL,"SILVER","8","PEACOCK","1","68565","PEACOCK","8","2018-07-02 20:11:33","417900"
"AXFK8W13EYDUX","cs_wg_full_v2_conf_p","3JAOYWH7VI52QPMCBZOTA7JFPQ79LQ","76",NULL,"SHIVER","8","ANIMAL","1","2385","animal","8","2018-07-02 20:11:34","417901"
"A3542PB4Z0NE80","cs_wg_full_v2_conf_p","3EJJQNKU9R668TZ8EV9H90Q2EV3RHN","89",NULL,"ROYALTY","7","CHORUS","1","1308","chorus","7","2018-07-02 20:11:36","417902"
"A32XNYX09SMR01","cs_wg_full_v2_conf_p","3ZSANO2JCF8YVC8FYULMWPJLKIBFS3","54",NULL,"ADDICT","11","SMOKER","0","2578","addict","11","2018-07-02 20:11:37","417903"
"A1I6FBVN7DY49L","cs_wg_full_v2_conf_p","3LUY3GC63Z1O3RDHOUJGDS1TZAK7PA","29",NULL,"SMOKER","10","BAKERY","1","2463","bakery ","10","2018-07-02 20:11:38","417904"
"AECDIRXC7CBY2","cs_wg_full_v2_conf_p","3NXNZ5RS1AY3B4XA75NJR21EU6279F","60",NULL,"COFFEE","5","ANIMAL","1","2356","animal","5","2018-07-02 20:11:38","417905"
"A1ZFEXSYUTCK57","cs_wg_full_v2_conf_p","3EWIJTFFVO86OPO7UHIW41S2DQK0ES","17",NULL,"PENGUIN","11","ABDOMEN","0","3294","penguin","11","2018-07-02 20:11:39","417906"
"A3IZBLUBBAYCQN","cs_wg_full_v2_conf_p","3OSWBBLG1EY9T9GI1YWJ7XXSNKWXDH","28",NULL,"FIREFLY","8","ANIMAL","1","5180","animal","8","2018-07-02 20:11:40","417907"
"A303X7UXRA6FP2","cs_wg_full_v2_conf_p","3TE3O8573092T3WQVA6AMWK0PCM2RH","63",NULL,"CHORUS","10","CANVAS","1","3272","canvas","10","2018-07-02 20:11:40","417908"
"AAXVPAK0I9PT6","cs_wg_full_v2_conf_p","3LBXNTKX0RWXQJ31PIRHL1E2WZGX9Z","76",NULL,"THRONE","8","PRIEST","1","1545","Priest","8","2018-07-02 20:11:41","417909"
"A2YLK83DQ6PA5Y","cs_wg_full_v2_conf_p","3JC6VJ2SABK2TJTWBIMMPDY29IP5AD","1",NULL,"DOLLAR","2","PICKLE","0","3603","dollar ","2","2018-07-02 20:11:42","417910"
