"subject","version","assignmentId","trial","trial_type","word","value","alt","choice","rt","resp","resp2","stamp","id"
"A2248WCN03P98C
A2248WCN03P98C","cs_wg_v9_pilot1","3ZWFC4W1UU8MUX82J5LH6FEOTGGRF8","0","0","BASKET","0","5","0","5090","basket","0","2018-01-08 22:23:46","149302"
"A2248WCN03P98C
A2248WCN03P98C","cs_wg_v9_pilot1","3ZWFC4W1UU8MUX82J5LH6FEOTGGRF8","1","0","BOOKSHELF","1","5","1","3323","bookshelf","1
1","2018-01-08 22:24:08","149303"
"A2248WCN03P98C
A2248WCN03P98C","cs_wg_v9_pilot1","3ZWFC4W1UU8MUX82J5LH6FEOTGGRF8","2","0","KEYBOARD","9","5","0","3555","keyboard","9","2018-01-08 22:24:25","149304"
"A2248WCN03P98C
A2248WCN03P98C","cs_wg_v9_pilot1","3ZWFC4W1UU8MUX82J5LH6FEOTGGRF8","3","0","MACHINE","1","5","0","6865","machine","1","2018-01-08 22:24:45","149305"
"A2248WCN03P98C
A2248WCN03P98C","cs_wg_v9_pilot1","3ZWFC4W1UU8MUX82J5LH6FEOTGGRF8","4","0","MACHINE","1","5","1","4619","machine","1","2018-01-08 22:25:01","149306"
"A1761MS0XW2OHR","cs_wg_v9_pilot1","3B3WTRP3DB3WP3041T6OVBK5EQ629D","0","0","MACHINE","1","5","1","2371","MACHINE","1","2018-01-08 22:25:07","149307"
"A2248WCN03P98C
A2248WCN03P98C","cs_wg_v9_pilot1","3ZWFC4W1UU8MUX82J5LH6FEOTGGRF8","5","0","STOMACH","10","5","0","4633","stomach","10","2018-01-08 22:25:19","149308"
"A1761MS0XW2OHR","cs_wg_v9_pilot1","3B3WTRP3DB3WP3041T6OVBK5EQ629D","1","0","COMMUNITY","10","5","1","2483","COMMUNITY","10","2018-01-08 22:25:22","149309"
"A2248WCN03P98C
A2248WCN03P98C","cs_wg_v9_pilot1","3ZWFC4W1UU8MUX82J5LH6FEOTGGRF8","6","0","HELICOPTER","10","5","1","3308","helicopter","10","2018-01-08 22:25:35","149310"
"A1761MS0XW2OHR","cs_wg_v9_pilot1","3B3WTRP3DB3WP3041T6OVBK5EQ629D","2","0","UMBRELLA","10","5","1","1471","UMBRELLA","10","2018-01-08 22:25:37","149311"
"A1761MS0XW2OHR","cs_wg_v9_pilot1","3B3WTRP3DB3WP3041T6OVBK5EQ629D","3","0","STRUCTURE","9","5","0","2287","STRUCTURE","9","2018-01-08 22:25:52","149312"
"A2248WCN03P98C
A2248WCN03P98C","cs_wg_v9_pilot1","3ZWFC4W1UU8MUX82J5LH6FEOTGGRF8","7","0","STRUCTURE","9","5","1","5967","structure","9","2018-01-08 22:25:54","149313"
"A1761MS0XW2OHR","cs_wg_v9_pilot1","3B3WTRP3DB3WP3041T6OVBK5EQ629D","4","0","BASKET","0","5","1","2888","BASKET","5","2018-01-08 22:26:03","149314"
"A2248WCN03P98C
A2248WCN03P98C","cs_wg_v9_pilot1","3ZWFC4W1UU8MUX82J5LH6FEOTGGRF8","8","0","COMMUNITY","10","5","1","2941","community","10","2018-01-08 22:26:10","149315"
"A1761MS0XW2OHR","cs_wg_v9_pilot1","3B3WTRP3DB3WP3041T6OVBK5EQ629D","5","0","DOORWAY","1","5","1","1924","DOORWAY","1","2018-01-08 22:26:16","149316"
"A2248WCN03P98C
A2248WCN03P98C","cs_wg_v9_pilot1","3ZWFC4W1UU8MUX82J5LH6FEOTGGRF8","9","0","FOOTBALL","10","5","1","2969","football","10","2018-01-08 22:26:25","149317"
"A1761MS0XW2OHR","cs_wg_v9_pilot1","3B3WTRP3DB3WP3041T6OVBK5EQ629D","6","0","STOMACH","0","5","1","1331","STOMACHE","0","2018-01-08 22:26:28","149318"
"A2248WCN03P98C
A2248WCN03P98C","cs_wg_v9_pilot1","3ZWFC4W1UU8MUX82J5LH6FEOTGGRF8","10","0","COMMUNITY","10","5","0","2615","community","10","2018-01-08 22:26:39","149319"
"A1761MS0XW2OHR","cs_wg_v9_pilot1","3B3WTRP3DB3WP3041T6OVBK5EQ629D","7","0","BOOKSHELF","1","5","1","1413","BOOKSHELF","1","2018-01-08 22:26:40","149320"
"A1761MS0XW2OHR","cs_wg_v9_pilot1","3B3WTRP3DB3WP3041T6OVBK5EQ629D","8","0","KEYBOARD","0","5","1","1753","KEYBOARD","0","2018-01-08 22:26:52","149321"
"A2248WCN03P98C
A2248WCN03P98C","cs_wg_v9_pilot1","3ZWFC4W1UU8MUX82J5LH6FEOTGGRF8","11","0","BASKET","0","5","1","4239","basket","0","2018-01-08 22:26:54","149322"
"A1761MS0XW2OHR","cs_wg_v9_pilot1","3B3WTRP3DB3WP3041T6OVBK5EQ629D","9","0","MACHINE","1","5","1","3743","MACHINE","1","2018-01-08 22:27:06","149323"
"A2248WCN03P98C
A2248WCN03P98C","cs_wg_v9_pilot1","3ZWFC4W1UU8MUX82J5LH6FEOTGGRF8","12","0","WEDDING","0","5","0","3275","wedding","0","2018-01-08 22:27:09","149324"
"A1761MS0XW2OHR","cs_wg_v9_pilot1","3B3WTRP3DB3WP3041T6OVBK5EQ629D","10","0","STOMACH","0","5","0","2373","STOMACHE","0","2018-01-08 22:27:17","149325"
"A2248WCN03P98C
A2248WCN03P98C","cs_wg_v9_pilot1","3ZWFC4W1UU8MUX82J5LH6FEOTGGRF8","13","0","BASKET","0","5","1","2390","basket","0","2018-01-08 22:27:24","149326"
"A1761MS0XW2OHR","cs_wg_v9_pilot1","3B3WTRP3DB3WP3041T6OVBK5EQ629D","11","0","BOOKSHELF","1","5","1","1085","BOOKSHELF","0","2018-01-08 22:27:28","149327"
"A1761MS0XW2OHR","cs_wg_v9_pilot1","3B3WTRP3DB3WP3041T6OVBK5EQ629D","12","0","HELICOPTER","9","5","0","1701","HELICOPTER","9","2018-01-08 22:27:40","149328"
"A2248WCN03P98C
A2248WCN03P98C","cs_wg_v9_pilot1","3ZWFC4W1UU8MUX82J5LH6FEOTGGRF8","14","0","BOOKSHELF","1","5","0","5379","bookshelf","1","2018-01-08 22:27:40","149329"
"A1761MS0XW2OHR","cs_wg_v9_pilot1","3B3WTRP3DB3WP3041T6OVBK5EQ629D","13","0","BOOKSHELF","1","5","1","1385","BOOKSHELF","1","2018-01-08 22:27:49","149330"
"A2248WCN03P98C
A2248WCN03P98C","cs_wg_v9_pilot1","3ZWFC4W1UU8MUX82J5LH6FEOTGGRF8","15","0","HELICOPTER","10","5","0","2546","helicopter","10","2018-01-08 22:27:54","149331"
"A1761MS0XW2OHR","cs_wg_v9_pilot1","3B3WTRP3DB3WP3041T6OVBK5EQ629D","14","0","BASKET","0","5","1","1165","BASKET","0","2018-01-08 22:27:59","149332"
"A2248WCN03P98C
A2248WCN03P98C","cs_wg_v9_pilot1","3ZWFC4W1UU8MUX82J5LH6FEOTGGRF8","16","0","STOMACH","10","5","0","2268","stomach","10","2018-01-08 22:28:07","149333"
"A1761MS0XW2OHR","cs_wg_v9_pilot1","3B3WTRP3DB3WP3041T6OVBK5EQ629D","15","0","HELICOPTER","9","5","0","1685","HELICOPTER","9","2018-01-08 22:28:10","149334"
"A1761MS0XW2OHR","cs_wg_v9_pilot1","3B3WTRP3DB3WP3041T6OVBK5EQ629D","16","0","COMMUNITY","10","5","0","1975","COMMUNITY","10","2018-01-08 22:28:22","149335"
"A2248WCN03P98C
A2248WCN03P98C","cs_wg_v9_pilot1","3ZWFC4W1UU8MUX82J5LH6FEOTGGRF8","17","0","MACHINE","1","5","0","3374","machine","1","2018-01-08 22:28:22","149336"
"A1761MS0XW2OHR","cs_wg_v9_pilot1","3B3WTRP3DB3WP3041T6OVBK5EQ629D","17","0","UMBRELLA","10","5","0","1326","UMBRELLA","10","2018-01-08 22:28:32","149337"
"A2248WCN03P98C
A2248WCN03P98C","cs_wg_v9_pilot1","3ZWFC4W1UU8MUX82J5LH6FEOTGGRF8","18","0","STRUCTURE","9","5","0","2799","structure","9","2018-01-08 22:28:36","149338"
"A1761MS0XW2OHR","cs_wg_v9_pilot1","3B3WTRP3DB3WP3041T6OVBK5EQ629D","18","0","UMBRELLA","10","5","0","1411","UMBRELLA","10","2018-01-08 22:28:42","149339"
"A2248WCN03P98C
A2248WCN03P98C","cs_wg_v9_pilot1","3ZWFC4W1UU8MUX82J5LH6FEOTGGRF8","19","0","COMMUNITY","10","5","0","2002","community","10","2018-01-08 22:28:49","149340"
"A1761MS0XW2OHR","cs_wg_v9_pilot1","3B3WTRP3DB3WP3041T6OVBK5EQ629D","19","0","LADDER","10","5","1","1279","LADDER","10","2018-01-08 22:28:52","149341"
"A2248WCN03P98C
A2248WCN03P98C","cs_wg_v9_pilot1","3ZWFC4W1UU8MUX82J5LH6FEOTGGRF8","20","0","COMMUNITY","10","5","0","1570","community","10","2018-01-08 22:29:01","149342"
"A1761MS0XW2OHR","cs_wg_v9_pilot1","3B3WTRP3DB3WP3041T6OVBK5EQ629D","20","0","HELICOPTER","9","5","0","899","HELICOPTER","9","2018-01-08 22:29:01","149343"
"A1761MS0XW2OHR","cs_wg_v9_pilot1","3B3WTRP3DB3WP3041T6OVBK5EQ629D","21","0","MACHINE","1","5","1","1359","MACHINE","1","2018-01-08 22:29:12","149344"
"A2248WCN03P98C
A2248WCN03P98C","cs_wg_v9_pilot1","3ZWFC4W1UU8MUX82J5LH6FEOTGGRF8","21","0","KEYBOARD","9","5","0","2006","keyboard","9","2018-01-08 22:29:13","149345"
"A1761MS0XW2OHR","cs_wg_v9_pilot1","3B3WTRP3DB3WP3041T6OVBK5EQ629D","22","0","KEYBOARD","0","5","1","1849","KEYBOARD","0","2018-01-08 22:29:23","149346"
"A2248WCN03P98C
A2248WCN03P98C","cs_wg_v9_pilot1","3ZWFC4W1UU8MUX82J5LH6FEOTGGRF8","22","0","KEYBOARD","9","5","0","1424","keyboard","10","2018-01-08 22:29:27","149347"
"A1761MS0XW2OHR","cs_wg_v9_pilot1","3B3WTRP3DB3WP3041T6OVBK5EQ629D","23","0","MACHINE","1","5","1","1123","MACHINE","1","2018-01-08 22:29:33","149348"
"A2248WCN03P98C
A2248WCN03P98C","cs_wg_v9_pilot1","3ZWFC4W1UU8MUX82J5LH6FEOTGGRF8","23","0","UMBRELLA","1","5","0","3503","umbrella","1","2018-01-08 22:29:43","149349"
"A1761MS0XW2OHR","cs_wg_v9_pilot1","3B3WTRP3DB3WP3041T6OVBK5EQ629D","24","0","HELICOPTER","9","5","0","1000","HELICOPTER","9","2018-01-08 22:29:44","149350"
"A1761MS0XW2OHR","cs_wg_v9_pilot1","3B3WTRP3DB3WP3041T6OVBK5EQ629D","25","0","DOORWAY","1","5","1","1540","DOORWAY","1","2018-01-08 22:29:53","149351"
"A2248WCN03P98C
A2248WCN03P98C","cs_wg_v9_pilot1","3ZWFC4W1UU8MUX82J5LH6FEOTGGRF8","24","0","HELICOPTER","10","5","0","1723","helicopter","10","2018-01-08 22:29:56","149352"
"A1761MS0XW2OHR","cs_wg_v9_pilot1","3B3WTRP3DB3WP3041T6OVBK5EQ629D","26","0","LADDER","10","5","1","1261","LADDER","10","2018-01-08 22:30:04","149353"
"A2248WCN03P98C
A2248WCN03P98C","cs_wg_v9_pilot1","3ZWFC4W1UU8MUX82J5LH6FEOTGGRF8","25","0","UMBRELLA","1","5","1","2473","umbrella","1","2018-01-08 22:30:08","149354"
"A1761MS0XW2OHR","cs_wg_v9_pilot1","3B3WTRP3DB3WP3041T6OVBK5EQ629D","27","0","LADDER","10","5","0","1602","LADDER","10","2018-01-08 22:30:15","149355"
"A2248WCN03P98C
A2248WCN03P98C","cs_wg_v9_pilot1","3ZWFC4W1UU8MUX82J5LH6FEOTGGRF8","26","0","BASKET","0","5","1","2681","basket","0","2018-01-08 22:30:21","149356"
"A1761MS0XW2OHR","cs_wg_v9_pilot1","3B3WTRP3DB3WP3041T6OVBK5EQ629D","28","0","STRUCTURE","9","5","0","1574","STRUCTURE","9","2018-01-08 22:30:24","149357"
"A2248WCN03P98C
A2248WCN03P98C","cs_wg_v9_pilot1","3ZWFC4W1UU8MUX82J5LH6FEOTGGRF8","27","0","BASKET","0","5","1","1992","basket","0","2018-01-08 22:30:32","149358"
"A1761MS0XW2OHR","cs_wg_v9_pilot1","3B3WTRP3DB3WP3041T6OVBK5EQ629D","29","0","HELICOPTER","9","5","0","992","HELICOPTER","9","2018-01-08 22:30:34","149359"
"A1761MS0XW2OHR","cs_wg_v9_pilot1","3B3WTRP3DB3WP3041T6OVBK5EQ629D","30","0","MACHINE","1","5","1","1457","MACHINE","1","2018-01-08 22:30:43","149360"
"A2248WCN03P98C
A2248WCN03P98C","cs_wg_v9_pilot1","3ZWFC4W1UU8MUX82J5LH6FEOTGGRF8","28","0","WEDDING","0","5","0","3143","wedding","0","2018-01-08 22:30:46","149361"
"A1761MS0XW2OHR","cs_wg_v9_pilot1","3B3WTRP3DB3WP3041T6OVBK5EQ629D","31","0","FOOTBALL","9","5","1","1138","FOOTBALL","9","2018-01-08 22:30:52","149362"
"A2248WCN03P98C
A2248WCN03P98C","cs_wg_v9_pilot1","3ZWFC4W1UU8MUX82J5LH6FEOTGGRF8","29","0","STOMACH","10","5","1","5922","stomach","10","2018-01-08 22:31:04","149363"
"A1761MS0XW2OHR","cs_wg_v9_pilot1","3B3WTRP3DB3WP3041T6OVBK5EQ629D","32","0","KEYBOARD","0","5","1","1075","KEYBOARD","0","2018-01-08 22:31:04","149364"
"A1761MS0XW2OHR","cs_wg_v9_pilot1","3B3WTRP3DB3WP3041T6OVBK5EQ629D","33","0","COMMUNITY","10","5","0","898","COMMUNITY","10","2018-01-08 22:31:13","149365"
"A2248WCN03P98C
A2248WCN03P98C","cs_wg_v9_pilot1","3ZWFC4W1UU8MUX82J5LH6FEOTGGRF8","30","0","TRAFFIC","0","5","1","3348","traffic","0","2018-01-08 22:31:18","149366"
"A1761MS0XW2OHR","cs_wg_v9_pilot1","3B3WTRP3DB3WP3041T6OVBK5EQ629D","34","0","HELICOPTER","9","5","0","891","HELICOPTER","9","2018-01-08 22:31:23","149367"
"A2248WCN03P98C
A2248WCN03P98C","cs_wg_v9_pilot1","3ZWFC4W1UU8MUX82J5LH6FEOTGGRF8","31","0","STOMACH","10","5","0","1883","stomach","10","2018-01-08 22:31:30","149368"
"A1761MS0XW2OHR","cs_wg_v9_pilot1","3B3WTRP3DB3WP3041T6OVBK5EQ629D","35","0","FOOTBALL","9","5","0","1110","FOOTBALL","9","2018-01-08 22:31:33","149369"
"A1761MS0XW2OHR","cs_wg_v9_pilot1","3B3WTRP3DB3WP3041T6OVBK5EQ629D","36","0","UMBRELLA","10","5","0","937","UMBRELLA","10","2018-01-08 22:31:42","149370"
"A2248WCN03P98C
A2248WCN03P98C","cs_wg_v9_pilot1","3ZWFC4W1UU8MUX82J5LH6FEOTGGRF8","32","0","HELICOPTER","10","5","0","1971","hellicopter","10","2018-01-08 22:31:43","149371"
"A1761MS0XW2OHR","cs_wg_v9_pilot1","3B3WTRP3DB3WP3041T6OVBK5EQ629D","37","0","DOORWAY","1","5","0","1394","DOORWAY","1","2018-01-08 22:31:51","149372"
"A2248WCN03P98C
A2248WCN03P98C","cs_wg_v9_pilot1","3ZWFC4W1UU8MUX82J5LH6FEOTGGRF8","33","0","UMBRELLA","1","5","1","6246","umbrella","1","2018-01-08 22:32:01","149373"
"A1761MS0XW2OHR","cs_wg_v9_pilot1","3B3WTRP3DB3WP3041T6OVBK5EQ629D","38","0","DOORWAY","1","5","1","2532","DOORWAY","1","2018-01-08 22:32:02","149374"
"A1761MS0XW2OHR","cs_wg_v9_pilot1","3B3WTRP3DB3WP3041T6OVBK5EQ629D","39","0","UMBRELLA","10","5","0","1071","UMBRELLA","10","2018-01-08 22:32:12","149375"
"A2248WCN03P98C
A2248WCN03P98C","cs_wg_v9_pilot1","3ZWFC4W1UU8MUX82J5LH6FEOTGGRF8","34","0","LADDER","9","5","1","2043","ladder","9","2018-01-08 22:32:14","149376"
"A1761MS0XW2OHR","cs_wg_v9_pilot1","3B3WTRP3DB3WP3041T6OVBK5EQ629D","40","0","DOORWAY","1","5","1","968","DOORWAY","1","2018-01-08 22:32:20","149377"
"A2248WCN03P98C
A2248WCN03P98C","cs_wg_v9_pilot1","3ZWFC4W1UU8MUX82J5LH6FEOTGGRF8","35","0","FOOTBALL","10","5","0","3379","football","10","2018-01-08 22:32:27","149378"
"A1761MS0XW2OHR","cs_wg_v9_pilot1","3B3WTRP3DB3WP3041T6OVBK5EQ629D","41","0","KEYBOARD","0","5","1","1625","KEYBOARD","0","2018-01-08 22:32:30","149379"
"A1761MS0XW2OHR","cs_wg_v9_pilot1","3B3WTRP3DB3WP3041T6OVBK5EQ629D","42","0","TRAFFIC","10","5","1","1187","TRAFFIC","10","2018-01-08 22:32:40","149380"
"A2248WCN03P98C
A2248WCN03P98C","cs_wg_v9_pilot1","3ZWFC4W1UU8MUX82J5LH6FEOTGGRF8","36","0","STRUCTURE","9","5","0","4191","structure","9","2018-01-08 22:32:43","149381"
"A1761MS0XW2OHR","cs_wg_v9_pilot1","3B3WTRP3DB3WP3041T6OVBK5EQ629D","43","0","TRAFFIC","10","5","0","2102","TRAFFIC","10","2018-01-08 22:32:51","149382"
"A2248WCN03P98C
A2248WCN03P98C","cs_wg_v9_pilot1","3ZWFC4W1UU8MUX82J5LH6FEOTGGRF8","37","0","STOMACH","10","5","0","2162","stomach","10","2018-01-08 22:32:57","149383"
"A1761MS0XW2OHR","cs_wg_v9_pilot1","3B3WTRP3DB3WP3041T6OVBK5EQ629D","44","0","MACHINE","1","5","1","1122","MACHINE","1","2018-01-08 22:33:01","149384"
"A1761MS0XW2OHR","cs_wg_v9_pilot1","3B3WTRP3DB3WP3041T6OVBK5EQ629D","45","0","WEDDING","0","5","0","1142","WEDDING","0","2018-01-08 22:33:10","149385"
"A2248WCN03P98C
A2248WCN03P98C","cs_wg_v9_pilot1","3ZWFC4W1UU8MUX82J5LH6FEOTGGRF8","38","0","DOORWAY","0","5","1","3323","doorway","0","2018-01-08 22:33:10","149386"
"A1761MS0XW2OHR","cs_wg_v9_pilot1","3B3WTRP3DB3WP3041T6OVBK5EQ629D","46","0","STOMACH","0","5","1","914","STOMACH","0","2018-01-08 22:33:19","149387"
"A2248WCN03P98C
A2248WCN03P98C","cs_wg_v9_pilot1","3ZWFC4W1UU8MUX82J5LH6FEOTGGRF8","39","0","BOOKSHELF","1","5","1","3730","bookshelf","1","2018-01-08 22:33:26","149388"
"A1761MS0XW2OHR","cs_wg_v9_pilot1","3B3WTRP3DB3WP3041T6OVBK5EQ629D","47","0","BASKET","0","5","1","976","BASKET","0","2018-01-08 22:33:28","149389"
"A1761MS0XW2OHR","cs_wg_v9_pilot1","3B3WTRP3DB3WP3041T6OVBK5EQ629D","48","0","STRUCTURE","9","5","0","873","STRUCTURE","9","2018-01-08 22:33:36","149390"
"A2248WCN03P98C
A2248WCN03P98C","cs_wg_v9_pilot1","3ZWFC4W1UU8MUX82J5LH6FEOTGGRF8","40","0","BASKET","0","5","1","6205","basket","0","2018-01-08 22:33:43","149391"
"A1761MS0XW2OHR","cs_wg_v9_pilot1","3B3WTRP3DB3WP3041T6OVBK5EQ629D","49","0","TRAFFIC","10","5","0","1046","TRAFFIC","10","2018-01-08 22:33:45","149392"
"A1761MS0XW2OHR","cs_wg_v9_pilot1","3B3WTRP3DB3WP3041T6OVBK5EQ629D","50","0","WEDDING","0","5","1","924","WEDDING","0","2018-01-08 22:33:57","149393"
"A2248WCN03P98C
A2248WCN03P98C","cs_wg_v9_pilot1","3ZWFC4W1UU8MUX82J5LH6FEOTGGRF8","41","0","HELICOPTER","10","5","0","1687","helicopter","10","2018-01-08 22:34:00","149394"
"A1761MS0XW2OHR","cs_wg_v9_pilot1","3B3WTRP3DB3WP3041T6OVBK5EQ629D","51","0","BASKET","0","5","1","779","BASKET","0","2018-01-08 22:34:07","149395"
"A2248WCN03P98C
A2248WCN03P98C","cs_wg_v9_pilot1","3ZWFC4W1UU8MUX82J5LH6FEOTGGRF8","42","0","UMBRELLA","1","5","1","3763","umbrella","1","2018-01-08 22:34:14","149396"
"A1761MS0XW2OHR","cs_wg_v9_pilot1","3B3WTRP3DB3WP3041T6OVBK5EQ629D","52","0","TRAFFIC","10","5","0","1040","TRAFFIC","10","2018-01-08 22:34:17","149397"
"A1761MS0XW2OHR","cs_wg_v9_pilot1","3B3WTRP3DB3WP3041T6OVBK5EQ629D","53","0","BASKET","0","5","1","794","BASKET","0","2018-01-08 22:34:25","149398"
"A2248WCN03P98C
A2248WCN03P98C","cs_wg_v9_pilot1","3ZWFC4W1UU8MUX82J5LH6FEOTGGRF8","43","0","TRAFFIC","0","5","0","4620","traffic","0","2018-01-08 22:34:30","149399"
"A1761MS0XW2OHR","cs_wg_v9_pilot1","3B3WTRP3DB3WP3041T6OVBK5EQ629D","54","0","BOOKSHELF","1","5","0","1453","BOOKSHELF","1","2018-01-08 22:34:36","149400"
"A2248WCN03P98C
A2248WCN03P98C","cs_wg_v9_pilot1","3ZWFC4W1UU8MUX82J5LH6FEOTGGRF8","44","0","UMBRELLA","1","5","1","2974","umbrella","1","2018-01-08 22:34:44","149401"
"A1761MS0XW2OHR","cs_wg_v9_pilot1","3B3WTRP3DB3WP3041T6OVBK5EQ629D","55","0","FOOTBALL","9","5","0","1042","FOOTBALL","9","2018-01-08 22:34:46","149402"
"A2248WCN03P98C
A2248WCN03P98C","cs_wg_v9_pilot1","3ZWFC4W1UU8MUX82J5LH6FEOTGGRF8","45","0","STOMACH","10","5","0","1984","stomach","10","2018-01-08 22:34:55","149403"
"A1761MS0XW2OHR","cs_wg_v9_pilot1","3B3WTRP3DB3WP3041T6OVBK5EQ629D","56","0","FOOTBALL","9","5","0","1638","FOOBALL","9","2018-01-08 22:34:57","149404"
"A1761MS0XW2OHR","cs_wg_v9_pilot1","3B3WTRP3DB3WP3041T6OVBK5EQ629D","57","0","LADDER","10","5","0","1323","LADDER","10","2018-01-08 22:35:06","149405"
"A2248WCN03P98C
A2248WCN03P98C","cs_wg_v9_pilot1","3ZWFC4W1UU8MUX82J5LH6FEOTGGRF8","46","0","LADDER","9","5","1","2958","ladder","9","2018-01-08 22:35:08","149406"
"A1761MS0XW2OHR","cs_wg_v9_pilot1","3B3WTRP3DB3WP3041T6OVBK5EQ629D","58","0","LADDER","10","5","0","879","LADDER","10","2018-01-08 22:35:15","149407"
"A2248WCN03P98C
A2248WCN03P98C","cs_wg_v9_pilot1","3ZWFC4W1UU8MUX82J5LH6FEOTGGRF8","47","0","MACHINE","1","5","0","3241","machine","1","2018-01-08 22:35:22","149408"
"A1761MS0XW2OHR","cs_wg_v9_pilot1","3B3WTRP3DB3WP3041T6OVBK5EQ629D","59","0","UMBRELLA","10","5","0","823","UMBRELLA","10","2018-01-08 22:35:24","149409"
"A1761MS0XW2OHR","cs_wg_v9_pilot1","3B3WTRP3DB3WP3041T6OVBK5EQ629D","60","0","STOMACH","0","5","1","1021","STOMACH","0","2018-01-08 22:35:33","149410"
"A2248WCN03P98C
A2248WCN03P98C","cs_wg_v9_pilot1","3ZWFC4W1UU8MUX82J5LH6FEOTGGRF8","48","0","STRUCTURE","9","5","0","2139","structure","9","2018-01-08 22:35:35","149411"
"A1761MS0XW2OHR","cs_wg_v9_pilot1","3B3WTRP3DB3WP3041T6OVBK5EQ629D","61","0","BOOKSHELF","1","5","1","1760","BOOKSHELF","0","2018-01-08 22:35:44","149412"
"A2248WCN03P98C
A2248WCN03P98C","cs_wg_v9_pilot1","3ZWFC4W1UU8MUX82J5LH6FEOTGGRF8","49","0","FOOTBALL","10","5","0","1324","football","10","2018-01-08 22:35:47","149413"
"A1761MS0XW2OHR","cs_wg_v9_pilot1","3B3WTRP3DB3WP3041T6OVBK5EQ629D","62","0","COMMUNITY","10","5","0","1002","COMMUNITY","10","2018-01-08 22:35:54","149414"
"A2248WCN03P98C
A2248WCN03P98C","cs_wg_v9_pilot1","3ZWFC4W1UU8MUX82J5LH6FEOTGGRF8","50","0","COMMUNITY","10","5","0","2188","community","10","2018-01-08 22:35:59","149415"
"A1761MS0XW2OHR","cs_wg_v9_pilot1","3B3WTRP3DB3WP3041T6OVBK5EQ629D","63","0","MACHINE","1","5","1","891","MACHINE","1","2018-01-08 22:36:04","149416"
"A1761MS0XW2OHR","cs_wg_v9_pilot1","3B3WTRP3DB3WP3041T6OVBK5EQ629D","64","0","LADDER","10","5","0","940","LADDER","10","2018-01-08 22:36:12","149417"
"A2248WCN03P98C
A2248WCN03P98C","cs_wg_v9_pilot1","3ZWFC4W1UU8MUX82J5LH6FEOTGGRF8","51","0","MACHINE","1","5","0","6187","machine","1","2018-01-08 22:36:15","149418"
"A1761MS0XW2OHR","cs_wg_v9_pilot1","3B3WTRP3DB3WP3041T6OVBK5EQ629D","65","0","BOOKSHELF","1","5","1","962","BOOKSHELF","1","2018-01-08 22:36:22","149419"
"A2248WCN03P98C
A2248WCN03P98C","cs_wg_v9_pilot1","3ZWFC4W1UU8MUX82J5LH6FEOTGGRF8","52","0","STRUCTURE","9","5","0","2279","structure","9","2018-01-08 22:36:33","149420"
"A1761MS0XW2OHR","cs_wg_v9_pilot1","3B3WTRP3DB3WP3041T6OVBK5EQ629D","66","0","HELICOPTER","9","5","0","1118","HELICOPTER","9","2018-01-08 22:36:34","149421"
"A1761MS0XW2OHR","cs_wg_v9_pilot1","3B3WTRP3DB3WP3041T6OVBK5EQ629D","67","0","WEDDING","0","5","1","1248","WEDDING","0","2018-01-08 22:36:43","149422"
"A2248WCN03P98C
A2248WCN03P98C","cs_wg_v9_pilot1","3ZWFC4W1UU8MUX82J5LH6FEOTGGRF8","53","0","KEYBOARD","9","5","0","2933","keyboard","9","2018-01-08 22:36:47","149423"
"A1761MS0XW2OHR","cs_wg_v9_pilot1","3B3WTRP3DB3WP3041T6OVBK5EQ629D","68","0","MACHINE","1","5","1","962","MACHINE","1","2018-01-08 22:36:51","149424"
"A2248WCN03P98C
A2248WCN03P98C","cs_wg_v9_pilot1","3ZWFC4W1UU8MUX82J5LH6FEOTGGRF8","54","0","KEYBOARD","9","5","0","1710","keyboard","9","2018-01-08 22:37:00","149425"
"A1761MS0XW2OHR","cs_wg_v9_pilot1","3B3WTRP3DB3WP3041T6OVBK5EQ629D","69","0","FOOTBALL","9","5","0","1301","FOOTBALL","9","2018-01-08 22:37:01","149426"
"A2248WCN03P98C
A2248WCN03P98C","cs_wg_v9_pilot1","3ZWFC4W1UU8MUX82J5LH6FEOTGGRF8","55","0","WEDDING","0","5","1","2450","wedding","0","2018-01-08 22:37:11","149427"
"A1761MS0XW2OHR","cs_wg_v9_pilot1","3B3WTRP3DB3WP3041T6OVBK5EQ629D","70","0","COMMUNITY","10","5","0","990","COMMUNITY","10","2018-01-08 22:37:11","149428"
"A1761MS0XW2OHR","cs_wg_v9_pilot1","3B3WTRP3DB3WP3041T6OVBK5EQ629D","71","0","STOMACH","0","5","1","824","STOMACH","0","2018-01-08 22:37:20","149429"
"A2248WCN03P98C
A2248WCN03P98C","cs_wg_v9_pilot1","3ZWFC4W1UU8MUX82J5LH6FEOTGGRF8","56","0","FOOTBALL","10","5","0","1364","football","10","2018-01-08 22:37:24","149430"
"A1761MS0XW2OHR","cs_wg_v9_pilot1","3B3WTRP3DB3WP3041T6OVBK5EQ629D","72","0","UMBRELLA","10","5","0","811","UMBRELLA","10","2018-01-08 22:37:29","149431"
"A2248WCN03P98C
A2248WCN03P98C","cs_wg_v9_pilot1","3ZWFC4W1UU8MUX82J5LH6FEOTGGRF8","57","0","DOORWAY","0","5","1","2862","doorway","0","2018-01-08 22:37:37","149432"
"A1761MS0XW2OHR","cs_wg_v9_pilot1","3B3WTRP3DB3WP3041T6OVBK5EQ629D","73","0","DOORWAY","1","5","1","958","DOORWAY","1","2018-01-08 22:37:37","149433"
"A1761MS0XW2OHR","cs_wg_v9_pilot1","3B3WTRP3DB3WP3041T6OVBK5EQ629D","74","0","FOOTBALL","9","5","0","898","FOOTBALL","9","2018-01-08 22:37:47","149434"
"A2248WCN03P98C
A2248WCN03P98C","cs_wg_v9_pilot1","3ZWFC4W1UU8MUX82J5LH6FEOTGGRF8","58","0","FOOTBALL","10","5","0","1601","football","10","2018-01-08 22:37:50","149435"
"A1761MS0XW2OHR","cs_wg_v9_pilot1","3B3WTRP3DB3WP3041T6OVBK5EQ629D","75","0","BASKET","0","5","1","1054","BASKET","0","2018-01-08 22:37:56","149436"
"A2248WCN03P98C
A2248WCN03P98C","cs_wg_v9_pilot1","3ZWFC4W1UU8MUX82J5LH6FEOTGGRF8","59","0","FOOTBALL","10","5","0","1640","football","10","2018-01-08 22:38:01","149437"
"A1761MS0XW2OHR","cs_wg_v9_pilot1","3B3WTRP3DB3WP3041T6OVBK5EQ629D","76","0","COMMUNITY","10","5","0","838","COMMUNITY","10","2018-01-08 22:38:05","149438"
"A2248WCN03P98C
A2248WCN03P98C","cs_wg_v9_pilot1","3ZWFC4W1UU8MUX82J5LH6FEOTGGRF8","60","0","UMBRELLA","1","5","1","2465","umbrella","1","2018-01-08 22:38:13","149439"
"A1761MS0XW2OHR","cs_wg_v9_pilot1","3B3WTRP3DB3WP3041T6OVBK5EQ629D","77","0","WEDDING","0","5","1","1012","WEDDING","0","2018-01-08 22:38:16","149440"
"A1761MS0XW2OHR","cs_wg_v9_pilot1","3B3WTRP3DB3WP3041T6OVBK5EQ629D","78","0","HELICOPTER","9","5","0","982","HELICOPTER","9","2018-01-08 22:38:25","149441"
"A2248WCN03P98C
A2248WCN03P98C","cs_wg_v9_pilot1","3ZWFC4W1UU8MUX82J5LH6FEOTGGRF8","61","0","STRUCTURE","9","5","0","2945","structure","9","2018-01-08 22:38:27","149442"
"A1761MS0XW2OHR","cs_wg_v9_pilot1","3B3WTRP3DB3WP3041T6OVBK5EQ629D","79","0","STOMACH","0","5","1","835","STOMACH","0","2018-01-08 22:38:35","149443"
"A2248WCN03P98C
A2248WCN03P98C","cs_wg_v9_pilot1","3ZWFC4W1UU8MUX82J5LH6FEOTGGRF8","62","0","COMMUNITY","10","5","0","1821","community","10","2018-01-08 22:38:41","149444"
"A1761MS0XW2OHR","cs_wg_v9_pilot1","3B3WTRP3DB3WP3041T6OVBK5EQ629D","80","0","TRAFFIC","10","5","0","1019","TRAFFIC","10","2018-01-08 22:38:44","149445"
"A1761MS0XW2OHR","cs_wg_v9_pilot1","3B3WTRP3DB3WP3041T6OVBK5EQ629D","81","0","STRUCTURE","9","5","0","890","STRUCTURE","9","2018-01-08 22:38:53","149446"
"A2248WCN03P98C
A2248WCN03P98C","cs_wg_v9_pilot1","3ZWFC4W1UU8MUX82J5LH6FEOTGGRF8","63","0","DOORWAY","0","5","1","2714","doorway","0","2018-01-08 22:38:54","149447"
"A1761MS0XW2OHR","cs_wg_v9_pilot1","3B3WTRP3DB3WP3041T6OVBK5EQ629D","82","0","KEYBOARD","0","5","1","833","KEYBOARD","0","2018-01-08 22:39:02","149448"
"A2248WCN03P98C
A2248WCN03P98C","cs_wg_v9_pilot1","3ZWFC4W1UU8MUX82J5LH6FEOTGGRF8","64","0","BOOKSHELF","1","5","0","2237","bookshelf","1","2018-01-08 22:39:06","149449"
"A1761MS0XW2OHR","cs_wg_v9_pilot1","3B3WTRP3DB3WP3041T6OVBK5EQ629D","83","0","DOORWAY","1","5","1","779","DOORWAY","1","2018-01-08 22:39:09","149450"
"A1761MS0XW2OHR","cs_wg_v9_pilot1","3B3WTRP3DB3WP3041T6OVBK5EQ629D","84","0","LADDER","10","5","0","1066","LADDER","10","2018-01-08 22:39:18","149451"
"A2248WCN03P98C
A2248WCN03P98C","cs_wg_v9_pilot1","3ZWFC4W1UU8MUX82J5LH6FEOTGGRF8","65","0","KEYBOARD","9","5","0","3276","keyboard","9","2018-01-08 22:39:23","149452"
"A1761MS0XW2OHR","cs_wg_v9_pilot1","3B3WTRP3DB3WP3041T6OVBK5EQ629D","85","0","STRUCTURE","9","5","0","875","STRUCTURE","9","2018-01-08 22:39:27","149453"
"A2248WCN03P98C
A2248WCN03P98C","cs_wg_v9_pilot1","3ZWFC4W1UU8MUX82J5LH6FEOTGGRF8","66","0","DOORWAY","0","5","1","2317","doorway","0","2018-01-08 22:39:36","149454"
"A1761MS0XW2OHR","cs_wg_v9_pilot1","3B3WTRP3DB3WP3041T6OVBK5EQ629D","86","0","STRUCTURE","9","5","0","744","STRUCTURE","9","2018-01-08 22:39:40","149455"
"A2248WCN03P98C
A2248WCN03P98C","cs_wg_v9_pilot1","3ZWFC4W1UU8MUX82J5LH6FEOTGGRF8","67","0","WEDDING","0","5","1","1871","wedding","0","2018-01-08 22:39:47","149456"
"A1761MS0XW2OHR","cs_wg_v9_pilot1","3B3WTRP3DB3WP3041T6OVBK5EQ629D","87","0","BOOKSHELF","1","5","1","757","BOOKSHELF","1","2018-01-08 22:39:50","149457"
"A1761MS0XW2OHR","cs_wg_v9_pilot1","3B3WTRP3DB3WP3041T6OVBK5EQ629D","88","0","KEYBOARD","0","5","1","750","KEYBOARD","0","2018-01-08 22:40:00","149458"
"A2248WCN03P98C
A2248WCN03P98C","cs_wg_v9_pilot1","3ZWFC4W1UU8MUX82J5LH6FEOTGGRF8","68","0","LADDER","9","5","0","3942","ladder","9","2018-01-08 22:40:01","149459"
"A1761MS0XW2OHR","cs_wg_v9_pilot1","3B3WTRP3DB3WP3041T6OVBK5EQ629D","89","0","UMBRELLA","10","5","0","934","UMBRELLA","10","2018-01-08 22:40:11","149460"
"A2248WCN03P98C
A2248WCN03P98C","cs_wg_v9_pilot1","3ZWFC4W1UU8MUX82J5LH6FEOTGGRF8","69","0","STRUCTURE","9","5","0","1890","structure","9","2018-01-08 22:40:14","149461"
"A1761MS0XW2OHR","cs_wg_v9_pilot1","3B3WTRP3DB3WP3041T6OVBK5EQ629D","90","0","LADDER","10","5","0","949","LADDER","10","2018-01-08 22:40:22","149462"
"A2248WCN03P98C
A2248WCN03P98C","cs_wg_v9_pilot1","3ZWFC4W1UU8MUX82J5LH6FEOTGGRF8","70","0","WEDDING","0","5","1","1526","wedding","0","2018-01-08 22:40:25","149463"
"A1761MS0XW2OHR","cs_wg_v9_pilot1","3B3WTRP3DB3WP3041T6OVBK5EQ629D","91","0","WEDDING","0","5","1","909","WEDDING","0","2018-01-08 22:40:30","149464"
"A2248WCN03P98C
A2248WCN03P98C","cs_wg_v9_pilot1","3ZWFC4W1UU8MUX82J5LH6FEOTGGRF8","71","0","STRUCTURE","9","5","0","1225","structure","9","2018-01-08 22:40:37","149465"
"A1761MS0XW2OHR","cs_wg_v9_pilot1","3B3WTRP3DB3WP3041T6OVBK5EQ629D","92","0","STOMACH","0","5","1","772","STOMACH","0","2018-01-08 22:40:39","149466"
"A1761MS0XW2OHR","cs_wg_v9_pilot1","3B3WTRP3DB3WP3041T6OVBK5EQ629D","93","0","STOMACH","0","5","1","813","STOMACH","0","2018-01-08 22:40:48","149467"
"A2248WCN03P98C
A2248WCN03P98C","cs_wg_v9_pilot1","3ZWFC4W1UU8MUX82J5LH6FEOTGGRF8","72","0","KEYBOARD","9","5","0","2453","keyboard","9","2018-01-08 22:40:50","149468"
"A1761MS0XW2OHR","cs_wg_v9_pilot1","3B3WTRP3DB3WP3041T6OVBK5EQ629D","94","0","COMMUNITY","10","5","0","1019","COMMUNITY","10","2018-01-08 22:40:58","149469"
"A2248WCN03P98C
A2248WCN03P98C","cs_wg_v9_pilot1","3ZWFC4W1UU8MUX82J5LH6FEOTGGRF8","73","0","LADDER","9","5","0","2167","ladder","9","2018-01-08 22:41:02","149470"
"A1761MS0XW2OHR","cs_wg_v9_pilot1","3B3WTRP3DB3WP3041T6OVBK5EQ629D","95","0","FOOTBALL","9","5","0","913","FOOTBALL","9","2018-01-08 22:41:09","149471"
"A2248WCN03P98C
A2248WCN03P98C","cs_wg_v9_pilot1","3ZWFC4W1UU8MUX82J5LH6FEOTGGRF8","74","0","STOMACH","10","5","0","3865","stomach","10","2018-01-08 22:41:16","149472"
"A1761MS0XW2OHR","cs_wg_v9_pilot1","3B3WTRP3DB3WP3041T6OVBK5EQ629D","96","0","BASKET","0","5","1","802","BASKET","0","2018-01-08 22:41:18","149473"
"A2248WCN03P98C
A2248WCN03P98C","cs_wg_v9_pilot1","3ZWFC4W1UU8MUX82J5LH6FEOTGGRF8","75","0","TRAFFIC","0","5","1","2810","traffic","0","2018-01-08 22:41:28","149474"
"A1761MS0XW2OHR","cs_wg_v9_pilot1","3B3WTRP3DB3WP3041T6OVBK5EQ629D","97","0","STRUCTURE","9","5","0","833","STRUCTURE","9","2018-01-08 22:41:30","149475"
"A1761MS0XW2OHR","cs_wg_v9_pilot1","3B3WTRP3DB3WP3041T6OVBK5EQ629D","98","0","STRUCTURE","9","5","0","1638","STRUCTURE","9","2018-01-08 22:41:39","149476"
"A2248WCN03P98C
A2248WCN03P98C","cs_wg_v9_pilot1","3ZWFC4W1UU8MUX82J5LH6FEOTGGRF8","76","0","BOOKSHELF","1","5","1","1582","bookshelf","1","2018-01-08 22:41:40","149477"
"A1761MS0XW2OHR","cs_wg_v9_pilot1","3B3WTRP3DB3WP3041T6OVBK5EQ629D","99","0","BASKET","0","5","1","719","BASKET","0","2018-01-08 22:41:48","149478"
"A2248WCN03P98C
A2248WCN03P98C","cs_wg_v9_pilot1","3ZWFC4W1UU8MUX82J5LH6FEOTGGRF8","77","0","BOOKSHELF","1","5","1","1783","bookshelf","1","2018-01-08 22:41:53","149479"
"A1761MS0XW2OHR","cs_wg_v9_pilot1","3B3WTRP3DB3WP3041T6OVBK5EQ629D","100","0","COMMUNITY","10","5","0","719","COMMUNITY","10","2018-01-08 22:41:57","149480"
"A1761MS0XW2OHR","cs_wg_v9_pilot1","3B3WTRP3DB3WP3041T6OVBK5EQ629D","101","0","TRAFFIC","10","5","0","928","TRAFFIC","10","2018-01-08 22:42:06","149481"
"A2248WCN03P98C
A2248WCN03P98C","cs_wg_v9_pilot1","3ZWFC4W1UU8MUX82J5LH6FEOTGGRF8","78","0","FOOTBALL","10","5","0","1880","football","10","2018-01-08 22:42:06","149482"
"A1761MS0XW2OHR","cs_wg_v9_pilot1","3B3WTRP3DB3WP3041T6OVBK5EQ629D","102","0","KEYBOARD","0","5","1","792","KEYBOARD","0","2018-01-08 22:42:15","149483"
"A2248WCN03P98C
A2248WCN03P98C","cs_wg_v9_pilot1","3ZWFC4W1UU8MUX82J5LH6FEOTGGRF8","79","0","TRAFFIC","0","5","1","2089","traffic","0","2018-01-08 22:42:20","149484"
"A1761MS0XW2OHR","cs_wg_v9_pilot1","3B3WTRP3DB3WP3041T6OVBK5EQ629D","103","0","WEDDING","0","5","1","957","WEDDING","0","2018-01-08 22:42:23","149485"
"A2248WCN03P98C
A2248WCN03P98C","cs_wg_v9_pilot1","3ZWFC4W1UU8MUX82J5LH6FEOTGGRF8","80","0","WEDDING","0","5","1","1661","wedding","0","2018-01-08 22:42:32","149486"
"A1761MS0XW2OHR","cs_wg_v9_pilot1","3B3WTRP3DB3WP3041T6OVBK5EQ629D","104","0","BOOKSHELF","1","5","1","901","BOOKSHELF","1","2018-01-08 22:42:32","149487"
"A1761MS0XW2OHR","cs_wg_v9_pilot1","3B3WTRP3DB3WP3041T6OVBK5EQ629D","105","0","WEDDING","0","5","1","743","WEDDING","0","2018-01-08 22:42:40","149488"
"A2248WCN03P98C
A2248WCN03P98C","cs_wg_v9_pilot1","3ZWFC4W1UU8MUX82J5LH6FEOTGGRF8","81","0","BASKET","0","5","1","2801","basket","0","2018-01-08 22:42:47","149489"
"A1761MS0XW2OHR","cs_wg_v9_pilot1","3B3WTRP3DB3WP3041T6OVBK5EQ629D","106","0","TRAFFIC","10","5","0","859","TRAFFIC","10","2018-01-08 22:42:51","149490"
"A2248WCN03P98C
A2248WCN03P98C","cs_wg_v9_pilot1","3ZWFC4W1UU8MUX82J5LH6FEOTGGRF8","82","0","LADDER","9","5","0","2476","ladder","9","2018-01-08 22:42:59","149491"
"A1761MS0XW2OHR","cs_wg_v9_pilot1","3B3WTRP3DB3WP3041T6OVBK5EQ629D","107","0","FOOTBALL","9","5","0","869","FOOTBALL","9","2018-01-08 22:43:00","149492"
"A1761MS0XW2OHR","cs_wg_v9_pilot1","3B3WTRP3DB3WP3041T6OVBK5EQ629D","108","0","WEDDING","0","5","1","1012","WEDDING","0","2018-01-08 22:43:09","149493"
"A2248WCN03P98C
A2248WCN03P98C","cs_wg_v9_pilot1","3ZWFC4W1UU8MUX82J5LH6FEOTGGRF8","83","0","TRAFFIC","0","5","1","3418","traffic","0","2018-01-08 22:43:12","149494"
"A1761MS0XW2OHR","cs_wg_v9_pilot1","3B3WTRP3DB3WP3041T6OVBK5EQ629D","109","0","KEYBOARD","0","5","1","762","KEYBOARD","0","2018-01-08 22:43:17","149495"
"A1761MS0XW2OHR","cs_wg_v9_pilot1","3B3WTRP3DB3WP3041T6OVBK5EQ629D","110","0","DOORWAY","1","5","1","678","DOORWAY","1","2018-01-08 22:43:25","149496"
"A2248WCN03P98C
A2248WCN03P98C","cs_wg_v9_pilot1","3ZWFC4W1UU8MUX82J5LH6FEOTGGRF8","84","0","HELICOPTER","10","5","0","1426","helicopter","10","2018-01-08 22:43:25","149497"
"A1761MS0XW2OHR","cs_wg_v9_pilot1","3B3WTRP3DB3WP3041T6OVBK5EQ629D","111","0","TRAFFIC","10","5","0","951","TRAFFIC","10","2018-01-08 22:43:33","149498"
"A2248WCN03P98C
A2248WCN03P98C","cs_wg_v9_pilot1","3ZWFC4W1UU8MUX82J5LH6FEOTGGRF8","85","0","BOOKSHELF","1","5","1","2173","bookshelf","1","2018-01-08 22:43:37","149499"
"A2248WCN03P98C
A2248WCN03P98C","cs_wg_v9_pilot1","3ZWFC4W1UU8MUX82J5LH6FEOTGGRF8","86","0","UMBRELLA","1","5","1","1512","umbrella","1","2018-01-08 22:43:53","149500"
"A2248WCN03P98C
A2248WCN03P98C","cs_wg_v9_pilot1","3ZWFC4W1UU8MUX82J5LH6FEOTGGRF8","87","0","MACHINE","1","5","1","3734","machine","1","2018-01-08 22:44:06","149501"
"A2248WCN03P98C
A2248WCN03P98C","cs_wg_v9_pilot1","3ZWFC4W1UU8MUX82J5LH6FEOTGGRF8","88","0","MACHINE","1","5","1","1561","machine","1","2018-01-08 22:44:18","149502"
"A2248WCN03P98C
A2248WCN03P98C","cs_wg_v9_pilot1","3ZWFC4W1UU8MUX82J5LH6FEOTGGRF8","89","0","LADDER","9","5","0","1780","ladder","9","2018-01-08 22:44:28","149503"
"A2248WCN03P98C
A2248WCN03P98C","cs_wg_v9_pilot1","3ZWFC4W1UU8MUX82J5LH6FEOTGGRF8","90","0","BOOKSHELF","1","5","1","2681","bookshelf","1","2018-01-08 22:44:44","149504"
"A2248WCN03P98C
A2248WCN03P98C","cs_wg_v9_pilot1","3ZWFC4W1UU8MUX82J5LH6FEOTGGRF8","91","0","WEDDING","0","5","1","1527","wedding","0","2018-01-08 22:44:55","149505"
"A3LLXN0CPK7N5B","cs_wg_v9_pilot1","3HPZF4IVNMUOOM0E6YNA65MIZQ4CYL","0","0","UMBRELLA","10","5","0","4940","umbrella","10","2018-01-08 22:45:00","149506"
"A2248WCN03P98C
A2248WCN03P98C","cs_wg_v9_pilot1","3ZWFC4W1UU8MUX82J5LH6FEOTGGRF8","92","0","DOORWAY","0","5","1","2080","doorway","0","2018-01-08 22:45:07","149507"
"A3LLXN0CPK7N5B","cs_wg_v9_pilot1","3HPZF4IVNMUOOM0E6YNA65MIZQ4CYL","1","0","HELICOPTER","10","5","0","3605","helicopter","10","2018-01-08 22:45:16","149508"
"A2248WCN03P98C
A2248WCN03P98C","cs_wg_v9_pilot1","3ZWFC4W1UU8MUX82J5LH6FEOTGGRF8","93","0","DOORWAY","0","5","1","2062","doorway","0","2018-01-08 22:45:19","149509"
"A3LLXN0CPK7N5B","cs_wg_v9_pilot1","3HPZF4IVNMUOOM0E6YNA65MIZQ4CYL","2","0","BOOKSHELF","9","5","1","2739","bookshelf","9","2018-01-08 22:45:27","149510"
"A2248WCN03P98C
A2248WCN03P98C","cs_wg_v9_pilot1","3ZWFC4W1UU8MUX82J5LH6FEOTGGRF8","94","0","COMMUNITY","10","5","0","1546","community","1","2018-01-08 22:45:30","149511"
"A2248WCN03P98C
A2248WCN03P98C","cs_wg_v9_pilot1","3ZWFC4W1UU8MUX82J5LH6FEOTGGRF8","95","0","WEDDING","0","5","1","1294","wedding","0","2018-01-08 22:45:40","149512"
"A3LLXN0CPK7N5B","cs_wg_v9_pilot1","3HPZF4IVNMUOOM0E6YNA65MIZQ4CYL","3","0","KEYBOARD","0","5","0","3872","keyboard","0","2018-01-08 22:45:42","149513"
"A3LLXN0CPK7N5B","cs_wg_v9_pilot1","3HPZF4IVNMUOOM0E6YNA65MIZQ4CYL","4","0","BASKET","0","5","0","2387","basket","0","2018-01-08 22:45:55","149514"
"A2248WCN03P98C
A2248WCN03P98C","cs_wg_v9_pilot1","3ZWFC4W1UU8MUX82J5LH6FEOTGGRF8","96","0","MACHINE","1","5","1","2002","machine","1","2018-01-08 22:45:56","149515"
"A3LLXN0CPK7N5B","cs_wg_v9_pilot1","3HPZF4IVNMUOOM0E6YNA65MIZQ4CYL","5","0","WEDDING","0","5","0","2443","wedding","0","2018-01-08 22:46:06","149516"
"A2248WCN03P98C
A2248WCN03P98C","cs_wg_v9_pilot1","3ZWFC4W1UU8MUX82J5LH6FEOTGGRF8","97","0","TRAFFIC","0","5","1","1723","traffic","0","2018-01-08 22:46:07","149517"
"A3LLXN0CPK7N5B","cs_wg_v9_pilot1","3HPZF4IVNMUOOM0E6YNA65MIZQ4CYL","6","0","STRUCTURE","10","5","0","2149","structure","10","2018-01-08 22:46:16","149518"
"A2248WCN03P98C
A2248WCN03P98C","cs_wg_v9_pilot1","3ZWFC4W1UU8MUX82J5LH6FEOTGGRF8","98","0","STOMACH","10","5","0","2420","stomach","10","2018-01-08 22:46:21","149519"
"A3LLXN0CPK7N5B","cs_wg_v9_pilot1","3HPZF4IVNMUOOM0E6YNA65MIZQ4CYL","7","0","KEYBOARD","0","5","0","2278","keyboard","0","2018-01-08 22:46:27","149520"
"A2248WCN03P98C
A2248WCN03P98C","cs_wg_v9_pilot1","3ZWFC4W1UU8MUX82J5LH6FEOTGGRF8","99","0","FOOTBALL","10","5","0","1444","football","10","2018-01-08 22:46:31","149521"
"A3LLXN0CPK7N5B","cs_wg_v9_pilot1","3HPZF4IVNMUOOM0E6YNA65MIZQ4CYL","8","0","LADDER","10","5","0","1417","ladder","10","2018-01-08 22:46:40","149522"
"A2248WCN03P98C
A2248WCN03P98C","cs_wg_v9_pilot1","3ZWFC4W1UU8MUX82J5LH6FEOTGGRF8","100","0","LADDER","9","5","1","2037","ladder","9","2018-01-08 22:46:44","149523"
"A3LLXN0CPK7N5B","cs_wg_v9_pilot1","3HPZF4IVNMUOOM0E6YNA65MIZQ4CYL","9","0","MACHINE","9","5","0","1733","machine","9","2018-01-08 22:46:50","149524"
"A2248WCN03P98C
A2248WCN03P98C","cs_wg_v9_pilot1","3ZWFC4W1UU8MUX82J5LH6FEOTGGRF8","101","0","HELICOPTER","10","5","0","1641","helicopter","10","2018-01-08 22:46:56","149525"
"A3LLXN0CPK7N5B","cs_wg_v9_pilot1","3HPZF4IVNMUOOM0E6YNA65MIZQ4CYL","10","0","UMBRELLA","10","5","0","1847","umbrella","10","2018-01-08 22:47:03","149526"
"A2248WCN03P98C
A2248WCN03P98C","cs_wg_v9_pilot1","3ZWFC4W1UU8MUX82J5LH6FEOTGGRF8","102","0","TRAFFIC","0","5","1","2312","traffic","0","2018-01-08 22:47:08","149527"
"A3LLXN0CPK7N5B","cs_wg_v9_pilot1","3HPZF4IVNMUOOM0E6YNA65MIZQ4CYL","11","0","STRUCTURE","10","5","0","3136","structure","10","2018-01-08 22:47:14","149528"
"A2248WCN03P98C
A2248WCN03P98C","cs_wg_v9_pilot1","3ZWFC4W1UU8MUX82J5LH6FEOTGGRF8","103","0","UMBRELLA","1","5","1","2200","umbrella","1","2018-01-08 22:47:21","149529"
"A3LLXN0CPK7N5B","cs_wg_v9_pilot1","3HPZF4IVNMUOOM0E6YNA65MIZQ4CYL","12","0","WEDDING","0","5","1","2252","wedding","0","2018-01-08 22:47:24","149530"
"A3LLXN0CPK7N5B","cs_wg_v9_pilot1","3HPZF4IVNMUOOM0E6YNA65MIZQ4CYL","13","0","BOOKSHELF","9","5","1","2767","bookshelf","9","2018-01-08 22:47:34","149531"
"A2248WCN03P98C
A2248WCN03P98C","cs_wg_v9_pilot1","3ZWFC4W1UU8MUX82J5LH6FEOTGGRF8","104","0","COMMUNITY","10","5","0","3146","community","10","2018-01-08 22:47:36","149532"
"A3LLXN0CPK7N5B","cs_wg_v9_pilot1","3HPZF4IVNMUOOM0E6YNA65MIZQ4CYL","14","0","BASKET","0","5","1","2289","basket","0","2018-01-08 22:47:43","149533"
"A2248WCN03P98C
A2248WCN03P98C","cs_wg_v9_pilot1","3ZWFC4W1UU8MUX82J5LH6FEOTGGRF8","105","0","BASKET","0","5","1","1891","basket","0","2018-01-08 22:47:48","149534"
"A3LLXN0CPK7N5B","cs_wg_v9_pilot1","3HPZF4IVNMUOOM0E6YNA65MIZQ4CYL","15","0","FOOTBALL","0","5","0","2333","football","0","2018-01-08 22:47:53","149535"
"A2248WCN03P98C
A2248WCN03P98C","cs_wg_v9_pilot1","3ZWFC4W1UU8MUX82J5LH6FEOTGGRF8","106","0","TRAFFIC","0","5","1","1546","traffic","0","2018-01-08 22:48:00","149536"
"A3LLXN0CPK7N5B","cs_wg_v9_pilot1","3HPZF4IVNMUOOM0E6YNA65MIZQ4CYL","16","0","MACHINE","9","5","1","1888","machine","9","2018-01-08 22:48:03","149537"
"A3LLXN0CPK7N5B","cs_wg_v9_pilot1","3HPZF4IVNMUOOM0E6YNA65MIZQ4CYL","17","0","TRAFFIC","1","5","1","2147","traffic","1","2018-01-08 22:48:12","149538"
"A2248WCN03P98C
A2248WCN03P98C","cs_wg_v9_pilot1","3ZWFC4W1UU8MUX82J5LH6FEOTGGRF8","107","0","KEYBOARD","9","5","0","1475","keyboard","9","2018-01-08 22:48:13","149539"
"A2248WCN03P98C
A2248WCN03P98C","cs_wg_v9_pilot1","3ZWFC4W1UU8MUX82J5LH6FEOTGGRF8","108","0","DOORWAY","0","5","1","1597","doorway","0","2018-01-08 22:48:24","149540"
"A3LLXN0CPK7N5B","cs_wg_v9_pilot1","3HPZF4IVNMUOOM0E6YNA65MIZQ4CYL","18","0","WEDDING","0","5","1","4577","wedding","0","2018-01-08 22:48:25","149541"
"A3LLXN0CPK7N5B","cs_wg_v9_pilot1","3HPZF4IVNMUOOM0E6YNA65MIZQ4CYL","19","0","HELICOPTER","10","5","0","2425","helicopter","10","2018-01-08 22:48:35","149542"
"A2248WCN03P98C
A2248WCN03P98C","cs_wg_v9_pilot1","3ZWFC4W1UU8MUX82J5LH6FEOTGGRF8","109","0","HELICOPTER","10","5","0","1363","helicopter","10","2018-01-08 22:48:38","149543"
"A3LLXN0CPK7N5B","cs_wg_v9_pilot1","3HPZF4IVNMUOOM0E6YNA65MIZQ4CYL","20","0","UMBRELLA","10","5","0","2270","umbrella","10","2018-01-08 22:48:46","149544"
"A2248WCN03P98C
A2248WCN03P98C","cs_wg_v9_pilot1","3ZWFC4W1UU8MUX82J5LH6FEOTGGRF8","110","0","LADDER","9","5","0","2605","ladder","9","2018-01-08 22:48:50","149545"
"A3LLXN0CPK7N5B","cs_wg_v9_pilot1","3HPZF4IVNMUOOM0E6YNA65MIZQ4CYL","21","0","COMMUNITY","9","5","1","1640","community","9","2018-01-08 22:48:57","149546"
"A2248WCN03P98C
A2248WCN03P98C","cs_wg_v9_pilot1","3ZWFC4W1UU8MUX82J5LH6FEOTGGRF8","111","0","DOORWAY","0","5","1","1657","doorway","0","2018-01-08 22:49:03","149547"
"A3LLXN0CPK7N5B","cs_wg_v9_pilot1","3HPZF4IVNMUOOM0E6YNA65MIZQ4CYL","22","0","BASKET","0","5","1","1593","basket","0","2018-01-08 22:49:06","149548"
"A3LLXN0CPK7N5B","cs_wg_v9_pilot1","3HPZF4IVNMUOOM0E6YNA65MIZQ4CYL","23","0","HELICOPTER","10","5","0","2330","helicopter","10","2018-01-08 22:49:18","149549"
"A3LLXN0CPK7N5B","cs_wg_v9_pilot1","3HPZF4IVNMUOOM0E6YNA65MIZQ4CYL","24","0","LADDER","10","5","1","2345","ladder","10","2018-01-08 22:49:29","149550"
"A3LLXN0CPK7N5B","cs_wg_v9_pilot1","3HPZF4IVNMUOOM0E6YNA65MIZQ4CYL","25","0","COMMUNITY","9","5","0","1827","community","9","2018-01-08 22:49:40","149551"
"A3LLXN0CPK7N5B","cs_wg_v9_pilot1","3HPZF4IVNMUOOM0E6YNA65MIZQ4CYL","26","0","FOOTBALL","0","5","1","1554","football","0","2018-01-08 22:49:51","149552"
"A3LLXN0CPK7N5B","cs_wg_v9_pilot1","3HPZF4IVNMUOOM0E6YNA65MIZQ4CYL","27","0","MACHINE","9","5","1","1599","machine","9","2018-01-08 22:50:04","149553"
"A3LLXN0CPK7N5B","cs_wg_v9_pilot1","3HPZF4IVNMUOOM0E6YNA65MIZQ4CYL","28","0","UMBRELLA","10","5","0","1665","umbrella","10","2018-01-08 22:50:13","149554"
"A3LLXN0CPK7N5B","cs_wg_v9_pilot1","3HPZF4IVNMUOOM0E6YNA65MIZQ4CYL","29","0","WEDDING","0","5","1","2360","umbrella","0","2018-01-08 22:50:22","149555"
"A3LLXN0CPK7N5B","cs_wg_v9_pilot1","3HPZF4IVNMUOOM0E6YNA65MIZQ4CYL","30","0","STRUCTURE","10","5","1","5451","structure","10","2018-01-08 22:50:36","149556"
"A3LLXN0CPK7N5B","cs_wg_v9_pilot1","3HPZF4IVNMUOOM0E6YNA65MIZQ4CYL","31","0","UMBRELLA","10","5","0","1751","umbrella","10","2018-01-08 22:50:45","149557"
"A3LLXN0CPK7N5B","cs_wg_v9_pilot1","3HPZF4IVNMUOOM0E6YNA65MIZQ4CYL","32","0","WEDDING","0","5","1","1813","wedding","0","2018-01-08 22:50:54","149558"
"A3LLXN0CPK7N5B","cs_wg_v9_pilot1","3HPZF4IVNMUOOM0E6YNA65MIZQ4CYL","33","0","FOOTBALL","0","5","1","1822","football","0","2018-01-08 22:51:03","149559"
"A3LLXN0CPK7N5B","cs_wg_v9_pilot1","3HPZF4IVNMUOOM0E6YNA65MIZQ4CYL","34","0","MACHINE","9","5","0","2455","machine","9","2018-01-08 22:51:12","149560"
"A3LLXN0CPK7N5B","cs_wg_v9_pilot1","3HPZF4IVNMUOOM0E6YNA65MIZQ4CYL","35","0","DOORWAY","1","5","0","1961","doorway","1","2018-01-08 22:51:22","149561"
"A3LLXN0CPK7N5B","cs_wg_v9_pilot1","3HPZF4IVNMUOOM0E6YNA65MIZQ4CYL","36","0","TRAFFIC","1","5","1","1577","traffic","1","2018-01-08 22:51:30","149562"
"A3LLXN0CPK7N5B","cs_wg_v9_pilot1","3HPZF4IVNMUOOM0E6YNA65MIZQ4CYL","37","0","HELICOPTER","10","5","0","1241","helicopter","10","2018-01-08 22:51:38","149563"
"A3LLXN0CPK7N5B","cs_wg_v9_pilot1","3HPZF4IVNMUOOM0E6YNA65MIZQ4CYL","38","0","BOOKSHELF","9","5","0","1636","bookshelf","9","2018-01-08 22:51:47","149564"
"A3LLXN0CPK7N5B","cs_wg_v9_pilot1","3HPZF4IVNMUOOM0E6YNA65MIZQ4CYL","39","0","BOOKSHELF","9","5","0","2302","bookshelf","9","2018-01-08 22:51:56","149565"
"A3LLXN0CPK7N5B","cs_wg_v9_pilot1","3HPZF4IVNMUOOM0E6YNA65MIZQ4CYL","40","0","BOOKSHELF","9","5","0","1025","bookshelf","9","2018-01-08 22:52:04","149566"
"A3LLXN0CPK7N5B","cs_wg_v9_pilot1","3HPZF4IVNMUOOM0E6YNA65MIZQ4CYL","41","0","UMBRELLA","10","5","0","941","umbrella","10","2018-01-08 22:52:12","149567"
"A3LLXN0CPK7N5B","cs_wg_v9_pilot1","3HPZF4IVNMUOOM0E6YNA65MIZQ4CYL","42","0","DOORWAY","1","5","0","1776","doorway","1","2018-01-08 22:52:22","149568"
"A3LLXN0CPK7N5B","cs_wg_v9_pilot1","3HPZF4IVNMUOOM0E6YNA65MIZQ4CYL","43","0","STOMACH","1","5","0","2007","stomach","1","2018-01-08 22:52:30","149569"
"A3LLXN0CPK7N5B","cs_wg_v9_pilot1","3HPZF4IVNMUOOM0E6YNA65MIZQ4CYL","44","0","BASKET","0","5","1","2028","basket","0","2018-01-08 22:52:39","149570"
"A3LLXN0CPK7N5B","cs_wg_v9_pilot1","3HPZF4IVNMUOOM0E6YNA65MIZQ4CYL","45","0","COMMUNITY","9","5","0","1322","community","9","2018-01-08 22:52:47","149571"
"A3LLXN0CPK7N5B","cs_wg_v9_pilot1","3HPZF4IVNMUOOM0E6YNA65MIZQ4CYL","46","0","BASKET","0","5","1","2279","basket","0","2018-01-08 22:52:56","149572"
"A2F2DDH12YU4AK","cs_wg_v9_pilot1","3LOTDFNYA70R2TPOIZVNTEM5LWMFWS","0","0","COMMUNITY","1","5","0","5448","Community","1","2018-01-08 23:57:55","149573"
"A2F2DDH12YU4AK","cs_wg_v9_pilot1","3LOTDFNYA70R2TPOIZVNTEM5LWMFWS","1","0","FOOTBALL","0","5","1","4190","football","0","2018-01-08 23:58:14","149574"
"A2F2DDH12YU4AK","cs_wg_v9_pilot1","3LOTDFNYA70R2TPOIZVNTEM5LWMFWS","2","0","UMBRELLA","9","5","1","5127","umbrella","9","2018-01-08 23:58:33","149575"
"A2F2DDH12YU4AK","cs_wg_v9_pilot1","3LOTDFNYA70R2TPOIZVNTEM5LWMFWS","3","0","BASKET","9","5","1","5082","basket","9","2018-01-08 23:58:49","149576"
"A2F2DDH12YU4AK","cs_wg_v9_pilot1","3LOTDFNYA70R2TPOIZVNTEM5LWMFWS","4","0","DOORWAY","10","5","1","6530","doorway","10","2018-01-08 23:59:07","149577"
"A2F2DDH12YU4AK","cs_wg_v9_pilot1","3LOTDFNYA70R2TPOIZVNTEM5LWMFWS","5","0","HELICOPTER","0","5","1","7214","helicopter","0","2018-01-08 23:59:26","149578"
"A2F2DDH12YU4AK","cs_wg_v9_pilot1","3LOTDFNYA70R2TPOIZVNTEM5LWMFWS","6","0","TRAFFIC","1","5","1","4652","traffic","1","2018-01-08 23:59:41","149579"
"A2F2DDH12YU4AK","cs_wg_v9_pilot1","3LOTDFNYA70R2TPOIZVNTEM5LWMFWS","7","0","COMMUNITY","1","5","1","4110","community","1","2018-01-08 23:59:53","149580"
"A2F2DDH12YU4AK","cs_wg_v9_pilot1","3LOTDFNYA70R2TPOIZVNTEM5LWMFWS","8","0","STOMACH","9","5","1","6237","stomach","9","2018-01-09 00:00:10","149581"
"A2F2DDH12YU4AK","cs_wg_v9_pilot1","3LOTDFNYA70R2TPOIZVNTEM5LWMFWS","9","0","LADDER","10","5","1","4894","ladder","10","2018-01-09 00:00:26","149582"
"A2F2DDH12YU4AK","cs_wg_v9_pilot1","3LOTDFNYA70R2TPOIZVNTEM5LWMFWS","10","0","FOOTBALL","0","5","1","6526","football","0","2018-01-09 00:00:42","149583"
"A2F2DDH12YU4AK","cs_wg_v9_pilot1","3LOTDFNYA70R2TPOIZVNTEM5LWMFWS","11","0","HELICOPTER","0","5","1","3101","helicopter","0","2018-01-09 00:00:52","149584"
"A2F2DDH12YU4AK","cs_wg_v9_pilot1","3LOTDFNYA70R2TPOIZVNTEM5LWMFWS","12","0","KEYBOARD","0","5","1","6021","keyboard","0","2018-01-09 00:01:11","149585"
"A2F2DDH12YU4AK","cs_wg_v9_pilot1","3LOTDFNYA70R2TPOIZVNTEM5LWMFWS","13","0","TRAFFIC","1","5","1","3214","traffic","1","2018-01-09 00:01:23","149586"
"A2F2DDH12YU4AK","cs_wg_v9_pilot1","3LOTDFNYA70R2TPOIZVNTEM5LWMFWS","14","0","BOOKSHELF","1","5","1","5978","bookshelf","1","2018-01-09 00:01:38","149587"
"A2F2DDH12YU4AK","cs_wg_v9_pilot1","3LOTDFNYA70R2TPOIZVNTEM5LWMFWS","15","0","MACHINE","10","5","1","6525","machine","10","2018-01-09 00:01:59","149588"
"A2F2DDH12YU4AK","cs_wg_v9_pilot1","3LOTDFNYA70R2TPOIZVNTEM5LWMFWS","16","0","FOOTBALL","0","5","1","3210","football","0","2018-01-09 00:02:09","149589"
"A2F2DDH12YU4AK","cs_wg_v9_pilot1","3LOTDFNYA70R2TPOIZVNTEM5LWMFWS","17","0","KEYBOARD","0","5","1","2637","keyboard","0","2018-01-09 00:02:20","149590"
"A2F2DDH12YU4AK","cs_wg_v9_pilot1","3LOTDFNYA70R2TPOIZVNTEM5LWMFWS","18","0","DOORWAY","10","5","0","3445","doorway","10","2018-01-09 00:02:30","149591"
"A2F2DDH12YU4AK","cs_wg_v9_pilot1","3LOTDFNYA70R2TPOIZVNTEM5LWMFWS","19","0","TRAFFIC","1","5","1","2598","traffic","1","2018-01-09 00:02:39","149592"
"A2F2DDH12YU4AK","cs_wg_v9_pilot1","3LOTDFNYA70R2TPOIZVNTEM5LWMFWS","20","0","WEDDING","0","5","1","5037","wedding","0","2018-01-09 00:02:54","149593"
"A2F2DDH12YU4AK","cs_wg_v9_pilot1","3LOTDFNYA70R2TPOIZVNTEM5LWMFWS","21","0","BOOKSHELF","1","5","1","4134","bookshelf","1","2018-01-09 00:03:05","149594"
"A2F2DDH12YU4AK","cs_wg_v9_pilot1","3LOTDFNYA70R2TPOIZVNTEM5LWMFWS","22","0","KEYBOARD","0","5","1","3798","keyboard","0","2018-01-09 00:03:18","149595"
"A2F2DDH12YU4AK","cs_wg_v9_pilot1","3LOTDFNYA70R2TPOIZVNTEM5LWMFWS","23","0","WEDDING","0","5","1","2843","wedding","0","2018-01-09 00:03:27","149596"
"A2F2DDH12YU4AK","cs_wg_v9_pilot1","3LOTDFNYA70R2TPOIZVNTEM5LWMFWS","24","0","KEYBOARD","0","5","1","3366","keyboard","0","2018-01-09 00:03:37","149597"
"A2F2DDH12YU4AK","cs_wg_v9_pilot1","3LOTDFNYA70R2TPOIZVNTEM5LWMFWS","25","0","STRUCTURE","10","5","1","4133","structure","10","2018-01-09 00:03:56","149598"
"A2F2DDH12YU4AK","cs_wg_v9_pilot1","3LOTDFNYA70R2TPOIZVNTEM5LWMFWS","26","0","TRAFFIC","1","5","1","3486","traffic","1","2018-01-09 00:04:05","149599"
"A2F2DDH12YU4AK","cs_wg_v9_pilot1","3LOTDFNYA70R2TPOIZVNTEM5LWMFWS","27","0","DOORWAY","10","5","0","4613","doorway","10","2018-01-09 00:04:16","149600"
"A2F2DDH12YU4AK","cs_wg_v9_pilot1","3LOTDFNYA70R2TPOIZVNTEM5LWMFWS","28","0","LADDER","10","5","0","3081","ladder","10","2018-01-09 00:04:26","149601"
"A2F2DDH12YU4AK","cs_wg_v9_pilot1","3LOTDFNYA70R2TPOIZVNTEM5LWMFWS","29","0","STRUCTURE","10","5","0","4262","structure","10","2018-01-09 00:04:37","149602"
"A2F2DDH12YU4AK","cs_wg_v9_pilot1","3LOTDFNYA70R2TPOIZVNTEM5LWMFWS","30","0","MACHINE","10","5","0","2180","machine","10","2018-01-09 00:04:45","149603"
"A2F2DDH12YU4AK","cs_wg_v9_pilot1","3LOTDFNYA70R2TPOIZVNTEM5LWMFWS","31","0","MACHINE","10","5","0","1453","machine","10","2018-01-09 00:04:55","149604"
"A2F2DDH12YU4AK","cs_wg_v9_pilot1","3LOTDFNYA70R2TPOIZVNTEM5LWMFWS","32","0","FOOTBALL","0","5","1","2646","football","0","2018-01-09 00:05:06","149605"
"A2F2DDH12YU4AK","cs_wg_v9_pilot1","3LOTDFNYA70R2TPOIZVNTEM5LWMFWS","33","0","BASKET","9","5","0","3358","basket","9","2018-01-09 00:05:15","149606"
"A2F2DDH12YU4AK","cs_wg_v9_pilot1","3LOTDFNYA70R2TPOIZVNTEM5LWMFWS","34","0","HELICOPTER","0","5","1","3070","helicopter","0","2018-01-09 00:05:25","149607"
"A2F2DDH12YU4AK","cs_wg_v9_pilot1","3LOTDFNYA70R2TPOIZVNTEM5LWMFWS","35","0","STOMACH","9","5","0","3214","stomach","9","2018-01-09 00:05:35","149608"
"A2F2DDH12YU4AK","cs_wg_v9_pilot1","3LOTDFNYA70R2TPOIZVNTEM5LWMFWS","36","0","BOOKSHELF","1","5","1","4796","bookshelf","1","2018-01-09 00:05:46","149609"
"A2F2DDH12YU4AK","cs_wg_v9_pilot1","3LOTDFNYA70R2TPOIZVNTEM5LWMFWS","37","0","STOMACH","9","5","0","2550","stomach","9","2018-01-09 00:05:56","149610"
"A2F2DDH12YU4AK","cs_wg_v9_pilot1","3LOTDFNYA70R2TPOIZVNTEM5LWMFWS","38","0","BOOKSHELF","1","5","1","1818","bookshelf","1","2018-01-09 00:06:04","149611"
"A2F2DDH12YU4AK","cs_wg_v9_pilot1","3LOTDFNYA70R2TPOIZVNTEM5LWMFWS","39","0","WEDDING","0","5","1","1711","wedding","0","2018-01-09 00:06:11","149612"
"A2F2DDH12YU4AK","cs_wg_v9_pilot1","3LOTDFNYA70R2TPOIZVNTEM5LWMFWS","40","0","LADDER","10","5","0","2789","ladder","10","2018-01-09 00:06:20","149613"
"A2F2DDH12YU4AK","cs_wg_v9_pilot1","3LOTDFNYA70R2TPOIZVNTEM5LWMFWS","41","0","DOORWAY","10","5","0","1734","doorway","10","2018-01-09 00:06:28","149614"
"A2F2DDH12YU4AK","cs_wg_v9_pilot1","3LOTDFNYA70R2TPOIZVNTEM5LWMFWS","42","0","BASKET","9","5","0","2400","basket","9","2018-01-09 00:06:37","149615"
"A2F2DDH12YU4AK","cs_wg_v9_pilot1","3LOTDFNYA70R2TPOIZVNTEM5LWMFWS","43","0","LADDER","10","5","0","3118","ladder","10","2018-01-09 00:06:47","149616"
"A2F2DDH12YU4AK","cs_wg_v9_pilot1","3LOTDFNYA70R2TPOIZVNTEM5LWMFWS","44","0","STRUCTURE","10","5","0","5621","structure","10","2018-01-09 00:06:59","149617"
"A2F2DDH12YU4AK","cs_wg_v9_pilot1","3LOTDFNYA70R2TPOIZVNTEM5LWMFWS","45","0","FOOTBALL","0","5","1","1758","football","0","2018-01-09 00:07:07","149618"
"A2F2DDH12YU4AK","cs_wg_v9_pilot1","3LOTDFNYA70R2TPOIZVNTEM5LWMFWS","46","0","STOMACH","9","5","0","2790","stomach","9","2018-01-09 00:07:16","149619"
"A2F2DDH12YU4AK","cs_wg_v9_pilot1","3LOTDFNYA70R2TPOIZVNTEM5LWMFWS","47","0","TRAFFIC","1","5","1","1734","traffic","1","2018-01-09 00:07:25","149620"
"A2F2DDH12YU4AK","cs_wg_v9_pilot1","3LOTDFNYA70R2TPOIZVNTEM5LWMFWS","48","0","STRUCTURE","10","5","0","1373","structure","10","2018-01-09 00:07:34","149621"
"A2F2DDH12YU4AK","cs_wg_v9_pilot1","3LOTDFNYA70R2TPOIZVNTEM5LWMFWS","49","0","DOORWAY","10","5","0","3178","doorway","10","2018-01-09 00:07:47","149622"
"A2F2DDH12YU4AK","cs_wg_v9_pilot1","3LOTDFNYA70R2TPOIZVNTEM5LWMFWS","50","0","STOMACH","9","5","0","2647","stomach","9","2018-01-09 00:07:58","149623"
"A2F2DDH12YU4AK","cs_wg_v9_pilot1","3LOTDFNYA70R2TPOIZVNTEM5LWMFWS","51","0","UMBRELLA","9","5","0","3869","umbrella","9","2018-01-09 00:08:11","149624"
"A2F2DDH12YU4AK","cs_wg_v9_pilot1","3LOTDFNYA70R2TPOIZVNTEM5LWMFWS","52","0","COMMUNITY","1","5","1","1977","community","1","2018-01-09 00:08:19","149625"
"A2F2DDH12YU4AK","cs_wg_v9_pilot1","3LOTDFNYA70R2TPOIZVNTEM5LWMFWS","53","0","COMMUNITY","1","5","1","3901","community","1","2018-01-09 00:08:29","149626"
"A2F2DDH12YU4AK","cs_wg_v9_pilot1","3LOTDFNYA70R2TPOIZVNTEM5LWMFWS","54","0","UMBRELLA","9","5","0","1622","umbrella","9","2018-01-09 00:08:39","149627"
"A2F2DDH12YU4AK","cs_wg_v9_pilot1","3LOTDFNYA70R2TPOIZVNTEM5LWMFWS","55","0","DOORWAY","10","5","0","950","doorway","10","2018-01-09 00:08:45","149628"
"A2F2DDH12YU4AK","cs_wg_v9_pilot1","3LOTDFNYA70R2TPOIZVNTEM5LWMFWS","56","0","BOOKSHELF","1","5","1","3050","bookshelf","1","2018-01-09 00:08:55","149629"
"A2F2DDH12YU4AK","cs_wg_v9_pilot1","3LOTDFNYA70R2TPOIZVNTEM5LWMFWS","57","0","STRUCTURE","10","5","0","1029","structure","10","2018-01-09 00:09:02","149630"
"A2F2DDH12YU4AK","cs_wg_v9_pilot1","3LOTDFNYA70R2TPOIZVNTEM5LWMFWS","58","0","TRAFFIC","1","5","1","1237","traffic","1","2018-01-09 00:09:09","149631"
"A2F2DDH12YU4AK","cs_wg_v9_pilot1","3LOTDFNYA70R2TPOIZVNTEM5LWMFWS","59","0","COMMUNITY","1","5","1","1094","community","1","2018-01-09 00:09:17","149632"
"A2F2DDH12YU4AK","cs_wg_v9_pilot1","3LOTDFNYA70R2TPOIZVNTEM5LWMFWS","60","0","BASKET","9","5","0","1942","basket","9","2018-01-09 00:09:24","149633"
"A2F2DDH12YU4AK","cs_wg_v9_pilot1","3LOTDFNYA70R2TPOIZVNTEM5LWMFWS","61","0","MACHINE","10","5","0","1253","machine","10","2018-01-09 00:09:32","149634"
"A2F2DDH12YU4AK","cs_wg_v9_pilot1","3LOTDFNYA70R2TPOIZVNTEM5LWMFWS","62","0","STRUCTURE","10","5","0","829","structure","10","2018-01-09 00:09:38","149635"
"A2F2DDH12YU4AK","cs_wg_v9_pilot1","3LOTDFNYA70R2TPOIZVNTEM5LWMFWS","63","0","TRAFFIC","1","5","1","1037","traffic","1","2018-01-09 00:09:45","149636"
"A2F2DDH12YU4AK","cs_wg_v9_pilot1","3LOTDFNYA70R2TPOIZVNTEM5LWMFWS","64","0","KEYBOARD","0","5","1","2750","keyboard","0","2018-01-09 00:09:53","149637"
"A2F2DDH12YU4AK","cs_wg_v9_pilot1","3LOTDFNYA70R2TPOIZVNTEM5LWMFWS","65","0","HELICOPTER","0","5","1","2814","helicopter","0","2018-01-09 00:10:04","149638"
"A2F2DDH12YU4AK","cs_wg_v9_pilot1","3LOTDFNYA70R2TPOIZVNTEM5LWMFWS","66","0","LADDER","10","5","0","1925","ladder","10","2018-01-09 00:10:11","149639"
"A2F2DDH12YU4AK","cs_wg_v9_pilot1","3LOTDFNYA70R2TPOIZVNTEM5LWMFWS","67","0","FOOTBALL","0","5","1","1062","football","0","2018-01-09 00:10:18","149640"
"A2F2DDH12YU4AK","cs_wg_v9_pilot1","3LOTDFNYA70R2TPOIZVNTEM5LWMFWS","68","0","HELICOPTER","0","5","1","2014","helicopter","0","2018-01-09 00:10:26","149641"
"A2F2DDH12YU4AK","cs_wg_v9_pilot1","3LOTDFNYA70R2TPOIZVNTEM5LWMFWS","69","0","STRUCTURE","10","5","0","886","structure","10","2018-01-09 00:10:35","149642"
"A2F2DDH12YU4AK","cs_wg_v9_pilot1","3LOTDFNYA70R2TPOIZVNTEM5LWMFWS","70","0","UMBRELLA","9","5","0","2246","umbrella","9","2018-01-09 00:10:43","149643"
"A2F2DDH12YU4AK","cs_wg_v9_pilot1","3LOTDFNYA70R2TPOIZVNTEM5LWMFWS","71","0","HELICOPTER","0","5","1","1114","helicopter","0","2018-01-09 00:10:52","149644"
"A2F2DDH12YU4AK","cs_wg_v9_pilot1","3LOTDFNYA70R2TPOIZVNTEM5LWMFWS","72","0","BOOKSHELF","1","5","1","4734","bookshelf","1","2018-01-09 00:11:05","149645"
"A2F2DDH12YU4AK","cs_wg_v9_pilot1","3LOTDFNYA70R2TPOIZVNTEM5LWMFWS","73","0","BASKET","9","5","0","2269","basket","9","2018-01-09 00:11:13","149646"
"A2F2DDH12YU4AK","cs_wg_v9_pilot1","3LOTDFNYA70R2TPOIZVNTEM5LWMFWS","74","0","FOOTBALL","0","5","1","726","football","0","2018-01-09 00:11:20","149647"
"A2F2DDH12YU4AK","cs_wg_v9_pilot1","3LOTDFNYA70R2TPOIZVNTEM5LWMFWS","75","0","COMMUNITY","1","5","1","978","community","1","2018-01-09 00:11:30","149648"
"A2F2DDH12YU4AK","cs_wg_v9_pilot1","3LOTDFNYA70R2TPOIZVNTEM5LWMFWS","76","0","FOOTBALL","0","5","1","1173","football","0","2018-01-09 00:11:38","149649"
"A2F2DDH12YU4AK","cs_wg_v9_pilot1","3LOTDFNYA70R2TPOIZVNTEM5LWMFWS","77","0","STOMACH","9","5","0","885","stomach","9","2018-01-09 00:11:45","149650"
"A2F2DDH12YU4AK","cs_wg_v9_pilot1","3LOTDFNYA70R2TPOIZVNTEM5LWMFWS","78","0","UMBRELLA","9","5","0","1654","umbrella","9","2018-01-09 00:11:55","149651"
"A2F2DDH12YU4AK","cs_wg_v9_pilot1","3LOTDFNYA70R2TPOIZVNTEM5LWMFWS","79","0","KEYBOARD","0","5","1","2150","keyboard","0","2018-01-09 00:12:03","149652"
"A2F2DDH12YU4AK","cs_wg_v9_pilot1","3LOTDFNYA70R2TPOIZVNTEM5LWMFWS","80","0","HELICOPTER","0","5","1","1157","helicopter","0","2018-01-09 00:12:11","149653"
"A2F2DDH12YU4AK","cs_wg_v9_pilot1","3LOTDFNYA70R2TPOIZVNTEM5LWMFWS","81","0","BASKET","9","5","0","1132","basket","9","2018-01-09 00:12:18","149654"
"A2F2DDH12YU4AK","cs_wg_v9_pilot1","3LOTDFNYA70R2TPOIZVNTEM5LWMFWS","82","0","WEDDING","0","5","1","1014","wedding","0","2018-01-09 00:12:24","149655"
"A2F2DDH12YU4AK","cs_wg_v9_pilot1","3LOTDFNYA70R2TPOIZVNTEM5LWMFWS","83","0","UMBRELLA","9","5","0","994","umbrella","9","2018-01-09 00:12:32","149656"
"A2F2DDH12YU4AK","cs_wg_v9_pilot1","3LOTDFNYA70R2TPOIZVNTEM5LWMFWS","84","0","COMMUNITY","1","5","1","774","community","1","2018-01-09 00:12:39","149657"
"A2F2DDH12YU4AK","cs_wg_v9_pilot1","3LOTDFNYA70R2TPOIZVNTEM5LWMFWS","85","0","STOMACH","9","5","0","830","stomach","9","2018-01-09 00:12:47","149658"
"A2F2DDH12YU4AK","cs_wg_v9_pilot1","3LOTDFNYA70R2TPOIZVNTEM5LWMFWS","86","0","TRAFFIC","1","5","1","846","traffic","1","2018-01-09 00:12:53","149659"
"A2F2DDH12YU4AK","cs_wg_v9_pilot1","3LOTDFNYA70R2TPOIZVNTEM5LWMFWS","87","0","UMBRELLA","9","5","0","1701","umbrella","9","2018-01-09 00:13:01","149660"
"A2F2DDH12YU4AK","cs_wg_v9_pilot1","3LOTDFNYA70R2TPOIZVNTEM5LWMFWS","88","0","LADDER","10","5","0","1646","ladder","10","2018-01-09 00:13:08","149661"
"A2F2DDH12YU4AK","cs_wg_v9_pilot1","3LOTDFNYA70R2TPOIZVNTEM5LWMFWS","89","0","COMMUNITY","1","5","1","893","community","1","2018-01-09 00:13:16","149662"
"A2F2DDH12YU4AK","cs_wg_v9_pilot1","3LOTDFNYA70R2TPOIZVNTEM5LWMFWS","90","0","WEDDING","0","5","1","958","wedding","0","2018-01-09 00:13:23","149663"
"A2F2DDH12YU4AK","cs_wg_v9_pilot1","3LOTDFNYA70R2TPOIZVNTEM5LWMFWS","91","0","LADDER","10","5","0","806","ladder","10","2018-01-09 00:13:30","149664"
"A2F2DDH12YU4AK","cs_wg_v9_pilot1","3LOTDFNYA70R2TPOIZVNTEM5LWMFWS","92","0","MACHINE","10","5","0","936","machine","10","2018-01-09 00:13:36","149665"
"A2F2DDH12YU4AK","cs_wg_v9_pilot1","3LOTDFNYA70R2TPOIZVNTEM5LWMFWS","93","0","MACHINE","10","5","0","693","machine","10","2018-01-09 00:13:42","149666"
"A2F2DDH12YU4AK","cs_wg_v9_pilot1","3LOTDFNYA70R2TPOIZVNTEM5LWMFWS","94","0","DOORWAY","10","5","0","805","doorway","10","2018-01-09 00:13:49","149667"
"A2F2DDH12YU4AK","cs_wg_v9_pilot1","3LOTDFNYA70R2TPOIZVNTEM5LWMFWS","95","0","WEDDING","0","5","1","844","wedding","0","2018-01-09 00:13:55","149668"
"A2F2DDH12YU4AK","cs_wg_v9_pilot1","3LOTDFNYA70R2TPOIZVNTEM5LWMFWS","96","0","LADDER","10","5","0","542","ladder","10","2018-01-09 00:14:01","149669"
"A2F2DDH12YU4AK","cs_wg_v9_pilot1","3LOTDFNYA70R2TPOIZVNTEM5LWMFWS","97","0","KEYBOARD","0","5","1","2118","keyboard","0","2018-01-09 00:14:09","149670"
"A2F2DDH12YU4AK","cs_wg_v9_pilot1","3LOTDFNYA70R2TPOIZVNTEM5LWMFWS","98","0","WEDDING","0","5","1","1546","wedding","0","2018-01-09 00:14:16","149671"
"A2F2DDH12YU4AK","cs_wg_v9_pilot1","3LOTDFNYA70R2TPOIZVNTEM5LWMFWS","99","0","BOOKSHELF","1","5","1","1974","bookshelf","1","2018-01-09 00:14:25","149672"
"A2F2DDH12YU4AK","cs_wg_v9_pilot1","3LOTDFNYA70R2TPOIZVNTEM5LWMFWS","100","0","KEYBOARD","0","5","1","878","keyboard","0","2018-01-09 00:14:32","149673"
"A2F2DDH12YU4AK","cs_wg_v9_pilot1","3LOTDFNYA70R2TPOIZVNTEM5LWMFWS","101","0","HELICOPTER","0","5","1","2070","helicopter","0","2018-01-09 00:14:40","149674"
"A2F2DDH12YU4AK","cs_wg_v9_pilot1","3LOTDFNYA70R2TPOIZVNTEM5LWMFWS","102","0","UMBRELLA","9","5","0","1662","umbrella","9","2018-01-09 00:14:48","149675"
"A2F2DDH12YU4AK","cs_wg_v9_pilot1","3LOTDFNYA70R2TPOIZVNTEM5LWMFWS","103","0","STRUCTURE","10","5","0","1183","structure","10","2018-01-09 00:14:55","149676"
"A2F2DDH12YU4AK","cs_wg_v9_pilot1","3LOTDFNYA70R2TPOIZVNTEM5LWMFWS","104","0","BASKET","9","5","0","1445","basket","9","2018-01-09 00:15:03","149677"
"A2F2DDH12YU4AK","cs_wg_v9_pilot1","3LOTDFNYA70R2TPOIZVNTEM5LWMFWS","105","0","STOMACH","9","5","0","797","stomach","9","2018-01-09 00:15:09","149678"
"A2F2DDH12YU4AK","cs_wg_v9_pilot1","3LOTDFNYA70R2TPOIZVNTEM5LWMFWS","106","0","BASKET","9","5","0","871","basket","9","2018-01-09 00:15:16","149679"
"A2F2DDH12YU4AK","cs_wg_v9_pilot1","3LOTDFNYA70R2TPOIZVNTEM5LWMFWS","107","0","DOORWAY","10","5","0","894","doorway","10","2018-01-09 00:15:22","149680"
"A2F2DDH12YU4AK","cs_wg_v9_pilot1","3LOTDFNYA70R2TPOIZVNTEM5LWMFWS","108","0","BOOKSHELF","1","5","1","1014","bookshelf","1","2018-01-09 00:15:29","149681"
"A2F2DDH12YU4AK","cs_wg_v9_pilot1","3LOTDFNYA70R2TPOIZVNTEM5LWMFWS","109","0","MACHINE","10","5","0","775","machine","10","2018-01-09 00:15:36","149682"
"A2F2DDH12YU4AK","cs_wg_v9_pilot1","3LOTDFNYA70R2TPOIZVNTEM5LWMFWS","110","0","MACHINE","10","5","0","477","machine","10","2018-01-09 00:15:42","149683"
"A2F2DDH12YU4AK","cs_wg_v9_pilot1","3LOTDFNYA70R2TPOIZVNTEM5LWMFWS","111","0","WEDDING","0","5","1","685","wedding","0","2018-01-09 00:15:49","149684"
"A27GL2P3W3DCWV","cs_wg_v9_pilot1","39PAAFCODM1O697KN9VGOGIS5V1TVB","0","0","DOORWAY","10","5","0","5803","doorway","10","2018-01-09 00:24:52","149685"
"A27GL2P3W3DCWV","cs_wg_v9_pilot1","39PAAFCODM1O697KN9VGOGIS5V1TVB","1","0","LADDER","1","5","1","4037","ladder","1","2018-01-09 00:25:06","149686"
"A27GL2P3W3DCWV","cs_wg_v9_pilot1","39PAAFCODM1O697KN9VGOGIS5V1TVB","2","0","MACHINE","0","5","0","2711","machine ","0","2018-01-09 00:25:17","149687"
"A27GL2P3W3DCWV","cs_wg_v9_pilot1","39PAAFCODM1O697KN9VGOGIS5V1TVB","3","0","HELICOPTER","1","5","1","2560","helicopter","1","2018-01-09 00:25:34","149688"
"A27GL2P3W3DCWV","cs_wg_v9_pilot1","39PAAFCODM1O697KN9VGOGIS5V1TVB","4","0","UMBRELLA","1","5","0","1796","umbrella","1","2018-01-09 00:25:46","149689"
"A27GL2P3W3DCWV","cs_wg_v9_pilot1","39PAAFCODM1O697KN9VGOGIS5V1TVB","5","0","HELICOPTER","1","5","1","1879","helicopter","1","2018-01-09 00:25:56","149690"
"A27GL2P3W3DCWV","cs_wg_v9_pilot1","39PAAFCODM1O697KN9VGOGIS5V1TVB","6","0","COMMUNITY","9","5","1","1618","community","9","2018-01-09 00:26:09","149691"
"A27GL2P3W3DCWV","cs_wg_v9_pilot1","39PAAFCODM1O697KN9VGOGIS5V1TVB","7","0","STOMACH","9","5","0","1855","stomach","9","2018-01-09 00:26:19","149692"
"A27GL2P3W3DCWV","cs_wg_v9_pilot1","39PAAFCODM1O697KN9VGOGIS5V1TVB","8","0","MACHINE","0","5","1","2091","machine","0","2018-01-09 00:26:32","149693"
"A27GL2P3W3DCWV","cs_wg_v9_pilot1","39PAAFCODM1O697KN9VGOGIS5V1TVB","9","0","MACHINE","0","5","1","3227","machine","0","2018-01-09 00:26:45","149694"
"A27GL2P3W3DCWV","cs_wg_v9_pilot1","39PAAFCODM1O697KN9VGOGIS5V1TVB","10","0","COMMUNITY","9","5","0","1881","community","9","2018-01-09 00:26:55","149695"
"A27GL2P3W3DCWV","cs_wg_v9_pilot1","39PAAFCODM1O697KN9VGOGIS5V1TVB","11","0","STOMACH","9","5","1","1482","stomach","9","2018-01-09 00:27:04","149696"
"A27GL2P3W3DCWV","cs_wg_v9_pilot1","39PAAFCODM1O697KN9VGOGIS5V1TVB","12","0","DOORWAY","10","5","0","1901","doorway","10","2018-01-09 00:27:15","149697"
"A27GL2P3W3DCWV","cs_wg_v9_pilot1","39PAAFCODM1O697KN9VGOGIS5V1TVB","13","0","TRAFFIC","9","5","0","2060","traffic","9","2018-01-09 00:27:24","149698"
"A27GL2P3W3DCWV","cs_wg_v9_pilot1","39PAAFCODM1O697KN9VGOGIS5V1TVB","14","0","UMBRELLA","1","5","1","1310","umbrella","1","2018-01-09 00:27:33","149699"
"A27GL2P3W3DCWV","cs_wg_v9_pilot1","39PAAFCODM1O697KN9VGOGIS5V1TVB","15","0","MACHINE","0","5","1","1736","machine","0","2018-01-09 00:27:46","149700"
"A27GL2P3W3DCWV","cs_wg_v9_pilot1","39PAAFCODM1O697KN9VGOGIS5V1TVB","16","0","FOOTBALL","0","5","0","1373","football","0","2018-01-09 00:27:55","149701"
"A27GL2P3W3DCWV","cs_wg_v9_pilot1","39PAAFCODM1O697KN9VGOGIS5V1TVB","17","0","BASKET","0","5","0","1348","basket","0","2018-01-09 00:28:06","149702"
"A27GL2P3W3DCWV","cs_wg_v9_pilot1","39PAAFCODM1O697KN9VGOGIS5V1TVB","18","0","STOMACH","9","5","1","1455","stomach","9","2018-01-09 00:28:16","149703"
"A27GL2P3W3DCWV","cs_wg_v9_pilot1","39PAAFCODM1O697KN9VGOGIS5V1TVB","19","0","COMMUNITY","9","5","0","1838","community","9","2018-01-09 00:28:30","149704"
"A27GL2P3W3DCWV","cs_wg_v9_pilot1","39PAAFCODM1O697KN9VGOGIS5V1TVB","20","0","STOMACH","9","5","0","1707","stomach","9","2018-01-09 00:28:39","149705"
"A27GL2P3W3DCWV","cs_wg_v9_pilot1","39PAAFCODM1O697KN9VGOGIS5V1TVB","21","0","UMBRELLA","1","5","1","1533","umbrella","1","2018-01-09 00:28:51","149706"
"A27GL2P3W3DCWV","cs_wg_v9_pilot1","39PAAFCODM1O697KN9VGOGIS5V1TVB","22","0","FOOTBALL","0","5","1","3021","football","0","2018-01-09 00:29:01","149707"
"A27GL2P3W3DCWV","cs_wg_v9_pilot1","39PAAFCODM1O697KN9VGOGIS5V1TVB","23","0","DOORWAY","10","5","1","2024","doorway","10","2018-01-09 00:29:11","149708"
"A27GL2P3W3DCWV","cs_wg_v9_pilot1","39PAAFCODM1O697KN9VGOGIS5V1TVB","24","0","KEYBOARD","10","5","0","1545","keyboard","10","2018-01-09 00:29:21","149709"
"A27GL2P3W3DCWV","cs_wg_v9_pilot1","39PAAFCODM1O697KN9VGOGIS5V1TVB","25","0","FOOTBALL","0","5","1","1718","football","0","2018-01-09 00:29:30","149710"
"A27GL2P3W3DCWV","cs_wg_v9_pilot1","39PAAFCODM1O697KN9VGOGIS5V1TVB","26","0","WEDDING","10","5","0","1551","wedding ","10","2018-01-09 00:29:40","149711"
"A27GL2P3W3DCWV","cs_wg_v9_pilot1","39PAAFCODM1O697KN9VGOGIS5V1TVB","27","0","BOOKSHELF","10","5","0","1872","bookshelf","10","2018-01-09 00:29:53","149712"
"A27GL2P3W3DCWV","cs_wg_v9_pilot1","39PAAFCODM1O697KN9VGOGIS5V1TVB","28","0","STRUCTURE","0","5","0","1537","structure","0","2018-01-09 00:30:03","149713"
"A27GL2P3W3DCWV","cs_wg_v9_pilot1","39PAAFCODM1O697KN9VGOGIS5V1TVB","29","0","UMBRELLA","1","5","1","2791","umbrella","1","2018-01-09 00:30:14","149714"
"A27GL2P3W3DCWV","cs_wg_v9_pilot1","39PAAFCODM1O697KN9VGOGIS5V1TVB","30","0","STRUCTURE","0","5","0","1157","structure","0","2018-01-09 00:30:26","149715"
"A27GL2P3W3DCWV","cs_wg_v9_pilot1","39PAAFCODM1O697KN9VGOGIS5V1TVB","31","0","TRAFFIC","9","5","0","1458","traffic","9","2018-01-09 00:30:35","149716"
"A27GL2P3W3DCWV","cs_wg_v9_pilot1","39PAAFCODM1O697KN9VGOGIS5V1TVB","32","0","UMBRELLA","1","5","1","1531","umbrella","1","2018-01-09 00:30:45","149717"
"A27GL2P3W3DCWV","cs_wg_v9_pilot1","39PAAFCODM1O697KN9VGOGIS5V1TVB","33","0","LADDER","1","5","0","1634","ladder","1","2018-01-09 00:30:54","149718"
"A27GL2P3W3DCWV","cs_wg_v9_pilot1","39PAAFCODM1O697KN9VGOGIS5V1TVB","34","0","KEYBOARD","10","5","1","2161","keyboard","10","2018-01-09 00:31:04","149719"
"A27GL2P3W3DCWV","cs_wg_v9_pilot1","39PAAFCODM1O697KN9VGOGIS5V1TVB","35","0","BASKET","0","5","1","1610","basket","0","2018-01-09 00:31:21","149720"
"A27GL2P3W3DCWV","cs_wg_v9_pilot1","39PAAFCODM1O697KN9VGOGIS5V1TVB","36","0","BOOKSHELF","10","5","1","1814","bookshelf","10","2018-01-09 00:31:34","149721"
"A27GL2P3W3DCWV","cs_wg_v9_pilot1","39PAAFCODM1O697KN9VGOGIS5V1TVB","37","0","LADDER","1","5","1","3735","ladder","1","2018-01-09 00:31:45","149722"
"A27GL2P3W3DCWV","cs_wg_v9_pilot1","39PAAFCODM1O697KN9VGOGIS5V1TVB","38","0","FOOTBALL","0","5","1","3006","football","0","2018-01-09 00:31:56","149723"
"A27GL2P3W3DCWV","cs_wg_v9_pilot1","39PAAFCODM1O697KN9VGOGIS5V1TVB","39","0","STRUCTURE","0","5","0","4293","structure ","0","2018-01-09 00:32:09","149724"
"A27GL2P3W3DCWV","cs_wg_v9_pilot1","39PAAFCODM1O697KN9VGOGIS5V1TVB","40","0","COMMUNITY","9","5","1","2018","community","9","2018-01-09 00:32:22","149725"
"A27GL2P3W3DCWV","cs_wg_v9_pilot1","39PAAFCODM1O697KN9VGOGIS5V1TVB","41","0","WEDDING","10","5","0","1911","wedding","10","2018-01-09 00:32:36","149726"
"A27GL2P3W3DCWV","cs_wg_v9_pilot1","39PAAFCODM1O697KN9VGOGIS5V1TVB","42","0","STRUCTURE","0","5","1","1692","structure ","0","2018-01-09 00:32:49","149727"
"A27GL2P3W3DCWV","cs_wg_v9_pilot1","39PAAFCODM1O697KN9VGOGIS5V1TVB","43","0","STOMACH","9","5","1","1839","stomach","9","2018-01-09 00:32:59","149728"
"A27GL2P3W3DCWV","cs_wg_v9_pilot1","39PAAFCODM1O697KN9VGOGIS5V1TVB","44","0","KEYBOARD","10","5","1","1649","keyboard","10","2018-01-09 00:33:11","149729"
"A27GL2P3W3DCWV","cs_wg_v9_pilot1","39PAAFCODM1O697KN9VGOGIS5V1TVB","45","0","LADDER","1","5","0","1848","ladder","1","2018-01-09 00:33:20","149730"
"A27GL2P3W3DCWV","cs_wg_v9_pilot1","39PAAFCODM1O697KN9VGOGIS5V1TVB","46","0","TRAFFIC","9","5","1","1559","traffic","9","2018-01-09 00:33:30","149731"
"A27GL2P3W3DCWV","cs_wg_v9_pilot1","39PAAFCODM1O697KN9VGOGIS5V1TVB","47","0","BASKET","0","5","1","1623","basket","0","2018-01-09 00:33:39","149732"
"A27GL2P3W3DCWV","cs_wg_v9_pilot1","39PAAFCODM1O697KN9VGOGIS5V1TVB","48","0","HELICOPTER","1","5","0","1297","helicopter","1","2018-01-09 00:33:51","149733"
"A27GL2P3W3DCWV","cs_wg_v9_pilot1","39PAAFCODM1O697KN9VGOGIS5V1TVB","49","0","LADDER","1","5","1","2342","ladder","1","2018-01-09 00:35:09","149734"
"A27GL2P3W3DCWV","cs_wg_v9_pilot1","39PAAFCODM1O697KN9VGOGIS5V1TVB","50","0","BASKET","0","5","1","1686","basket","0","2018-01-09 00:35:20","149735"
"A27GL2P3W3DCWV","cs_wg_v9_pilot1","39PAAFCODM1O697KN9VGOGIS5V1TVB","51","0","COMMUNITY","9","5","0","2650","community","9","2018-01-09 00:35:30","149736"
"A27GL2P3W3DCWV","cs_wg_v9_pilot1","39PAAFCODM1O697KN9VGOGIS5V1TVB","52","0","KEYBOARD","10","5","0","2044","keyboard","10","2018-01-09 00:35:40","149737"
"A27GL2P3W3DCWV","cs_wg_v9_pilot1","39PAAFCODM1O697KN9VGOGIS5V1TVB","53","0","TRAFFIC","9","5","1","1321","traffic","9","2018-01-09 00:35:49","149738"
"A27GL2P3W3DCWV","cs_wg_v9_pilot1","39PAAFCODM1O697KN9VGOGIS5V1TVB","54","0","BASKET","0","5","1","4944","basket ","0","2018-01-09 00:36:01","149739"
"A27GL2P3W3DCWV","cs_wg_v9_pilot1","39PAAFCODM1O697KN9VGOGIS5V1TVB","55","0","KEYBOARD","10","5","0","2310","keyboard","10","2018-01-09 00:36:14","149740"
"A27GL2P3W3DCWV","cs_wg_v9_pilot1","39PAAFCODM1O697KN9VGOGIS5V1TVB","56","0","TRAFFIC","9","5","1","1509","traffic","9","2018-01-09 00:36:25","149741"
"A27GL2P3W3DCWV","cs_wg_v9_pilot1","39PAAFCODM1O697KN9VGOGIS5V1TVB","57","0","UMBRELLA","1","5","1","1464","umbrella","1","2018-01-09 00:36:35","149742"
"A27GL2P3W3DCWV","cs_wg_v9_pilot1","39PAAFCODM1O697KN9VGOGIS5V1TVB","58","0","BOOKSHELF","10","5","0","1317","bookshelf","10","2018-01-09 00:36:50","149743"
"A27GL2P3W3DCWV","cs_wg_v9_pilot1","39PAAFCODM1O697KN9VGOGIS5V1TVB","59","0","STRUCTURE","0","5","1","1492","structure","0","2018-01-09 00:36:59","149744"
"A27GL2P3W3DCWV","cs_wg_v9_pilot1","39PAAFCODM1O697KN9VGOGIS5V1TVB","60","0","HELICOPTER","1","5","1","1488","helicopter","1","2018-01-09 00:37:11","149745"
"A27GL2P3W3DCWV","cs_wg_v9_pilot1","39PAAFCODM1O697KN9VGOGIS5V1TVB","61","0","WEDDING","10","5","0","1213","wedding ","10","2018-01-09 00:37:25","149746"
"A27GL2P3W3DCWV","cs_wg_v9_pilot1","39PAAFCODM1O697KN9VGOGIS5V1TVB","62","0","BOOKSHELF","10","5","0","1296","bookshelf","10","2018-01-09 00:37:39","149747"
"A27GL2P3W3DCWV","cs_wg_v9_pilot1","39PAAFCODM1O697KN9VGOGIS5V1TVB","63","0","WEDDING","10","5","0","1314","wedding","10","2018-01-09 00:37:48","149748"
"A27GL2P3W3DCWV","cs_wg_v9_pilot1","39PAAFCODM1O697KN9VGOGIS5V1TVB","64","0","UMBRELLA","1","5","1","1620","umbrella","1","2018-01-09 00:37:57","149749"
"A27GL2P3W3DCWV","cs_wg_v9_pilot1","39PAAFCODM1O697KN9VGOGIS5V1TVB","65","0","FOOTBALL","0","5","1","1721","football","0","2018-01-09 00:38:06","149750"
"A27GL2P3W3DCWV","cs_wg_v9_pilot1","39PAAFCODM1O697KN9VGOGIS5V1TVB","66","0","MACHINE","0","5","0","1267","machine","0","2018-01-09 00:38:15","149751"
"A27GL2P3W3DCWV","cs_wg_v9_pilot1","39PAAFCODM1O697KN9VGOGIS5V1TVB","67","0","KEYBOARD","10","5","0","1719","keyboard","10","2018-01-09 00:38:25","149752"
"A27GL2P3W3DCWV","cs_wg_v9_pilot1","39PAAFCODM1O697KN9VGOGIS5V1TVB","68","0","HELICOPTER","1","5","1","1727","helicopter","1","2018-01-09 00:38:35","149753"
"A27GL2P3W3DCWV","cs_wg_v9_pilot1","39PAAFCODM1O697KN9VGOGIS5V1TVB","69","0","HELICOPTER","1","5","1","1367","helicopter","1","2018-01-09 00:38:44","149754"
"A27GL2P3W3DCWV","cs_wg_v9_pilot1","39PAAFCODM1O697KN9VGOGIS5V1TVB","70","0","DOORWAY","10","5","0","2005","doorway","10","2018-01-09 00:38:55","149755"
"A27GL2P3W3DCWV","cs_wg_v9_pilot1","39PAAFCODM1O697KN9VGOGIS5V1TVB","71","0","KEYBOARD","10","5","0","13408","keyboard","10","2018-01-09 00:39:16","149756"
"A27GL2P3W3DCWV","cs_wg_v9_pilot1","39PAAFCODM1O697KN9VGOGIS5V1TVB","72","0","COMMUNITY","9","5","1","1286","community","10","2018-01-09 00:39:30","149757"
"A27GL2P3W3DCWV","cs_wg_v9_pilot1","39PAAFCODM1O697KN9VGOGIS5V1TVB","73","0","LADDER","1","5","1","1776","ladder","1","2018-01-09 00:39:39","149758"
"A27GL2P3W3DCWV","cs_wg_v9_pilot1","39PAAFCODM1O697KN9VGOGIS5V1TVB","74","0","TRAFFIC","9","5","1","1579","traffic","9","2018-01-09 00:39:49","149759"
"A27GL2P3W3DCWV","cs_wg_v9_pilot1","39PAAFCODM1O697KN9VGOGIS5V1TVB","75","0","STOMACH","9","5","1","1427","stomach","9","2018-01-09 00:39:58","149760"
"A27GL2P3W3DCWV","cs_wg_v9_pilot1","39PAAFCODM1O697KN9VGOGIS5V1TVB","76","0","STRUCTURE","0","5","1","1499","structure","0","2018-01-09 00:40:11","149761"
"A27GL2P3W3DCWV","cs_wg_v9_pilot1","39PAAFCODM1O697KN9VGOGIS5V1TVB","77","0","KEYBOARD","10","5","0","1338","keyboard","10","2018-01-09 00:40:20","149762"
"A27GL2P3W3DCWV","cs_wg_v9_pilot1","39PAAFCODM1O697KN9VGOGIS5V1TVB","78","0","WEDDING","10","5","0","1691","wedding","10","2018-01-09 00:40:29","149763"
"A27GL2P3W3DCWV","cs_wg_v9_pilot1","39PAAFCODM1O697KN9VGOGIS5V1TVB","79","0","WEDDING","10","5","0","2051","wedding","10","2018-01-09 00:40:44","149764"
"A27GL2P3W3DCWV","cs_wg_v9_pilot1","39PAAFCODM1O697KN9VGOGIS5V1TVB","80","0","COMMUNITY","9","5","1","1482","community","9","2018-01-09 00:40:55","149765"
"A27GL2P3W3DCWV","cs_wg_v9_pilot1","39PAAFCODM1O697KN9VGOGIS5V1TVB","81","0","WEDDING","10","5","0","1209","wedding","10","2018-01-09 00:41:06","149766"
"A27GL2P3W3DCWV","cs_wg_v9_pilot1","39PAAFCODM1O697KN9VGOGIS5V1TVB","82","0","MACHINE","0","5","1","2029","machine","0","2018-01-09 00:41:15","149767"
"A27GL2P3W3DCWV","cs_wg_v9_pilot1","39PAAFCODM1O697KN9VGOGIS5V1TVB","83","0","STRUCTURE","0","5","1","2192","structure","0","2018-01-09 00:41:29","149768"
"A27GL2P3W3DCWV","cs_wg_v9_pilot1","39PAAFCODM1O697KN9VGOGIS5V1TVB","84","0","BOOKSHELF","10","5","0","1400","bookshelf","10","2018-01-09 00:41:39","149769"
"A27GL2P3W3DCWV","cs_wg_v9_pilot1","39PAAFCODM1O697KN9VGOGIS5V1TVB","85","0","HELICOPTER","1","5","1","1467","helicopter","1","2018-01-09 00:41:48","149770"
"A27GL2P3W3DCWV","cs_wg_v9_pilot1","39PAAFCODM1O697KN9VGOGIS5V1TVB","86","0","TRAFFIC","9","5","0","1787","traffic","9","2018-01-09 00:41:58","149771"
"A27GL2P3W3DCWV","cs_wg_v9_pilot1","39PAAFCODM1O697KN9VGOGIS5V1TVB","87","0","MACHINE","0","5","1","1407","machine","9","2018-01-09 00:42:07","149772"
"A27GL2P3W3DCWV","cs_wg_v9_pilot1","39PAAFCODM1O697KN9VGOGIS5V1TVB","88","0","LADDER","1","5","1","1713","ladder","1","2018-01-09 00:42:15","149773"
"A27GL2P3W3DCWV","cs_wg_v9_pilot1","39PAAFCODM1O697KN9VGOGIS5V1TVB","89","0","BOOKSHELF","10","5","0","1137","bookshelf","10","2018-01-09 00:42:27","149774"
"A27GL2P3W3DCWV","cs_wg_v9_pilot1","39PAAFCODM1O697KN9VGOGIS5V1TVB","90","0","WEDDING","10","5","0","1055","wedding","10","2018-01-09 00:42:38","149775"
"A27GL2P3W3DCWV","cs_wg_v9_pilot1","39PAAFCODM1O697KN9VGOGIS5V1TVB","91","0","LADDER","1","5","1","1330","ladder","1","2018-01-09 00:42:46","149776"
"A27GL2P3W3DCWV","cs_wg_v9_pilot1","39PAAFCODM1O697KN9VGOGIS5V1TVB","92","0","DOORWAY","10","5","0","1286","doorway","10","2018-01-09 00:42:57","149777"
"A27GL2P3W3DCWV","cs_wg_v9_pilot1","39PAAFCODM1O697KN9VGOGIS5V1TVB","93","0","BOOKSHELF","10","5","0","1588","bookshelf","10","2018-01-09 00:43:09","149778"
"A27GL2P3W3DCWV","cs_wg_v9_pilot1","39PAAFCODM1O697KN9VGOGIS5V1TVB","94","0","DOORWAY","10","5","0","1123","doorway","10","2018-01-09 00:43:18","149779"
"A27GL2P3W3DCWV","cs_wg_v9_pilot1","39PAAFCODM1O697KN9VGOGIS5V1TVB","95","0","FOOTBALL","0","5","1","1375","football","0","2018-01-09 00:43:27","149780"
"A27GL2P3W3DCWV","cs_wg_v9_pilot1","39PAAFCODM1O697KN9VGOGIS5V1TVB","96","0","DOORWAY","10","5","0","6856","doorway","10","2018-01-09 00:43:43","149781"
"A27GL2P3W3DCWV","cs_wg_v9_pilot1","39PAAFCODM1O697KN9VGOGIS5V1TVB","97","0","MACHINE","0","5","1","1370","machine","0","2018-01-09 00:43:52","149782"
"A27GL2P3W3DCWV","cs_wg_v9_pilot1","39PAAFCODM1O697KN9VGOGIS5V1TVB","98","0","BASKET","0","5","1","1368","basket","0","2018-01-09 00:44:00","149783"
"A27GL2P3W3DCWV","cs_wg_v9_pilot1","39PAAFCODM1O697KN9VGOGIS5V1TVB","99","0","HELICOPTER","1","5","1","1243","helicopter","1","2018-01-09 00:44:11","149784"
"A27GL2P3W3DCWV","cs_wg_v9_pilot1","39PAAFCODM1O697KN9VGOGIS5V1TVB","100","0","STRUCTURE","0","5","1","1559","structure","0","2018-01-09 00:44:24","149785"
"A27GL2P3W3DCWV","cs_wg_v9_pilot1","39PAAFCODM1O697KN9VGOGIS5V1TVB","101","0","COMMUNITY","9","5","0","1336","community","9","2018-01-09 00:44:35","149786"
"A27GL2P3W3DCWV","cs_wg_v9_pilot1","39PAAFCODM1O697KN9VGOGIS5V1TVB","102","0","BASKET","0","5","1","1341","basket","0","2018-01-09 00:44:45","149787"
"A27GL2P3W3DCWV","cs_wg_v9_pilot1","39PAAFCODM1O697KN9VGOGIS5V1TVB","103","0","BOOKSHELF","10","5","0","114672","bookshelf","10","2018-01-09 00:46:48","149788"
"A27GL2P3W3DCWV","cs_wg_v9_pilot1","39PAAFCODM1O697KN9VGOGIS5V1TVB","104","0","STOMACH","9","5","1","2264","stomach","9","2018-01-09 00:46:58","149789"
"A27GL2P3W3DCWV","cs_wg_v9_pilot1","39PAAFCODM1O697KN9VGOGIS5V1TVB","105","0","TRAFFIC","9","5","1","3381","traffic","9","2018-01-09 00:47:09","149790"
"A27GL2P3W3DCWV","cs_wg_v9_pilot1","39PAAFCODM1O697KN9VGOGIS5V1TVB","106","0","BASKET","0","5","1","1263","basket","0","2018-01-09 00:47:19","149791"
"A27GL2P3W3DCWV","cs_wg_v9_pilot1","39PAAFCODM1O697KN9VGOGIS5V1TVB","107","0","UMBRELLA","1","5","1","1198","umbrella","1","2018-01-09 00:47:27","149792"
"A27GL2P3W3DCWV","cs_wg_v9_pilot1","39PAAFCODM1O697KN9VGOGIS5V1TVB","108","0","DOORWAY","10","5","0","978","doorway","10","2018-01-09 00:47:36","149793"
"A27GL2P3W3DCWV","cs_wg_v9_pilot1","39PAAFCODM1O697KN9VGOGIS5V1TVB","109","0","FOOTBALL","0","5","1","1135","football","0","2018-01-09 00:47:45","149794"
"A27GL2P3W3DCWV","cs_wg_v9_pilot1","39PAAFCODM1O697KN9VGOGIS5V1TVB","110","0","STOMACH","9","5","0","1459","stomach","9","2018-01-09 00:47:55","149795"
"A27GL2P3W3DCWV","cs_wg_v9_pilot1","39PAAFCODM1O697KN9VGOGIS5V1TVB","111","0","FOOTBALL","0","5","1","1181","football","0","2018-01-09 00:48:04","149796"
"A18I566TMVVSFQ","cs_wg_v9_pilot1","3NS0A6KXC491AOQO46LCA3GZ3D8GZ0","0","0","MACHINE","10","5","0","2388","MACHINE","10","2018-01-09 01:28:19","149797"
"A18I566TMVVSFQ","cs_wg_v9_pilot1","3NS0A6KXC491AOQO46LCA3GZ3D8GZ0","1","0","STRUCTURE","0","5","0","1858","PISTOL","0","2018-01-09 01:28:44","149798"
"A27CBSVJFYE5NA","cs_wg_v9_pilot1","3EF8EXOTT1WE6UVH41XNFMO3IQEJ1K","0","0","MACHINE","1","5","0","5134","machine","1","2018-01-09 02:10:38","149799"
"A27CBSVJFYE5NA","cs_wg_v9_pilot1","3EF8EXOTT1WE6UVH41XNFMO3IQEJ1K","1","0","WEDDING","10","5","1","2877","wedding","10","2018-01-09 02:10:53","149800"
"A27CBSVJFYE5NA","cs_wg_v9_pilot1","3EF8EXOTT1WE6UVH41XNFMO3IQEJ1K","2","0","TRAFFIC","1","5","1","2562","traffic","1","2018-01-09 02:11:06","149801"
"A27CBSVJFYE5NA","cs_wg_v9_pilot1","3EF8EXOTT1WE6UVH41XNFMO3IQEJ1K","3","0","UMBRELLA","0","5","0","3795","umbrella","0","2018-01-09 02:11:25","149802"
"A27CBSVJFYE5NA","cs_wg_v9_pilot1","3EF8EXOTT1WE6UVH41XNFMO3IQEJ1K","4","0","LADDER","0","5","1","1558","ladder","0","2018-01-09 02:11:36","149803"
"A27CBSVJFYE5NA","cs_wg_v9_pilot1","3EF8EXOTT1WE6UVH41XNFMO3IQEJ1K","5","0","WEDDING","10","5","1","2644","wedding","10","2018-01-09 02:11:48","149804"
"A27CBSVJFYE5NA","cs_wg_v9_pilot1","3EF8EXOTT1WE6UVH41XNFMO3IQEJ1K","6","0","MACHINE","1","5","0","4594","machine","1","2018-01-09 02:12:04","149805"
"A27CBSVJFYE5NA","cs_wg_v9_pilot1","3EF8EXOTT1WE6UVH41XNFMO3IQEJ1K","7","0","COMMUNITY","0","5","1","3560","community","0","2018-01-09 02:12:49","149806"
"A27CBSVJFYE5NA","cs_wg_v9_pilot1","3EF8EXOTT1WE6UVH41XNFMO3IQEJ1K","8","0","DOORWAY","10","5","1","2581","doorway","10","2018-01-09 02:13:03","149807"
"A27CBSVJFYE5NA","cs_wg_v9_pilot1","3EF8EXOTT1WE6UVH41XNFMO3IQEJ1K","9","0","STRUCTURE","0","5","1","1606","structure","5","2018-01-09 02:13:15","149808"
"A27CBSVJFYE5NA","cs_wg_v9_pilot1","3EF8EXOTT1WE6UVH41XNFMO3IQEJ1K","10","0","STOMACH","9","5","1","1525","stomach","9","2018-01-09 02:13:26","149809"
"A27CBSVJFYE5NA","cs_wg_v9_pilot1","3EF8EXOTT1WE6UVH41XNFMO3IQEJ1K","11","0","STOMACH","9","5","0","4655","stomach","9","2018-01-09 02:13:42","149810"
"A27CBSVJFYE5NA","cs_wg_v9_pilot1","3EF8EXOTT1WE6UVH41XNFMO3IQEJ1K","12","0","BOOKSHELF","10","5","1","2492","bookshelf","10","2018-01-09 02:14:04","149811"
"A27CBSVJFYE5NA","cs_wg_v9_pilot1","3EF8EXOTT1WE6UVH41XNFMO3IQEJ1K","13","0","STRUCTURE","0","5","1","3348","structure","0","2018-01-09 02:14:17","149812"
"A27CBSVJFYE5NA","cs_wg_v9_pilot1","3EF8EXOTT1WE6UVH41XNFMO3IQEJ1K","14","0","DOORWAY","10","5","1","1901","doorway","10","2018-01-09 02:14:42","149813"
"A27CBSVJFYE5NA","cs_wg_v9_pilot1","3EF8EXOTT1WE6UVH41XNFMO3IQEJ1K","15","0","COMMUNITY","0","5","1","3208","community","0","2018-01-09 02:15:07","149814"
"A27CBSVJFYE5NA","cs_wg_v9_pilot1","3EF8EXOTT1WE6UVH41XNFMO3IQEJ1K","16","0","BOOKSHELF","10","5","1","2159","bookshelf","10","2018-01-09 02:15:25","149815"
"A27CBSVJFYE5NA","cs_wg_v9_pilot1","3EF8EXOTT1WE6UVH41XNFMO3IQEJ1K","17","0","BOOKSHELF","10","5","0","24628","bookshelf","10","2018-01-09 02:16:11","149816"
"A27CBSVJFYE5NA","cs_wg_v9_pilot1","3EF8EXOTT1WE6UVH41XNFMO3IQEJ1K","18","0","TRAFFIC","1","5","1","2596","traffic","1","2018-01-09 02:16:24","149817"
"A27CBSVJFYE5NA","cs_wg_v9_pilot1","3EF8EXOTT1WE6UVH41XNFMO3IQEJ1K","19","0","WEDDING","10","5","0","3132","wedding","10","2018-01-09 02:16:36","149818"
"A27CBSVJFYE5NA","cs_wg_v9_pilot1","3EF8EXOTT1WE6UVH41XNFMO3IQEJ1K","20","0","STOMACH","9","5","1","1637","stomach","9","2018-01-09 02:16:48","149819"
"A27CBSVJFYE5NA","cs_wg_v9_pilot1","3EF8EXOTT1WE6UVH41XNFMO3IQEJ1K","21","0","BOOKSHELF","10","5","0","24478","bookshelf","10","2018-01-09 02:17:24","149820"
"A27CBSVJFYE5NA","cs_wg_v9_pilot1","3EF8EXOTT1WE6UVH41XNFMO3IQEJ1K","22","0","KEYBOARD","1","5","1","1805","keyboard","1","2018-01-09 02:17:43","149821"
"A27CBSVJFYE5NA","cs_wg_v9_pilot1","3EF8EXOTT1WE6UVH41XNFMO3IQEJ1K","23","0","MACHINE","1","5","1","2490","machine","1","2018-01-09 02:17:54","149822"
"A27CBSVJFYE5NA","cs_wg_v9_pilot1","3EF8EXOTT1WE6UVH41XNFMO3IQEJ1K","24","0","KEYBOARD","1","5","1","2135","keyboard","1","2018-01-09 02:18:07","149823"
"A27CBSVJFYE5NA","cs_wg_v9_pilot1","3EF8EXOTT1WE6UVH41XNFMO3IQEJ1K","25","0","STRUCTURE","0","5","1","1942","structure","0","2018-01-09 02:18:49","149824"
"A27CBSVJFYE5NA","cs_wg_v9_pilot1","3EF8EXOTT1WE6UVH41XNFMO3IQEJ1K","26","0","STRUCTURE","0","5","1","3550","structure","0","2018-01-09 02:19:03","149825"
"A27CBSVJFYE5NA","cs_wg_v9_pilot1","3EF8EXOTT1WE6UVH41XNFMO3IQEJ1K","27","0","DOORWAY","10","5","1","3371","doorway","10","2018-01-09 02:19:17","149826"
"A27CBSVJFYE5NA","cs_wg_v9_pilot1","3EF8EXOTT1WE6UVH41XNFMO3IQEJ1K","28","0","LADDER","0","5","1","1735","ladder","0","2018-01-09 02:19:27","149827"
"A27CBSVJFYE5NA","cs_wg_v9_pilot1","3EF8EXOTT1WE6UVH41XNFMO3IQEJ1K","29","0","BOOKSHELF","10","5","1","2506","bookshelf","10","2018-01-09 02:19:40","149828"
"A27CBSVJFYE5NA","cs_wg_v9_pilot1","3EF8EXOTT1WE6UVH41XNFMO3IQEJ1K","30","0","BASKET","9","5","1","12428","bookshelf","10","2018-01-09 02:22:11","149829"
"A27CBSVJFYE5NA","cs_wg_v9_pilot1","3EF8EXOTT1WE6UVH41XNFMO3IQEJ1K","31","0","BOOKSHELF","10","5","0","4357","bookshelf","10","2018-01-09 02:22:27","149830"
"A27CBSVJFYE5NA","cs_wg_v9_pilot1","3EF8EXOTT1WE6UVH41XNFMO3IQEJ1K","32","0","STOMACH","9","5","1","1750","stomach","9","2018-01-09 02:22:37","149831"
"A27CBSVJFYE5NA","cs_wg_v9_pilot1","3EF8EXOTT1WE6UVH41XNFMO3IQEJ1K","33","0","HELICOPTER","10","5","1","1940","helicopter","10","2018-01-09 02:22:49","149832"
"A27CBSVJFYE5NA","cs_wg_v9_pilot1","3EF8EXOTT1WE6UVH41XNFMO3IQEJ1K","34","0","MACHINE","1","5","1","1846","machine","1","2018-01-09 02:23:00","149833"
"A27CBSVJFYE5NA","cs_wg_v9_pilot1","3EF8EXOTT1WE6UVH41XNFMO3IQEJ1K","35","0","KEYBOARD","1","5","1","2296","keyboard","1","2018-01-09 02:23:14","149834"
"A27CBSVJFYE5NA","cs_wg_v9_pilot1","3EF8EXOTT1WE6UVH41XNFMO3IQEJ1K","36","0","STRUCTURE","0","5","1","2822","structure","0","2018-01-09 02:23:29","149835"
"A27CBSVJFYE5NA","cs_wg_v9_pilot1","3EF8EXOTT1WE6UVH41XNFMO3IQEJ1K","37","0","WEDDING","10","5","0","57762","wedding","10","2018-01-09 02:24:36","149836"
"A27CBSVJFYE5NA","cs_wg_v9_pilot1","3EF8EXOTT1WE6UVH41XNFMO3IQEJ1K","38","0","BASKET","9","5","1","1748","basket","9","2018-01-09 02:24:48","149837"
"A27CBSVJFYE5NA","cs_wg_v9_pilot1","3EF8EXOTT1WE6UVH41XNFMO3IQEJ1K","39","0","UMBRELLA","0","5","1","2855","umbrella","0","2018-01-09 02:25:02","149838"
"A27CBSVJFYE5NA","cs_wg_v9_pilot1","3EF8EXOTT1WE6UVH41XNFMO3IQEJ1K","40","0","BASKET","9","5","1","1502","basket","9","2018-01-09 02:25:12","149839"
"A27CBSVJFYE5NA","cs_wg_v9_pilot1","3EF8EXOTT1WE6UVH41XNFMO3IQEJ1K","41","0","MACHINE","1","5","1","1300","machine","1","2018-01-09 02:25:22","149840"
"A27CBSVJFYE5NA","cs_wg_v9_pilot1","3EF8EXOTT1WE6UVH41XNFMO3IQEJ1K","42","0","TRAFFIC","1","5","0","27802","traffic","1","2018-01-09 02:25:58","149841"
"A27CBSVJFYE5NA","cs_wg_v9_pilot1","3EF8EXOTT1WE6UVH41XNFMO3IQEJ1K","43","0","DOORWAY","10","5","1","4530","doorway","10","2018-01-09 02:26:13","149842"
"A27CBSVJFYE5NA","cs_wg_v9_pilot1","3EF8EXOTT1WE6UVH41XNFMO3IQEJ1K","44","0","FOOTBALL","9","5","1","1521","football","9","2018-01-09 02:26:23","149843"
"A27CBSVJFYE5NA","cs_wg_v9_pilot1","3EF8EXOTT1WE6UVH41XNFMO3IQEJ1K","45","0","WEDDING","10","5","0","1719","wedding","10","2018-01-09 02:26:35","149844"
"A27CBSVJFYE5NA","cs_wg_v9_pilot1","3EF8EXOTT1WE6UVH41XNFMO3IQEJ1K","46","0","FOOTBALL","9","5","0","2435","football","9","2018-01-09 02:26:49","149845"
"A27CBSVJFYE5NA","cs_wg_v9_pilot1","3EF8EXOTT1WE6UVH41XNFMO3IQEJ1K","47","0","UMBRELLA","0","5","1","3451","umbrella","0","2018-01-09 02:27:03","149846"
"A27CBSVJFYE5NA","cs_wg_v9_pilot1","3EF8EXOTT1WE6UVH41XNFMO3IQEJ1K","48","0","HELICOPTER","10","5","1","34403","helicopter","10","2018-01-09 02:27:52","149847"
"A27CBSVJFYE5NA","cs_wg_v9_pilot1","3EF8EXOTT1WE6UVH41XNFMO3IQEJ1K","49","0","LADDER","0","5","1","1632","ladder","0","2018-01-09 02:28:03","149848"
"A27CBSVJFYE5NA","cs_wg_v9_pilot1","3EF8EXOTT1WE6UVH41XNFMO3IQEJ1K","50","0","FOOTBALL","9","5","0","9262","football","9","2018-01-09 02:28:24","149849"
"A27CBSVJFYE5NA","cs_wg_v9_pilot1","3EF8EXOTT1WE6UVH41XNFMO3IQEJ1K","51","0","STOMACH","9","5","1","2186","stomach","9","2018-01-09 02:28:37","149850"
"A27CBSVJFYE5NA","cs_wg_v9_pilot1","3EF8EXOTT1WE6UVH41XNFMO3IQEJ1K","52","0","UMBRELLA","0","5","0","8502","umbrella","0","2018-01-09 02:28:56","149851"
"A27CBSVJFYE5NA","cs_wg_v9_pilot1","3EF8EXOTT1WE6UVH41XNFMO3IQEJ1K","53","0","UMBRELLA","0","5","1","2913","umbrella","0","2018-01-09 02:29:09","149852"
"A27CBSVJFYE5NA","cs_wg_v9_pilot1","3EF8EXOTT1WE6UVH41XNFMO3IQEJ1K","54","0","TRAFFIC","1","5","1","3029","traffic","1","2018-01-09 02:29:21","149853"
"A27CBSVJFYE5NA","cs_wg_v9_pilot1","3EF8EXOTT1WE6UVH41XNFMO3IQEJ1K","55","0","WEDDING","10","5","0","2059","wedding","10","2018-01-09 02:29:37","149854"
"A27CBSVJFYE5NA","cs_wg_v9_pilot1","3EF8EXOTT1WE6UVH41XNFMO3IQEJ1K","56","0","HELICOPTER","10","5","0","2544","helicopter","10","2018-01-09 02:29:50","149855"
"A27CBSVJFYE5NA","cs_wg_v9_pilot1","3EF8EXOTT1WE6UVH41XNFMO3IQEJ1K","57","0","BASKET","9","5","1","7491","basket","9","2018-01-09 02:30:06","149856"
"A27CBSVJFYE5NA","cs_wg_v9_pilot1","3EF8EXOTT1WE6UVH41XNFMO3IQEJ1K","58","0","KEYBOARD","1","5","1","1392","keyboard","1","2018-01-09 02:30:31","149857"
"A27CBSVJFYE5NA","cs_wg_v9_pilot1","3EF8EXOTT1WE6UVH41XNFMO3IQEJ1K","59","0","LADDER","0","5","1","1323","ladder","0","2018-01-09 02:30:41","149858"
"A27CBSVJFYE5NA","cs_wg_v9_pilot1","3EF8EXOTT1WE6UVH41XNFMO3IQEJ1K","60","0","WEDDING","10","5","0","1531","wedding","10","2018-01-09 02:30:51","149859"
"A27CBSVJFYE5NA","cs_wg_v9_pilot1","3EF8EXOTT1WE6UVH41XNFMO3IQEJ1K","61","0","BASKET","9","5","1","1593","basket","9","2018-01-09 02:31:03","149860"
"A27CBSVJFYE5NA","cs_wg_v9_pilot1","3EF8EXOTT1WE6UVH41XNFMO3IQEJ1K","62","0","BASKET","9","5","0","1442","basket","9","2018-01-09 02:31:15","149861"
"A27CBSVJFYE5NA","cs_wg_v9_pilot1","3EF8EXOTT1WE6UVH41XNFMO3IQEJ1K","63","0","DOORWAY","10","5","1","1400","doorway","10","2018-01-09 02:31:27","149862"
"A27CBSVJFYE5NA","cs_wg_v9_pilot1","3EF8EXOTT1WE6UVH41XNFMO3IQEJ1K","64","0","UMBRELLA","0","5","1","1364","umbrella","0","2018-01-09 02:31:38","149863"
"A27CBSVJFYE5NA","cs_wg_v9_pilot1","3EF8EXOTT1WE6UVH41XNFMO3IQEJ1K","65","0","COMMUNITY","0","5","1","1571","community","0","2018-01-09 02:31:55","149864"
"A27CBSVJFYE5NA","cs_wg_v9_pilot1","3EF8EXOTT1WE6UVH41XNFMO3IQEJ1K","66","0","COMMUNITY","0","5","1","1831","community","0","2018-01-09 02:32:09","149865"
"A27CBSVJFYE5NA","cs_wg_v9_pilot1","3EF8EXOTT1WE6UVH41XNFMO3IQEJ1K","67","0","HELICOPTER","10","5","0","1982","helicopter","10","2018-01-09 02:32:21","149866"
"A27CBSVJFYE5NA","cs_wg_v9_pilot1","3EF8EXOTT1WE6UVH41XNFMO3IQEJ1K","68","0","KEYBOARD","1","5","0","1416","keyboard","1","2018-01-09 02:32:34","149867"
"A27CBSVJFYE5NA","cs_wg_v9_pilot1","3EF8EXOTT1WE6UVH41XNFMO3IQEJ1K","69","0","TRAFFIC","1","5","1","6786","traffic","1","2018-01-09 02:32:51","149868"
"A27CBSVJFYE5NA","cs_wg_v9_pilot1","3EF8EXOTT1WE6UVH41XNFMO3IQEJ1K","70","0","MACHINE","1","5","1","8835","machine","1","2018-01-09 02:33:09","149869"
"A27CBSVJFYE5NA","cs_wg_v9_pilot1","3EF8EXOTT1WE6UVH41XNFMO3IQEJ1K","71","0","KEYBOARD","1","5","1","1340","keyboard","1","2018-01-09 02:33:19","149870"
"A27CBSVJFYE5NA","cs_wg_v9_pilot1","3EF8EXOTT1WE6UVH41XNFMO3IQEJ1K","72","0","BOOKSHELF","10","5","0","10031","bookshelf","10","2018-01-09 02:33:41","149871"
"A27CBSVJFYE5NA","cs_wg_v9_pilot1","3EF8EXOTT1WE6UVH41XNFMO3IQEJ1K","73","0","FOOTBALL","9","5","1","1373","football","9","2018-01-09 02:33:53","149872"
"A27CBSVJFYE5NA","cs_wg_v9_pilot1","3EF8EXOTT1WE6UVH41XNFMO3IQEJ1K","74","0","DOORWAY","10","5","1","1839","doorway","10","2018-01-09 02:34:04","149873"
"A27CBSVJFYE5NA","cs_wg_v9_pilot1","3EF8EXOTT1WE6UVH41XNFMO3IQEJ1K","75","0","BOOKSHELF","10","5","0","1306","bookshelf","10","2018-01-09 02:34:16","149874"
"A27CBSVJFYE5NA","cs_wg_v9_pilot1","3EF8EXOTT1WE6UVH41XNFMO3IQEJ1K","76","0","STOMACH","9","5","1","3400","stomach","9","2018-01-09 02:34:32","149875"
"A27CBSVJFYE5NA","cs_wg_v9_pilot1","3EF8EXOTT1WE6UVH41XNFMO3IQEJ1K","77","0","LADDER","0","5","1","4815","ladder","0","2018-01-09 02:34:44","149876"
"A27CBSVJFYE5NA","cs_wg_v9_pilot1","3EF8EXOTT1WE6UVH41XNFMO3IQEJ1K","78","0","COMMUNITY","0","5","1","1501","community","0","2018-01-09 02:34:55","149877"
"A27CBSVJFYE5NA","cs_wg_v9_pilot1","3EF8EXOTT1WE6UVH41XNFMO3IQEJ1K","79","0","MACHINE","1","5","1","1236","machine","1","2018-01-09 02:35:05","149878"
"A27CBSVJFYE5NA","cs_wg_v9_pilot1","3EF8EXOTT1WE6UVH41XNFMO3IQEJ1K","80","0","TRAFFIC","1","5","1","1251","traffic","1","2018-01-09 02:35:15","149879"
"A27CBSVJFYE5NA","cs_wg_v9_pilot1","3EF8EXOTT1WE6UVH41XNFMO3IQEJ1K","81","0","DOORWAY","10","5","1","2064","doorway","10","2018-01-09 02:35:26","149880"
"A27CBSVJFYE5NA","cs_wg_v9_pilot1","3EF8EXOTT1WE6UVH41XNFMO3IQEJ1K","82","0","WEDDING","10","5","0","3454","wedding","10","2018-01-09 02:35:39","149881"
"A27CBSVJFYE5NA","cs_wg_v9_pilot1","3EF8EXOTT1WE6UVH41XNFMO3IQEJ1K","83","0","COMMUNITY","0","5","1","54586","community","0","2018-01-09 02:36:43","149882"
"A27CBSVJFYE5NA","cs_wg_v9_pilot1","3EF8EXOTT1WE6UVH41XNFMO3IQEJ1K","84","0","DOORWAY","10","5","0","1505","doorway","10","2018-01-09 02:36:54","149883"
"A27CBSVJFYE5NA","cs_wg_v9_pilot1","3EF8EXOTT1WE6UVH41XNFMO3IQEJ1K","85","0","COMMUNITY","0","5","0","1754","community","0","2018-01-09 02:37:06","149884"
"A27CBSVJFYE5NA","cs_wg_v9_pilot1","3EF8EXOTT1WE6UVH41XNFMO3IQEJ1K","86","0","STRUCTURE","0","5","1","1736","structure","0","2018-01-09 02:37:22","149885"
"A27CBSVJFYE5NA","cs_wg_v9_pilot1","3EF8EXOTT1WE6UVH41XNFMO3IQEJ1K","87","0","BASKET","9","5","0","1908","basket","9","2018-01-09 02:37:32","149886"
"A27CBSVJFYE5NA","cs_wg_v9_pilot1","3EF8EXOTT1WE6UVH41XNFMO3IQEJ1K","88","0","HELICOPTER","10","5","0","2187","helicopter","10","2018-01-09 02:37:46","149887"
"A27CBSVJFYE5NA","cs_wg_v9_pilot1","3EF8EXOTT1WE6UVH41XNFMO3IQEJ1K","89","0","STOMACH","9","5","1","1678","stomach","9","2018-01-09 02:38:05","149888"
"A27CBSVJFYE5NA","cs_wg_v9_pilot1","3EF8EXOTT1WE6UVH41XNFMO3IQEJ1K","90","0","LADDER","0","5","1","3442","ladder","0","2018-01-09 02:38:16","149889"
"A27CBSVJFYE5NA","cs_wg_v9_pilot1","3EF8EXOTT1WE6UVH41XNFMO3IQEJ1K","91","0","UMBRELLA","0","5","1","1996","umbrella","0","2018-01-09 02:38:28","149890"
"A27CBSVJFYE5NA","cs_wg_v9_pilot1","3EF8EXOTT1WE6UVH41XNFMO3IQEJ1K","92","0","LADDER","0","5","1","17274","ladder","0","2018-01-09 02:38:54","149891"
"A27CBSVJFYE5NA","cs_wg_v9_pilot1","3EF8EXOTT1WE6UVH41XNFMO3IQEJ1K","93","0","TRAFFIC","1","5","1","1441","ladder","0","2018-01-09 02:39:31","149892"
"A27CBSVJFYE5NA","cs_wg_v9_pilot1","3EF8EXOTT1WE6UVH41XNFMO3IQEJ1K","94","0","TRAFFIC","1","5","1","2195","traffic","1","2018-01-09 02:39:42","149893"
"A27CBSVJFYE5NA","cs_wg_v9_pilot1","3EF8EXOTT1WE6UVH41XNFMO3IQEJ1K","95","0","FOOTBALL","9","5","1","1379","footbal","9","2018-01-09 02:39:51","149894"
"A27CBSVJFYE5NA","cs_wg_v9_pilot1","3EF8EXOTT1WE6UVH41XNFMO3IQEJ1K","96","0","FOOTBALL","9","5","0","4651","football","9","2018-01-09 02:40:08","149895"
"A27CBSVJFYE5NA","cs_wg_v9_pilot1","3EF8EXOTT1WE6UVH41XNFMO3IQEJ1K","97","0","STRUCTURE","0","5","1","4723","structure","0","2018-01-09 02:40:22","149896"
"A27CBSVJFYE5NA","cs_wg_v9_pilot1","3EF8EXOTT1WE6UVH41XNFMO3IQEJ1K","98","0","UMBRELLA","0","5","1","1677","umbrella","0","2018-01-09 02:40:34","149897"
"A27CBSVJFYE5NA","cs_wg_v9_pilot1","3EF8EXOTT1WE6UVH41XNFMO3IQEJ1K","99","0","BASKET","9","5","0","2045","basket","9","2018-01-09 02:40:46","149898"
"A27CBSVJFYE5NA","cs_wg_v9_pilot1","3EF8EXOTT1WE6UVH41XNFMO3IQEJ1K","100","0","STOMACH","9","5","1","8431","stomach","9","2018-01-09 02:41:07","149899"
"A27CBSVJFYE5NA","cs_wg_v9_pilot1","3EF8EXOTT1WE6UVH41XNFMO3IQEJ1K","101","0","LADDER","0","5","1","1687","ladder","0","2018-01-09 02:41:17","149900"
"A27CBSVJFYE5NA","cs_wg_v9_pilot1","3EF8EXOTT1WE6UVH41XNFMO3IQEJ1K","102","0","FOOTBALL","9","5","0","6326","football","9","2018-01-09 02:41:35","149901"
"A27CBSVJFYE5NA","cs_wg_v9_pilot1","3EF8EXOTT1WE6UVH41XNFMO3IQEJ1K","103","0","HELICOPTER","10","5","0","1548","helicopter","10","2018-01-09 02:41:50","149902"
"A27CBSVJFYE5NA","cs_wg_v9_pilot1","3EF8EXOTT1WE6UVH41XNFMO3IQEJ1K","104","0","KEYBOARD","1","5","1","1575","keyboard","1","2018-01-09 02:42:02","149903"
"A27CBSVJFYE5NA","cs_wg_v9_pilot1","3EF8EXOTT1WE6UVH41XNFMO3IQEJ1K","105","0","FOOTBALL","9","5","0","1238","FOOTBALL","9","2018-01-09 02:42:12","149904"
"A27CBSVJFYE5NA","cs_wg_v9_pilot1","3EF8EXOTT1WE6UVH41XNFMO3IQEJ1K","106","0","HELICOPTER","10","5","0","1492","HELICOPTER","10","2018-01-09 02:42:23","149905"
"A27CBSVJFYE5NA","cs_wg_v9_pilot1","3EF8EXOTT1WE6UVH41XNFMO3IQEJ1K","107","0","COMMUNITY","0","5","1","4665","COMMUNITY","0","2018-01-09 02:42:38","149906"
"A27CBSVJFYE5NA","cs_wg_v9_pilot1","3EF8EXOTT1WE6UVH41XNFMO3IQEJ1K","108","0","HELICOPTER","10","5","0","5882","HELICOPTER","10","2018-01-09 02:42:56","149907"
"A27CBSVJFYE5NA","cs_wg_v9_pilot1","3EF8EXOTT1WE6UVH41XNFMO3IQEJ1K","109","0","STRUCTURE","0","5","1","3507","STRUCTURE","0","2018-01-09 02:43:08","149908"
"A27CBSVJFYE5NA","cs_wg_v9_pilot1","3EF8EXOTT1WE6UVH41XNFMO3IQEJ1K","110","0","MACHINE","1","5","1","1273","MACHINE","1","2018-01-09 02:43:22","149909"
"A27CBSVJFYE5NA","cs_wg_v9_pilot1","3EF8EXOTT1WE6UVH41XNFMO3IQEJ1K","111","0","KEYBOARD","1","5","1","1910","keyboard","1","2018-01-09 02:43:41","149910"
