"subject","version","assignmentId","trial","trial_type","word","value","alt","value2","choice","rt","resp","resp2","resp3","resp4","used_hint","stamp","id"
"ALVYYB3MI30NS","cs_wg_rev_mem_pilot2","31QNSG6A5RU3XZE02DH5R663VAJ87V","0","0","SPATULA","4","BASKET","4","1","7239",,,,,"0","2018-10-03 21:00:52","242163"
"ALVYYB3MI30NS","cs_wg_rev_mem_pilot2","31QNSG6A5RU3XZE02DH5R663VAJ87V","1","0","GROUND","4","BASKET","4","1","1504",,,,,"0","2018-10-03 21:00:58","242164"
"ALVYYB3MI30NS","cs_wg_rev_mem_pilot2","31QNSG6A5RU3XZE02DH5R663VAJ87V","2","0","PALACE","3","MONKEY","3","0","1170",,,,,"0","2018-10-03 21:01:03","242165"
"ALVYYB3MI30NS","cs_wg_rev_mem_pilot2","31QNSG6A5RU3XZE02DH5R663VAJ87V","3","0","PELICAN","4","BASKET","4","0","188",,,,,"0","2018-10-03 21:01:04","242166"
"ALVYYB3MI30NS","cs_wg_rev_mem_pilot2","31QNSG6A5RU3XZE02DH5R663VAJ87V","4","0","PELICAN","4","COWBOY","3","1","434",,,,,"0","2018-10-03 21:01:06","242167"
"ALVYYB3MI30NS","cs_wg_rev_mem_pilot2","31QNSG6A5RU3XZE02DH5R663VAJ87V","5","0","PALACE","3","SPATULA","4","0","1518",,,,,"0","2018-10-03 21:01:09","242168"
"ALVYYB3MI30NS","cs_wg_rev_mem_pilot2","31QNSG6A5RU3XZE02DH5R663VAJ87V","6","0","MONKEY","3","BASKET","4","1","127",,,,,"0","2018-10-03 21:01:10","242169"
"ALVYYB3MI30NS","cs_wg_rev_mem_pilot2","31QNSG6A5RU3XZE02DH5R663VAJ87V","7","0","WIZARD","4","ADULT","3","0","57",,,,,"0","2018-10-03 21:01:11","242170"
"ALVYYB3MI30NS","cs_wg_rev_mem_pilot2","31QNSG6A5RU3XZE02DH5R663VAJ87V","8","0","PELICAN","4","BUCKET","4","1","859",,,,,"0","2018-10-03 21:01:14","242171"
"ALVYYB3MI30NS","cs_wg_rev_mem_pilot2","31QNSG6A5RU3XZE02DH5R663VAJ87V","9","0","PALACE","3","TURKEY","3","0","4493",,,,,"0","2018-10-03 21:01:22","242172"
"ALVYYB3MI30NS","cs_wg_rev_mem_pilot2","31QNSG6A5RU3XZE02DH5R663VAJ87V","10","0","PALACE","3","BASKET","4","0","3794",,,,,"0","2018-10-03 21:01:28","242173"
"ALVYYB3MI30NS","cs_wg_rev_mem_pilot2","31QNSG6A5RU3XZE02DH5R663VAJ87V","11","0","SPATULA","4","BUCKET","4","0","94",,,,,"0","2018-10-03 21:01:29","242174"
"A14SEFVPXYZ9TN","cs_wg_rev_mem_pilot2","3B837J3LDOXVY2DOPPLGDEX48GKSRE","0","0","BLANKET","5","MONKEY","3","1","11268",,,,,"0","2018-10-03 21:01:32","242175"
"ALVYYB3MI30NS","cs_wg_rev_mem_pilot2","31QNSG6A5RU3XZE02DH5R663VAJ87V","12","0","MOUSE","2","WIZARD","4","0","1583",,,,,"0","2018-10-03 21:01:32","242176"
"ALVYYB3MI30NS","cs_wg_rev_mem_pilot2","31QNSG6A5RU3XZE02DH5R663VAJ87V","13","0","WIZARD","4","PALACE","3","0","32",,,,,"0","2018-10-03 21:01:33","242177"
"ALVYYB3MI30NS","cs_wg_rev_mem_pilot2","31QNSG6A5RU3XZE02DH5R663VAJ87V","14","0","TURKEY","3","GROUND","4","1","121",,,,,"0","2018-10-03 21:01:35","242178"
"ALVYYB3MI30NS","cs_wg_rev_mem_pilot2","31QNSG6A5RU3XZE02DH5R663VAJ87V","15","0","MOUSE","2","BASKET","4","0","150",,,,,"0","2018-10-03 21:01:36","242179"
"ALVYYB3MI30NS","cs_wg_rev_mem_pilot2","31QNSG6A5RU3XZE02DH5R663VAJ87V","16","0","PALACE","3","MOUSE","2","1","31",,,,,"0","2018-10-03 21:01:37","242180"
"ALVYYB3MI30NS","cs_wg_rev_mem_pilot2","31QNSG6A5RU3XZE02DH5R663VAJ87V","17","0","BUCKET","4","GROUND","4","1","70",,,,,"0","2018-10-03 21:01:38","242181"
"A14SEFVPXYZ9TN","cs_wg_rev_mem_pilot2","3B837J3LDOXVY2DOPPLGDEX48GKSRE","1","0","MARKET","4","COSTUME","4","0","4917",,,,,"0","2018-10-03 21:01:39","242182"
"ALVYYB3MI30NS","cs_wg_rev_mem_pilot2","31QNSG6A5RU3XZE02DH5R663VAJ87V","18","0","MONKEY","3","MOUSE","2","1","43",,,,,"0","2018-10-03 21:01:39","242183"
"ALVYYB3MI30NS","cs_wg_rev_mem_pilot2","31QNSG6A5RU3XZE02DH5R663VAJ87V","19","0","COWBOY","3","MONKEY","3","0","26",,,,,"0","2018-10-03 21:01:41","242184"
"ALVYYB3MI30NS","cs_wg_rev_mem_pilot2","31QNSG6A5RU3XZE02DH5R663VAJ87V","20","0","COWBOY","3","BUCKET","4","1","39",,,,,"0","2018-10-03 21:01:42","242185"
"ALVYYB3MI30NS","cs_wg_rev_mem_pilot2","31QNSG6A5RU3XZE02DH5R663VAJ87V","21","0","WIZARD","4","GROUND","4","1","2",,,,,"0","2018-10-03 21:01:43","242186"
"ALVYYB3MI30NS","cs_wg_rev_mem_pilot2","31QNSG6A5RU3XZE02DH5R663VAJ87V","22","0","BASKET","4","TURKEY","3","0","12",,,,,"0","2018-10-03 21:01:44","242187"
"ALVYYB3MI30NS","cs_wg_rev_mem_pilot2","31QNSG6A5RU3XZE02DH5R663VAJ87V","23","0","SPATULA","4","PALACE","3","0","112",,,,,"0","2018-10-03 21:01:45","242188"
"A14SEFVPXYZ9TN","cs_wg_rev_mem_pilot2","3B837J3LDOXVY2DOPPLGDEX48GKSRE","2","0","PEBBLE","4","BLANKET","5","0","4079",,,,,"0","2018-10-03 21:01:46","242189"
"ALVYYB3MI30NS","cs_wg_rev_mem_pilot2","31QNSG6A5RU3XZE02DH5R663VAJ87V","24","0","PELICAN","4","TURKEY","3","0","61",,,,,"0","2018-10-03 21:01:47","242190"
"ALVYYB3MI30NS","cs_wg_rev_mem_pilot2","31QNSG6A5RU3XZE02DH5R663VAJ87V","25","0","PALACE","3","GROUND","4","1","288",,,,,"0","2018-10-03 21:01:48","242191"
"ALVYYB3MI30NS","cs_wg_rev_mem_pilot2","31QNSG6A5RU3XZE02DH5R663VAJ87V","26","0","COWBOY","3","ADULT","3","1","155",,,,,"0","2018-10-03 21:01:49","242192"
"A14SEFVPXYZ9TN","cs_wg_rev_mem_pilot2","3B837J3LDOXVY2DOPPLGDEX48GKSRE","3","0","AIRBAG","3","PUMPKIN","5","1","1516",,,,,"0","2018-10-03 21:01:49","242193"
"ALVYYB3MI30NS","cs_wg_rev_mem_pilot2","31QNSG6A5RU3XZE02DH5R663VAJ87V","27","0","TURKEY","3","MOUSE","2","0","42",,,,,"0","2018-10-03 21:01:50","242194"
"ALVYYB3MI30NS","cs_wg_rev_mem_pilot2","31QNSG6A5RU3XZE02DH5R663VAJ87V","28","0","ADULT","3","MONKEY","3","0","66",,,,,"0","2018-10-03 21:01:52","242195"
"A14SEFVPXYZ9TN","cs_wg_rev_mem_pilot2","3B837J3LDOXVY2DOPPLGDEX48GKSRE","4","0","PUMPKIN","5","GROUND","4","0","1391",,,,,"0","2018-10-03 21:01:52","242196"
"ALVYYB3MI30NS","cs_wg_rev_mem_pilot2","31QNSG6A5RU3XZE02DH5R663VAJ87V","29","0","SPATULA","4","GROUND","4","1","118",,,,,"0","2018-10-03 21:01:53","242197"
"ALVYYB3MI30NS","cs_wg_rev_mem_pilot2","31QNSG6A5RU3XZE02DH5R663VAJ87V","30","0","WIZARD","4","COWBOY","3","1","769",,,,,"0","2018-10-03 21:01:56","242198"
"A14SEFVPXYZ9TN","cs_wg_rev_mem_pilot2","3B837J3LDOXVY2DOPPLGDEX48GKSRE","5","0","GROUND","4","AIRBAG","3","0","1993",,,,,"0","2018-10-03 21:01:56","242199"
"ALVYYB3MI30NS","cs_wg_rev_mem_pilot2","31QNSG6A5RU3XZE02DH5R663VAJ87V","31","0","WIZARD","4","MOUSE","2","0","166",,,,,"0","2018-10-03 21:01:57","242200"
"ALVYYB3MI30NS","cs_wg_rev_mem_pilot2","31QNSG6A5RU3XZE02DH5R663VAJ87V","32","0","COWBOY","3","PELICAN","4","1","12",,,,,"0","2018-10-03 21:01:58","242201"
"A14SEFVPXYZ9TN","cs_wg_rev_mem_pilot2","3B837J3LDOXVY2DOPPLGDEX48GKSRE","6","0","PUMPKIN","5","COSTUME","4","0","1379",,,,,"0","2018-10-03 21:01:59","242202"
"ALVYYB3MI30NS","cs_wg_rev_mem_pilot2","31QNSG6A5RU3XZE02DH5R663VAJ87V","33","0","MOUSE","2","BUCKET","4","1","381",,,,,"0","2018-10-03 21:01:59","242203"
"ALVYYB3MI30NS","cs_wg_rev_mem_pilot2","31QNSG6A5RU3XZE02DH5R663VAJ87V","34","0","PALACE","3","PELICAN","4","1","90",,,,,"0","2018-10-03 21:02:01","242204"
"ALVYYB3MI30NS","cs_wg_rev_mem_pilot2","31QNSG6A5RU3XZE02DH5R663VAJ87V","35","0","TURKEY","3","BASKET","4","0","6",,,,,"0","2018-10-03 21:02:02","242205"
"A14SEFVPXYZ9TN","cs_wg_rev_mem_pilot2","3B837J3LDOXVY2DOPPLGDEX48GKSRE","7","0","MARKET","4","GROUND","4","1","1418",,,,,"0","2018-10-03 21:02:03","242206"
"ALVYYB3MI30NS","cs_wg_rev_mem_pilot2","31QNSG6A5RU3XZE02DH5R663VAJ87V","36","0","SPATULA","4","TURKEY","3","0","89",,,,,"0","2018-10-03 21:02:03","242207"
"ALVYYB3MI30NS","cs_wg_rev_mem_pilot2","31QNSG6A5RU3XZE02DH5R663VAJ87V","37","0","WIZARD","4","SPATULA","4","1","144",,,,,"0","2018-10-03 21:02:04","242208"
"ALVYYB3MI30NS","cs_wg_rev_mem_pilot2","31QNSG6A5RU3XZE02DH5R663VAJ87V","38","0","BUCKET","4","TURKEY","3","1","12",,,,,"0","2018-10-03 21:02:06","242209"
"A14SEFVPXYZ9TN","cs_wg_rev_mem_pilot2","3B837J3LDOXVY2DOPPLGDEX48GKSRE","8","0","GROUND","4","MONKEY","3","0","1701",,,,,"0","2018-10-03 21:02:06","242210"
"ALVYYB3MI30NS","cs_wg_rev_mem_pilot2","31QNSG6A5RU3XZE02DH5R663VAJ87V","39","0","MOUSE","2","GROUND","4","0","343",,,,,"0","2018-10-03 21:02:07","242211"
"A3RTXKL0EGLRDJ","cs_wg_rev_mem_pilot2","36TFCYNS44BQ5PLKNUF9YICQ0MNXHT","0","0","SQUARE","3","ACROBAT","4","0","21083",,,,,"0","2018-10-03 21:02:07","242212"
"ALVYYB3MI30NS","cs_wg_rev_mem_pilot2","31QNSG6A5RU3XZE02DH5R663VAJ87V","40","0","ADULT","3","BUCKET","4","1","23",,,,,"0","2018-10-03 21:02:08","242213"
"A14SEFVPXYZ9TN","cs_wg_rev_mem_pilot2","3B837J3LDOXVY2DOPPLGDEX48GKSRE","9","0","PENGUIN","4","PUMPKIN","5","1","1230",,,,,"0","2018-10-03 21:02:09","242214"
"ALVYYB3MI30NS","cs_wg_rev_mem_pilot2","31QNSG6A5RU3XZE02DH5R663VAJ87V","41","0","TURKEY","3","COWBOY","3","1","170",,,,,"0","2018-10-03 21:02:10","242215"
"ALVYYB3MI30NS","cs_wg_rev_mem_pilot2","31QNSG6A5RU3XZE02DH5R663VAJ87V","42","0","MOUSE","2","TURKEY","3","1","141",,,,,"0","2018-10-03 21:02:11","242216"
"A3RTXKL0EGLRDJ","cs_wg_rev_mem_pilot2","36TFCYNS44BQ5PLKNUF9YICQ0MNXHT","1","0","SQUARE","3","BLANKET","5","1","1518",,,,,"0","2018-10-03 21:02:12","242217"
"ALVYYB3MI30NS","cs_wg_rev_mem_pilot2","31QNSG6A5RU3XZE02DH5R663VAJ87V","43","0","GROUND","4","BUCKET","4","1","130",,,,,"0","2018-10-03 21:02:12","242218"
"A14SEFVPXYZ9TN","cs_wg_rev_mem_pilot2","3B837J3LDOXVY2DOPPLGDEX48GKSRE","10","0","MONKEY","3","GROUND","4","1","1219",,,,,"0","2018-10-03 21:02:12","242219"
"ALVYYB3MI30NS","cs_wg_rev_mem_pilot2","31QNSG6A5RU3XZE02DH5R663VAJ87V","44","0","SPATULA","4","MOUSE","2","0","64",,,,,"0","2018-10-03 21:02:13","242220"
"ALVYYB3MI30NS","cs_wg_rev_mem_pilot2","31QNSG6A5RU3XZE02DH5R663VAJ87V","45","0","BASKET","4","PALACE","3","0","140",,,,,"0","2018-10-03 21:02:15","242221"
"A14SEFVPXYZ9TN","cs_wg_rev_mem_pilot2","3B837J3LDOXVY2DOPPLGDEX48GKSRE","11","0","BLANKET","5","PENGUIN","4","0","1446",,,,,"0","2018-10-03 21:02:15","242222"
"ALVYYB3MI30NS","cs_wg_rev_mem_pilot2","31QNSG6A5RU3XZE02DH5R663VAJ87V","46","0","MONKEY","3","GROUND","4","1","107",,,,,"0","2018-10-03 21:02:16","242223"
"A3RTXKL0EGLRDJ","cs_wg_rev_mem_pilot2","36TFCYNS44BQ5PLKNUF9YICQ0MNXHT","2","0","SCUBA","3","MONKEY","3","0","803",,,,,"0","2018-10-03 21:02:16","242224"
"ALVYYB3MI30NS","cs_wg_rev_mem_pilot2","31QNSG6A5RU3XZE02DH5R663VAJ87V","47","0","PELICAN","4","PALACE","3","1","15",,,,,"0","2018-10-03 21:02:17","242225"
"A14SEFVPXYZ9TN","cs_wg_rev_mem_pilot2","3B837J3LDOXVY2DOPPLGDEX48GKSRE","12","0","MARKET","4","PUMPKIN","5","1","944",,,,,"0","2018-10-03 21:02:18","242226"
"ALVYYB3MI30NS","cs_wg_rev_mem_pilot2","31QNSG6A5RU3XZE02DH5R663VAJ87V","48","0","SPATULA","4","PELICAN","4","1","291",,,,,"0","2018-10-03 21:02:19","242227"
"A3RTXKL0EGLRDJ","cs_wg_rev_mem_pilot2","36TFCYNS44BQ5PLKNUF9YICQ0MNXHT","3","0","MARKET","4","BLOUSE","3","1","342",,,,,"0","2018-10-03 21:02:20","242228"
"ALVYYB3MI30NS","cs_wg_rev_mem_pilot2","31QNSG6A5RU3XZE02DH5R663VAJ87V","49","0","GROUND","4","PALACE","3","0","150",,,,,"0","2018-10-03 21:02:20","242229"
"ALVYYB3MI30NS","cs_wg_rev_mem_pilot2","31QNSG6A5RU3XZE02DH5R663VAJ87V","50","0","MONKEY","3","SPATULA","4","0","44",,,,,"0","2018-10-03 21:02:21","242230"
"A14SEFVPXYZ9TN","cs_wg_rev_mem_pilot2","3B837J3LDOXVY2DOPPLGDEX48GKSRE","13","0","BANANA","3","AIRBAG","3","1","1296",,,,,"0","2018-10-03 21:02:21","242231"
"A3RTXKL0EGLRDJ","cs_wg_rev_mem_pilot2","36TFCYNS44BQ5PLKNUF9YICQ0MNXHT","4","0","MONKEY","3","BLANKET","5","0","745",,,,,"0","2018-10-03 21:02:22","242232"
"ALVYYB3MI30NS","cs_wg_rev_mem_pilot2","31QNSG6A5RU3XZE02DH5R663VAJ87V","51","0","ADULT","3","BASKET","4","0","233",,,,,"0","2018-10-03 21:02:22","242233"
"ALVYYB3MI30NS","cs_wg_rev_mem_pilot2","31QNSG6A5RU3XZE02DH5R663VAJ87V","52","0","BASKET","4","COWBOY","3","1","59",,,,,"0","2018-10-03 21:02:23","242234"
"A3RTXKL0EGLRDJ","cs_wg_rev_mem_pilot2","36TFCYNS44BQ5PLKNUF9YICQ0MNXHT","5","0","MARKET","4","COMPANY","4","1","443",,,,,"0","2018-10-03 21:02:24","242235"
"A14SEFVPXYZ9TN","cs_wg_rev_mem_pilot2","3B837J3LDOXVY2DOPPLGDEX48GKSRE","14","0","AIRBAG","3","MARKET","4","0","982",,,,,"0","2018-10-03 21:02:24","242236"
"ALVYYB3MI30NS","cs_wg_rev_mem_pilot2","31QNSG6A5RU3XZE02DH5R663VAJ87V","53","0","BASKET","4","GROUND","4","0","114",,,,,"0","2018-10-03 21:02:25","242237"
"A3RTXKL0EGLRDJ","cs_wg_rev_mem_pilot2","36TFCYNS44BQ5PLKNUF9YICQ0MNXHT","6","0","MARKET","4","BLANKET","5","0","498",,,,,"0","2018-10-03 21:02:25","242238"
"ALVYYB3MI30NS","cs_wg_rev_mem_pilot2","31QNSG6A5RU3XZE02DH5R663VAJ87V","54","0","SPATULA","4","ADULT","3","0","31",,,,,"0","2018-10-03 21:02:26","242239"
"A14SEFVPXYZ9TN","cs_wg_rev_mem_pilot2","3B837J3LDOXVY2DOPPLGDEX48GKSRE","15","0","PEBBLE","4","GROUND","4","1","875",,,,,"0","2018-10-03 21:02:27","242240"
"A3RTXKL0EGLRDJ","cs_wg_rev_mem_pilot2","36TFCYNS44BQ5PLKNUF9YICQ0MNXHT","7","0","SCUBA","3","DONKEY","3","1","434",,,,,"0","2018-10-03 21:02:27","242241"
"ALVYYB3MI30NS","cs_wg_rev_mem_pilot2","31QNSG6A5RU3XZE02DH5R663VAJ87V","55","0","COWBOY","3","GROUND","4","1","12",,,,,"0","2018-10-03 21:02:27","242242"
"ALVYYB3MI30NS","cs_wg_rev_mem_pilot2","31QNSG6A5RU3XZE02DH5R663VAJ87V","56","0","COWBOY","3","PALACE","3","0","31",,,,,"0","2018-10-03 21:02:28","242243"
"A3RTXKL0EGLRDJ","cs_wg_rev_mem_pilot2","36TFCYNS44BQ5PLKNUF9YICQ0MNXHT","8","0","COMPANY","4","BLANKET","5","0","128",,,,,"0","2018-10-03 21:02:29","242244"
"A14SEFVPXYZ9TN","cs_wg_rev_mem_pilot2","3B837J3LDOXVY2DOPPLGDEX48GKSRE","16","0","THUMB","4","BANANA","3","0","1239",,,,,"0","2018-10-03 21:02:30","242245"
"A3RTXKL0EGLRDJ","cs_wg_rev_mem_pilot2","36TFCYNS44BQ5PLKNUF9YICQ0MNXHT","9","0","ACROBAT","4","GRENADE","4","0","133",,,,,"0","2018-10-03 21:02:30","242246"
"A3RTXKL0EGLRDJ","cs_wg_rev_mem_pilot2","36TFCYNS44BQ5PLKNUF9YICQ0MNXHT","10","0","GRENADE","4","ACROBAT","4","0","166",,,,,"0","2018-10-03 21:02:31","242247"
"A14SEFVPXYZ9TN","cs_wg_rev_mem_pilot2","3B837J3LDOXVY2DOPPLGDEX48GKSRE","17","0","MONKEY","3","COSTUME","4","0","981",,,,,"0","2018-10-03 21:02:32","242248"
"A3RTXKL0EGLRDJ","cs_wg_rev_mem_pilot2","36TFCYNS44BQ5PLKNUF9YICQ0MNXHT","11","0","SQUARE","3","SPATULA","4","0","1025",,,,,"0","2018-10-03 21:02:33","242249"
"ALVYYB3MI30NS","cs_wg_rev_mem_pilot2","31QNSG6A5RU3XZE02DH5R663VAJ87V","57","0","ADULT","3","PELICAN","4","1","4002",,,,,"0","2018-10-03 21:02:35","242250"
"A3RTXKL0EGLRDJ","cs_wg_rev_mem_pilot2","36TFCYNS44BQ5PLKNUF9YICQ0MNXHT","12","0","DONKEY","3","MONKEY","3","0","189",,,,,"0","2018-10-03 21:02:35","242251"
"A14SEFVPXYZ9TN","cs_wg_rev_mem_pilot2","3B837J3LDOXVY2DOPPLGDEX48GKSRE","18","0","AIRBAG","3","PEBBLE","4","0","760",,,,,"0","2018-10-03 21:02:35","242252"
"A3RTXKL0EGLRDJ","cs_wg_rev_mem_pilot2","36TFCYNS44BQ5PLKNUF9YICQ0MNXHT","13","0","SPATULA","4","ACROBAT","4","0","155",,,,,"0","2018-10-03 21:02:36","242253"
"A14SEFVPXYZ9TN","cs_wg_rev_mem_pilot2","3B837J3LDOXVY2DOPPLGDEX48GKSRE","19","0","BANANA","3","PEBBLE","4","1","932",,,,,"0","2018-10-03 21:02:37","242254"
"ALVYYB3MI30NS","cs_wg_rev_mem_pilot2","31QNSG6A5RU3XZE02DH5R663VAJ87V","58","0","BUCKET","4","BASKET","4","0","1325",,,,,"0","2018-10-03 21:02:37","242255"
"A3RTXKL0EGLRDJ","cs_wg_rev_mem_pilot2","36TFCYNS44BQ5PLKNUF9YICQ0MNXHT","14","0","SCUBA","3","SPATULA","4","0","435",,,,,"0","2018-10-03 21:02:38","242256"
"A14SEFVPXYZ9TN","cs_wg_rev_mem_pilot2","3B837J3LDOXVY2DOPPLGDEX48GKSRE","20","0","GROUND","4","PENGUIN","4","1","1128",,,,,"0","2018-10-03 21:02:40","242257"
"ALVYYB3MI30NS","cs_wg_rev_mem_pilot2","31QNSG6A5RU3XZE02DH5R663VAJ87V","59","0","PELICAN","4","MOUSE","2","0","3214",,,,,"0","2018-10-03 21:02:43","242258"
"A14SEFVPXYZ9TN","cs_wg_rev_mem_pilot2","3B837J3LDOXVY2DOPPLGDEX48GKSRE","21","0","PENGUIN","4","GROUND","4","0","810",,,,,"0","2018-10-03 21:02:43","242259"
"A3RTXKL0EGLRDJ","cs_wg_rev_mem_pilot2","36TFCYNS44BQ5PLKNUF9YICQ0MNXHT","15","0","SPATULA","4","BLOUSE","3","0","3387",,,,,"0","2018-10-03 21:02:43","242260"
"A14SEFVPXYZ9TN","cs_wg_rev_mem_pilot2","3B837J3LDOXVY2DOPPLGDEX48GKSRE","22","0","PENGUIN","4","MARKET","4","0","697",,,,,"0","2018-10-03 21:02:45","242261"
"ALVYYB3MI30NS","cs_wg_rev_mem_pilot2","31QNSG6A5RU3XZE02DH5R663VAJ87V","60","0","TURKEY","3","SPATULA","4","1","1702",,,,,"0","2018-10-03 21:02:46","242262"
"ALVYYB3MI30NS","cs_wg_rev_mem_pilot2","31QNSG6A5RU3XZE02DH5R663VAJ87V","61","0","PELICAN","4","MONKEY","3","1","724",,,,,"0","2018-10-03 21:02:48","242263"
"ALVYYB3MI30NS","cs_wg_rev_mem_pilot2","31QNSG6A5RU3XZE02DH5R663VAJ87V","62","0","MOUSE","2","MONKEY","3","0","45",,,,,"0","2018-10-03 21:02:50","242264"
"A14SEFVPXYZ9TN","cs_wg_rev_mem_pilot2","3B837J3LDOXVY2DOPPLGDEX48GKSRE","23","0","BANANA","3","PENGUIN","4","1","2553",,,,,"0","2018-10-03 21:02:50","242265"
"ALVYYB3MI30NS","cs_wg_rev_mem_pilot2","31QNSG6A5RU3XZE02DH5R663VAJ87V","63","0","BUCKET","4","MONKEY","3","1","137",,,,,"0","2018-10-03 21:02:51","242266"
"A14SEFVPXYZ9TN","cs_wg_rev_mem_pilot2","3B837J3LDOXVY2DOPPLGDEX48GKSRE","24","0","MARKET","4","BANANA","3","0","755",,,,,"0","2018-10-03 21:02:52","242267"
"A3RTXKL0EGLRDJ","cs_wg_rev_mem_pilot2","36TFCYNS44BQ5PLKNUF9YICQ0MNXHT","16","0","MONKEY","3","ACROBAT","4","0","6552",,,,,"0","2018-10-03 21:02:52","242268"
"ALVYYB3MI30NS","cs_wg_rev_mem_pilot2","31QNSG6A5RU3XZE02DH5R663VAJ87V","64","0","COWBOY","3","BASKET","4","1","909",,,,,"0","2018-10-03 21:02:54","242269"
"A3RTXKL0EGLRDJ","cs_wg_rev_mem_pilot2","36TFCYNS44BQ5PLKNUF9YICQ0MNXHT","17","0","MONKEY","3","GRENADE","4","0","377",,,,,"0","2018-10-03 21:02:54","242270"
"ALVYYB3MI30NS","cs_wg_rev_mem_pilot2","31QNSG6A5RU3XZE02DH5R663VAJ87V","65","0","GROUND","4","MOUSE","2","1","20",,,,,"0","2018-10-03 21:02:55","242271"
"A14SEFVPXYZ9TN","cs_wg_rev_mem_pilot2","3B837J3LDOXVY2DOPPLGDEX48GKSRE","25","0","COSTUME","4","THUMB","4","0","945",,,,,"0","2018-10-03 21:02:55","242272"
"ALVYYB3MI30NS","cs_wg_rev_mem_pilot2","31QNSG6A5RU3XZE02DH5R663VAJ87V","66","0","BASKET","4","BUCKET","4","1","770",,,,,"0","2018-10-03 21:02:58","242273"
"ALVYYB3MI30NS","cs_wg_rev_mem_pilot2","31QNSG6A5RU3XZE02DH5R663VAJ87V","67","0","SPATULA","4","MONKEY","3","0","123",,,,,"0","2018-10-03 21:02:59","242274"
"A14SEFVPXYZ9TN","cs_wg_rev_mem_pilot2","3B837J3LDOXVY2DOPPLGDEX48GKSRE","26","0","BAMBOO","3","GROUND","4","0","3228",,,,,"0","2018-10-03 21:03:00","242275"
"ALVYYB3MI30NS","cs_wg_rev_mem_pilot2","31QNSG6A5RU3XZE02DH5R663VAJ87V","68","0","GROUND","4","COWBOY","3","1","356",,,,,"0","2018-10-03 21:03:01","242276"
"A3RTXKL0EGLRDJ","cs_wg_rev_mem_pilot2","36TFCYNS44BQ5PLKNUF9YICQ0MNXHT","18","0","ACROBAT","4","MONKEY","3","0","5501",,,,,"0","2018-10-03 21:03:01","242277"
"ALVYYB3MI30NS","cs_wg_rev_mem_pilot2","31QNSG6A5RU3XZE02DH5R663VAJ87V","69","0","TURKEY","3","WIZARD","4","0","10",,,,,"0","2018-10-03 21:03:02","242278"
"A14SEFVPXYZ9TN","cs_wg_rev_mem_pilot2","3B837J3LDOXVY2DOPPLGDEX48GKSRE","27","0","THUMB","4","COSTUME","4","1","881",,,,,"0","2018-10-03 21:03:03","242279"
"ALVYYB3MI30NS","cs_wg_rev_mem_pilot2","31QNSG6A5RU3XZE02DH5R663VAJ87V","70","0","ADULT","3","SPATULA","4","1","268",,,,,"0","2018-10-03 21:03:04","242280"
"A3RTXKL0EGLRDJ","cs_wg_rev_mem_pilot2","36TFCYNS44BQ5PLKNUF9YICQ0MNXHT","19","0","SCUBA","3","GRENADE","4","0","591",,,,,"0","2018-10-03 21:03:04","242281"
"ALVYYB3MI30NS","cs_wg_rev_mem_pilot2","31QNSG6A5RU3XZE02DH5R663VAJ87V","71","0","PALACE","3","ADULT","3","0","61",,,,,"0","2018-10-03 21:03:05","242282"
"A3RTXKL0EGLRDJ","cs_wg_rev_mem_pilot2","36TFCYNS44BQ5PLKNUF9YICQ0MNXHT","20","0","BLANKET","5","MONKEY","3","0","127",,,,,"0","2018-10-03 21:03:06","242283"
"A14SEFVPXYZ9TN","cs_wg_rev_mem_pilot2","3B837J3LDOXVY2DOPPLGDEX48GKSRE","28","0","AIRBAG","3","BAMBOO","3","0","1351",,,,,"0","2018-10-03 21:03:06","242284"
"ALVYYB3MI30NS","cs_wg_rev_mem_pilot2","31QNSG6A5RU3XZE02DH5R663VAJ87V","72","0","COWBOY","3","WIZARD","4","0","139",,,,,"0","2018-10-03 21:03:07","242285"
"A3RTXKL0EGLRDJ","cs_wg_rev_mem_pilot2","36TFCYNS44BQ5PLKNUF9YICQ0MNXHT","21","0","SQUARE","3","MONKEY","3","0","96",,,,,"0","2018-10-03 21:03:07","242286"
"ALVYYB3MI30NS","cs_wg_rev_mem_pilot2","31QNSG6A5RU3XZE02DH5R663VAJ87V","73","0","PALACE","3","COWBOY","3","0","182",,,,,"0","2018-10-03 21:03:08","242287"
"A3RTXKL0EGLRDJ","cs_wg_rev_mem_pilot2","36TFCYNS44BQ5PLKNUF9YICQ0MNXHT","22","0","MARKET","4","SCUBA","3","0","196",,,,,"0","2018-10-03 21:03:08","242288"
"ALVYYB3MI30NS","cs_wg_rev_mem_pilot2","31QNSG6A5RU3XZE02DH5R663VAJ87V","74","0","COWBOY","3","TURKEY","3","1","122",,,,,"0","2018-10-03 21:03:09","242289"
"A14SEFVPXYZ9TN","cs_wg_rev_mem_pilot2","3B837J3LDOXVY2DOPPLGDEX48GKSRE","29","0","THUMB","4","BLANKET","5","0","1352",,,,,"0","2018-10-03 21:03:10","242290"
"ALVYYB3MI30NS","cs_wg_rev_mem_pilot2","31QNSG6A5RU3XZE02DH5R663VAJ87V","75","0","COWBOY","3","MOUSE","2","0","123",,,,,"0","2018-10-03 21:03:11","242291"
"ALVYYB3MI30NS","cs_wg_rev_mem_pilot2","31QNSG6A5RU3XZE02DH5R663VAJ87V","76","0","MOUSE","2","SPATULA","4","1","196",,,,,"0","2018-10-03 21:03:12","242292"
"A14SEFVPXYZ9TN","cs_wg_rev_mem_pilot2","3B837J3LDOXVY2DOPPLGDEX48GKSRE","30","0","COSTUME","4","PEBBLE","4","0","1202",,,,,"0","2018-10-03 21:03:13","242293"
"ALVYYB3MI30NS","cs_wg_rev_mem_pilot2","31QNSG6A5RU3XZE02DH5R663VAJ87V","77","0","BUCKET","4","SPATULA","4","1","52",,,,,"0","2018-10-03 21:03:13","242294"
"A14SEFVPXYZ9TN","cs_wg_rev_mem_pilot2","3B837J3LDOXVY2DOPPLGDEX48GKSRE","31","0","COSTUME","4","AIRBAG","3","0","654",,,,,"0","2018-10-03 21:03:15","242295"
"ALVYYB3MI30NS","cs_wg_rev_mem_pilot2","31QNSG6A5RU3XZE02DH5R663VAJ87V","78","0","TURKEY","3","ADULT","3","1","331",,,,,"0","2018-10-03 21:03:15","242296"
"ALVYYB3MI30NS","cs_wg_rev_mem_pilot2","31QNSG6A5RU3XZE02DH5R663VAJ87V","79","0","MOUSE","2","COWBOY","3","1","103",,,,,"0","2018-10-03 21:03:16","242297"
"A14SEFVPXYZ9TN","cs_wg_rev_mem_pilot2","3B837J3LDOXVY2DOPPLGDEX48GKSRE","32","0","PENGUIN","4","BANANA","3","0","646",,,,,"0","2018-10-03 21:03:17","242298"
"ALVYYB3MI30NS","cs_wg_rev_mem_pilot2","31QNSG6A5RU3XZE02DH5R663VAJ87V","80","0","WIZARD","4","BUCKET","4","1","108",,,,,"0","2018-10-03 21:03:18","242299"
"ALVYYB3MI30NS","cs_wg_rev_mem_pilot2","31QNSG6A5RU3XZE02DH5R663VAJ87V","81","0","GROUND","4","PELICAN","4","0","157",,,,,"0","2018-10-03 21:03:19","242300"
"A3RTXKL0EGLRDJ","cs_wg_rev_mem_pilot2","36TFCYNS44BQ5PLKNUF9YICQ0MNXHT","23","0","BLANKET","5","GRENADE","4","0","38",,,,,"0","2018-10-03 21:03:19","242301"
"A14SEFVPXYZ9TN","cs_wg_rev_mem_pilot2","3B837J3LDOXVY2DOPPLGDEX48GKSRE","33","0","MONKEY","3","BLANKET","5","1","1082",,,,,"0","2018-10-03 21:03:20","242302"
"ALVYYB3MI30NS","cs_wg_rev_mem_pilot2","31QNSG6A5RU3XZE02DH5R663VAJ87V","82","0","BUCKET","4","PELICAN","4","0","181",,,,,"0","2018-10-03 21:03:20","242303"
"A3RTXKL0EGLRDJ","cs_wg_rev_mem_pilot2","36TFCYNS44BQ5PLKNUF9YICQ0MNXHT","24","0","JAGUAR","3","MONKEY","3","0","482",,,,,"0","2018-10-03 21:03:22","242304"
"ALVYYB3MI30NS","cs_wg_rev_mem_pilot2","31QNSG6A5RU3XZE02DH5R663VAJ87V","83","0","ADULT","3","WIZARD","4","0","28",,,,,"0","2018-10-03 21:03:22","242305"
"A14SEFVPXYZ9TN","cs_wg_rev_mem_pilot2","3B837J3LDOXVY2DOPPLGDEX48GKSRE","34","0","PEBBLE","4","PENGUIN","4","1","856",,,,,"0","2018-10-03 21:03:23","242306"
"ALVYYB3MI30NS","cs_wg_rev_mem_pilot2","31QNSG6A5RU3XZE02DH5R663VAJ87V","84","0","MOUSE","2","PELICAN","4","0","75",,,,,"0","2018-10-03 21:03:23","242307"
"ALVYYB3MI30NS","cs_wg_rev_mem_pilot2","31QNSG6A5RU3XZE02DH5R663VAJ87V","85","0","MONKEY","3","TURKEY","3","0","236",,,,,"0","2018-10-03 21:03:25","242308"
"A14SEFVPXYZ9TN","cs_wg_rev_mem_pilot2","3B837J3LDOXVY2DOPPLGDEX48GKSRE","35","0","BAMBOO","3","PUMPKIN","5","1","888",,,,,"0","2018-10-03 21:03:25","242309"
"ALVYYB3MI30NS","cs_wg_rev_mem_pilot2","31QNSG6A5RU3XZE02DH5R663VAJ87V","86","0","MONKEY","3","WIZARD","4","1","145",,,,,"0","2018-10-03 21:03:26","242310"
"ALVYYB3MI30NS","cs_wg_rev_mem_pilot2","31QNSG6A5RU3XZE02DH5R663VAJ87V","87","0","PELICAN","4","WIZARD","4","1","179",,,,,"0","2018-10-03 21:03:27","242311"
"A14SEFVPXYZ9TN","cs_wg_rev_mem_pilot2","3B837J3LDOXVY2DOPPLGDEX48GKSRE","36","0","MONKEY","3","PUMPKIN","5","1","562",,,,,"0","2018-10-03 21:03:27","242312"
"ALVYYB3MI30NS","cs_wg_rev_mem_pilot2","31QNSG6A5RU3XZE02DH5R663VAJ87V","88","0","MOUSE","2","PALACE","3","0","364",,,,,"0","2018-10-03 21:03:29","242313"
"A14SEFVPXYZ9TN","cs_wg_rev_mem_pilot2","3B837J3LDOXVY2DOPPLGDEX48GKSRE","37","0","THUMB","4","MARKET","4","0","1024",,,,,"0","2018-10-03 21:03:30","242314"
"ALVYYB3MI30NS","cs_wg_rev_mem_pilot2","31QNSG6A5RU3XZE02DH5R663VAJ87V","89","0","SPATULA","4","COWBOY","3","1","227",,,,,"0","2018-10-03 21:03:31","242315"
"A3RTXKL0EGLRDJ","cs_wg_rev_mem_pilot2","36TFCYNS44BQ5PLKNUF9YICQ0MNXHT","25","0","BLOUSE","3","SCUBA","3","0","8327",,,,,"0","2018-10-03 21:03:31","242316"
"A3RTXKL0EGLRDJ","cs_wg_rev_mem_pilot2","36TFCYNS44BQ5PLKNUF9YICQ0MNXHT","26","0","COMPANY","4","BLOUSE","3","0","21",,,,,"0","2018-10-03 21:03:32","242317"
"A14SEFVPXYZ9TN","cs_wg_rev_mem_pilot2","3B837J3LDOXVY2DOPPLGDEX48GKSRE","38","0","BANANA","3","COSTUME","4","0","826",,,,,"0","2018-10-03 21:03:33","242318"
"ALVYYB3MI30NS","cs_wg_rev_mem_pilot2","31QNSG6A5RU3XZE02DH5R663VAJ87V","90","0","BUCKET","4","PALACE","3","1","283",,,,,"0","2018-10-03 21:03:33","242319"
"A3RTXKL0EGLRDJ","cs_wg_rev_mem_pilot2","36TFCYNS44BQ5PLKNUF9YICQ0MNXHT","27","0","ACROBAT","4","SQUARE","3","0","20",,,,,"0","2018-10-03 21:03:34","242320"
"ALVYYB3MI30NS","cs_wg_rev_mem_pilot2","31QNSG6A5RU3XZE02DH5R663VAJ87V","91","0","BASKET","4","SPATULA","4","0","13",,,,,"0","2018-10-03 21:03:34","242321"
"A14SEFVPXYZ9TN","cs_wg_rev_mem_pilot2","3B837J3LDOXVY2DOPPLGDEX48GKSRE","39","0","PUMPKIN","5","BANANA","3","0","604",,,,,"0","2018-10-03 21:03:35","242322"
"ALVYYB3MI30NS","cs_wg_rev_mem_pilot2","31QNSG6A5RU3XZE02DH5R663VAJ87V","92","0","BUCKET","4","MOUSE","2","1","35",,,,,"0","2018-10-03 21:03:35","242323"
"A3RTXKL0EGLRDJ","cs_wg_rev_mem_pilot2","36TFCYNS44BQ5PLKNUF9YICQ0MNXHT","28","0","SPATULA","4","BLANKET","5","0","173",,,,,"0","2018-10-03 21:03:35","242324"
"A3RTXKL0EGLRDJ","cs_wg_rev_mem_pilot2","36TFCYNS44BQ5PLKNUF9YICQ0MNXHT","29","0","JAGUAR","3","BLOUSE","3","0","259",,,,,"0","2018-10-03 21:03:37","242325"
"ALVYYB3MI30NS","cs_wg_rev_mem_pilot2","31QNSG6A5RU3XZE02DH5R663VAJ87V","93","0","BASKET","4","WIZARD","4","1","267",,,,,"0","2018-10-03 21:03:37","242326"
"A14SEFVPXYZ9TN","cs_wg_rev_mem_pilot2","3B837J3LDOXVY2DOPPLGDEX48GKSRE","40","0","BANANA","3","MARKET","4","1","696",,,,,"0","2018-10-03 21:03:37","242327"
"A3RTXKL0EGLRDJ","cs_wg_rev_mem_pilot2","36TFCYNS44BQ5PLKNUF9YICQ0MNXHT","30","0","SQUARE","3","COMPANY","4","0","350",,,,,"0","2018-10-03 21:03:38","242328"
"ALVYYB3MI30NS","cs_wg_rev_mem_pilot2","31QNSG6A5RU3XZE02DH5R663VAJ87V","94","0","GROUND","4","WIZARD","4","0","93",,,,,"0","2018-10-03 21:03:38","242329"
"A3RTXKL0EGLRDJ","cs_wg_rev_mem_pilot2","36TFCYNS44BQ5PLKNUF9YICQ0MNXHT","31","0","ACROBAT","4","BLANKET","5","0","87",,,,,"0","2018-10-03 21:03:39","242330"
"ALVYYB3MI30NS","cs_wg_rev_mem_pilot2","31QNSG6A5RU3XZE02DH5R663VAJ87V","95","0","MONKEY","3","COWBOY","3","0","38",,,,,"0","2018-10-03 21:03:39","242331"
"A14SEFVPXYZ9TN","cs_wg_rev_mem_pilot2","3B837J3LDOXVY2DOPPLGDEX48GKSRE","41","0","PEBBLE","4","BAMBOO","3","1","713",,,,,"0","2018-10-03 21:03:40","242332"
"ALVYYB3MI30NS","cs_wg_rev_mem_pilot2","31QNSG6A5RU3XZE02DH5R663VAJ87V","96","0","PELICAN","4","SPATULA","4","1","117",,,,,"0","2018-10-03 21:03:41","242333"
"ALVYYB3MI30NS","cs_wg_rev_mem_pilot2","31QNSG6A5RU3XZE02DH5R663VAJ87V","97","0","WIZARD","4","PELICAN","4","0","30",,,,,"0","2018-10-03 21:03:42","242334"
"A14SEFVPXYZ9TN","cs_wg_rev_mem_pilot2","3B837J3LDOXVY2DOPPLGDEX48GKSRE","42","0","PENGUIN","4","THUMB","4","0","755",,,,,"0","2018-10-03 21:03:42","242335"
"ALVYYB3MI30NS","cs_wg_rev_mem_pilot2","31QNSG6A5RU3XZE02DH5R663VAJ87V","98","0","MONKEY","3","ADULT","3","0","118",,,,,"0","2018-10-03 21:03:43","242336"
"A14SEFVPXYZ9TN","cs_wg_rev_mem_pilot2","3B837J3LDOXVY2DOPPLGDEX48GKSRE","43","0","PUMPKIN","5","PEBBLE","4","0","579",,,,,"0","2018-10-03 21:03:44","242337"
"A3RTXKL0EGLRDJ","cs_wg_rev_mem_pilot2","36TFCYNS44BQ5PLKNUF9YICQ0MNXHT","32","0","JAGUAR","3","BLANKET","5","0","748",,,,,"0","2018-10-03 21:03:44","242338"
"ALVYYB3MI30NS","cs_wg_rev_mem_pilot2","31QNSG6A5RU3XZE02DH5R663VAJ87V","99","0","MOUSE","2","ADULT","3","0","196",,,,,"0","2018-10-03 21:03:44","242339"
"ALVYYB3MI30NS","cs_wg_rev_mem_pilot2","31QNSG6A5RU3XZE02DH5R663VAJ87V","100","0","MONKEY","3","PELICAN","4","1","26",,,,,"0","2018-10-03 21:03:46","242340"
"A3RTXKL0EGLRDJ","cs_wg_rev_mem_pilot2","36TFCYNS44BQ5PLKNUF9YICQ0MNXHT","33","0","DONKEY","3","ACROBAT","4","1","157",,,,,"0","2018-10-03 21:03:46","242341"
"A14SEFVPXYZ9TN","cs_wg_rev_mem_pilot2","3B837J3LDOXVY2DOPPLGDEX48GKSRE","44","0","BAMBOO","3","MARKET","4","1","867",,,,,"0","2018-10-03 21:03:47","242342"
"ALVYYB3MI30NS","cs_wg_rev_mem_pilot2","31QNSG6A5RU3XZE02DH5R663VAJ87V","101","0","SPATULA","4","WIZARD","4","1","107",,,,,"0","2018-10-03 21:03:47","242343"
"A3RTXKL0EGLRDJ","cs_wg_rev_mem_pilot2","36TFCYNS44BQ5PLKNUF9YICQ0MNXHT","34","0","COMPANY","4","MONKEY","3","1","50",,,,,"0","2018-10-03 21:03:48","242344"
"ALVYYB3MI30NS","cs_wg_rev_mem_pilot2","31QNSG6A5RU3XZE02DH5R663VAJ87V","102","0","TURKEY","3","PELICAN","4","1","105",,,,,"0","2018-10-03 21:03:49","242345"
"A14SEFVPXYZ9TN","cs_wg_rev_mem_pilot2","3B837J3LDOXVY2DOPPLGDEX48GKSRE","45","0","BAMBOO","3","PEBBLE","4","1","579",,,,,"0","2018-10-03 21:03:49","242346"
"A3RTXKL0EGLRDJ","cs_wg_rev_mem_pilot2","36TFCYNS44BQ5PLKNUF9YICQ0MNXHT","35","0","SPATULA","4","MARKET","4","1","337",,,,,"0","2018-10-03 21:03:50","242347"
"ALVYYB3MI30NS","cs_wg_rev_mem_pilot2","31QNSG6A5RU3XZE02DH5R663VAJ87V","103","0","ADULT","3","COWBOY","3","1","5",,,,,"0","2018-10-03 21:03:50","242348"
"ALVYYB3MI30NS","cs_wg_rev_mem_pilot2","31QNSG6A5RU3XZE02DH5R663VAJ87V","104","0","GROUND","4","MONKEY","3","1","31",,,,,"0","2018-10-03 21:03:51","242349"
"A14SEFVPXYZ9TN","cs_wg_rev_mem_pilot2","3B837J3LDOXVY2DOPPLGDEX48GKSRE","46","0","COSTUME","4","PUMPKIN","5","1","1005",,,,,"0","2018-10-03 21:03:52","242350"
"ALVYYB3MI30NS","cs_wg_rev_mem_pilot2","31QNSG6A5RU3XZE02DH5R663VAJ87V","105","0","ADULT","3","MOUSE","2","0","126",,,,,"0","2018-10-03 21:03:53","242351"
"A3RTXKL0EGLRDJ","cs_wg_rev_mem_pilot2","36TFCYNS44BQ5PLKNUF9YICQ0MNXHT","36","0","MONKEY","3","JAGUAR","3","1","518",,,,,"0","2018-10-03 21:03:53","242352"
"ALVYYB3MI30NS","cs_wg_rev_mem_pilot2","31QNSG6A5RU3XZE02DH5R663VAJ87V","106","0","TURKEY","3","MONKEY","3","0","164",,,,,"0","2018-10-03 21:03:54","242353"
"A14SEFVPXYZ9TN","cs_wg_rev_mem_pilot2","3B837J3LDOXVY2DOPPLGDEX48GKSRE","47","0","GROUND","4","MARKET","4","0","1519",,,,,"0","2018-10-03 21:03:55","242354"
"ALVYYB3MI30NS","cs_wg_rev_mem_pilot2","31QNSG6A5RU3XZE02DH5R663VAJ87V","107","0","BASKET","4","PELICAN","4","1","150",,,,,"0","2018-10-03 21:03:56","242355"
"ALVYYB3MI30NS","cs_wg_rev_mem_pilot2","31QNSG6A5RU3XZE02DH5R663VAJ87V","108","0","GROUND","4","TURKEY","3","0","110",,,,,"0","2018-10-03 21:03:57","242356"
"A14SEFVPXYZ9TN","cs_wg_rev_mem_pilot2","3B837J3LDOXVY2DOPPLGDEX48GKSRE","48","0","AIRBAG","3","THUMB","4","1","1289",,,,,"0","2018-10-03 21:03:58","242357"
"ALVYYB3MI30NS","cs_wg_rev_mem_pilot2","31QNSG6A5RU3XZE02DH5R663VAJ87V","109","0","TURKEY","3","PALACE","3","1","69",,,,,"0","2018-10-03 21:03:58","242358"
"ALVYYB3MI30NS","cs_wg_rev_mem_pilot2","31QNSG6A5RU3XZE02DH5R663VAJ87V","110","0","WIZARD","4","MONKEY","3","1","661",,,,,"0","2018-10-03 21:04:01","242359"
"A14SEFVPXYZ9TN","cs_wg_rev_mem_pilot2","3B837J3LDOXVY2DOPPLGDEX48GKSRE","49","0","MONKEY","3","PEBBLE","4","0","1650",,,,,"0","2018-10-03 21:04:02","242360"
"ALVYYB3MI30NS","cs_wg_rev_mem_pilot2","31QNSG6A5RU3XZE02DH5R663VAJ87V","111","0","PELICAN","4","GROUND","4","1","98",,,,,"0","2018-10-03 21:04:03","242361"
"A14SEFVPXYZ9TN","cs_wg_rev_mem_pilot2","3B837J3LDOXVY2DOPPLGDEX48GKSRE","50","0","MONKEY","3","THUMB","4","1","704",,,,,"0","2018-10-03 21:04:04","242362"
"ALVYYB3MI30NS","cs_wg_rev_mem_pilot2","31QNSG6A5RU3XZE02DH5R663VAJ87V","112","0","TURKEY","3","BUCKET","4","0","31",,,,,"0","2018-10-03 21:04:04","242363"
"ALVYYB3MI30NS","cs_wg_rev_mem_pilot2","31QNSG6A5RU3XZE02DH5R663VAJ87V","113","0","ADULT","3","PALACE","3","1","157",,,,,"0","2018-10-03 21:04:06","242364"
"ALVYYB3MI30NS","cs_wg_rev_mem_pilot2","31QNSG6A5RU3XZE02DH5R663VAJ87V","114","0","PELICAN","4","ADULT","3","0","40",,,,,"0","2018-10-03 21:04:07","242365"
"A14SEFVPXYZ9TN","cs_wg_rev_mem_pilot2","3B837J3LDOXVY2DOPPLGDEX48GKSRE","51","0","PENGUIN","4","BAMBOO","3","0","978",,,,,"0","2018-10-03 21:04:07","242366"
"ALVYYB3MI30NS","cs_wg_rev_mem_pilot2","31QNSG6A5RU3XZE02DH5R663VAJ87V","115","0","COWBOY","3","SPATULA","4","0","95",,,,,"0","2018-10-03 21:04:08","242367"
"A14SEFVPXYZ9TN","cs_wg_rev_mem_pilot2","3B837J3LDOXVY2DOPPLGDEX48GKSRE","52","0","PEBBLE","4","COSTUME","4","1","712",,,,,"0","2018-10-03 21:04:09","242368"
"ALVYYB3MI30NS","cs_wg_rev_mem_pilot2","31QNSG6A5RU3XZE02DH5R663VAJ87V","116","0","BUCKET","4","COWBOY","3","0","173",,,,,"0","2018-10-03 21:04:10","242369"
"ALVYYB3MI30NS","cs_wg_rev_mem_pilot2","31QNSG6A5RU3XZE02DH5R663VAJ87V","117","0","BASKET","4","MONKEY","3","0","125",,,,,"0","2018-10-03 21:04:11","242370"
"A14SEFVPXYZ9TN","cs_wg_rev_mem_pilot2","3B837J3LDOXVY2DOPPLGDEX48GKSRE","53","0","GROUND","4","PEBBLE","4","0","762",,,,,"0","2018-10-03 21:04:12","242371"
"ALVYYB3MI30NS","cs_wg_rev_mem_pilot2","31QNSG6A5RU3XZE02DH5R663VAJ87V","118","0","BUCKET","4","WIZARD","4","1","401",,,,,"0","2018-10-03 21:04:14","242372"
"ALVYYB3MI30NS","cs_wg_rev_mem_pilot2","31QNSG6A5RU3XZE02DH5R663VAJ87V","119","0","MONKEY","3","BUCKET","4","0","50",,,,,"0","2018-10-03 21:04:15","242373"
"A14SEFVPXYZ9TN","cs_wg_rev_mem_pilot2","3B837J3LDOXVY2DOPPLGDEX48GKSRE","54","0","COSTUME","4","GROUND","4","0","1990",,,,,"0","2018-10-03 21:04:18","242374"
"A14SEFVPXYZ9TN","cs_wg_rev_mem_pilot2","3B837J3LDOXVY2DOPPLGDEX48GKSRE","55","0","BANANA","3","MONKEY","3","0","823",,,,,"0","2018-10-03 21:04:21","242375"
"A14SEFVPXYZ9TN","cs_wg_rev_mem_pilot2","3B837J3LDOXVY2DOPPLGDEX48GKSRE","56","0","BLANKET","5","BANANA","3","0","1134",,,,,"0","2018-10-03 21:04:24","242376"
"A14SEFVPXYZ9TN","cs_wg_rev_mem_pilot2","3B837J3LDOXVY2DOPPLGDEX48GKSRE","57","0","COSTUME","4","PENGUIN","4","1","749",,,,,"0","2018-10-03 21:04:26","242377"
"A14SEFVPXYZ9TN","cs_wg_rev_mem_pilot2","3B837J3LDOXVY2DOPPLGDEX48GKSRE","58","0","MONKEY","3","PENGUIN","4","1","775",,,,,"0","2018-10-03 21:04:28","242378"
"A14SEFVPXYZ9TN","cs_wg_rev_mem_pilot2","3B837J3LDOXVY2DOPPLGDEX48GKSRE","59","0","BANANA","3","THUMB","4","1","754",,,,,"0","2018-10-03 21:04:31","242379"
"A14SEFVPXYZ9TN","cs_wg_rev_mem_pilot2","3B837J3LDOXVY2DOPPLGDEX48GKSRE","60","0","MONKEY","3","AIRBAG","3","0","18378",,,,,"0","2018-10-03 21:04:53","242380"
"A14SEFVPXYZ9TN","cs_wg_rev_mem_pilot2","3B837J3LDOXVY2DOPPLGDEX48GKSRE","61","0","BLANKET","5","GROUND","4","0","707",,,,,"0","2018-10-03 21:04:57","242381"
"A14SEFVPXYZ9TN","cs_wg_rev_mem_pilot2","3B837J3LDOXVY2DOPPLGDEX48GKSRE","62","0","PEBBLE","4","MONKEY","3","0","1714",,,,,"0","2018-10-03 21:05:00","242382"
"A14SEFVPXYZ9TN","cs_wg_rev_mem_pilot2","3B837J3LDOXVY2DOPPLGDEX48GKSRE","63","0","MARKET","4","AIRBAG","3","0","698",,,,,"0","2018-10-03 21:05:03","242383"
"A14SEFVPXYZ9TN","cs_wg_rev_mem_pilot2","3B837J3LDOXVY2DOPPLGDEX48GKSRE","64","0","PUMPKIN","5","AIRBAG","3","0","442",,,,,"0","2018-10-03 21:05:05","242384"
"A14SEFVPXYZ9TN","cs_wg_rev_mem_pilot2","3B837J3LDOXVY2DOPPLGDEX48GKSRE","65","0","BLANKET","5","THUMB","4","0","576",,,,,"0","2018-10-03 21:05:07","242385"
"A14SEFVPXYZ9TN","cs_wg_rev_mem_pilot2","3B837J3LDOXVY2DOPPLGDEX48GKSRE","66","0","MARKET","4","BAMBOO","3","0","1320",,,,,"0","2018-10-03 21:05:10","242386"
"A14SEFVPXYZ9TN","cs_wg_rev_mem_pilot2","3B837J3LDOXVY2DOPPLGDEX48GKSRE","67","0","COSTUME","4","BAMBOO","3","0","917",,,,,"0","2018-10-03 21:05:13","242387"
"A14SEFVPXYZ9TN","cs_wg_rev_mem_pilot2","3B837J3LDOXVY2DOPPLGDEX48GKSRE","68","0","PUMPKIN","5","THUMB","4","0","502",,,,,"0","2018-10-03 21:05:15","242388"
"ALVYYB3MI30NS","cs_wg_rev_mem_pilot2","31QNSG6A5RU3XZE02DH5R663VAJ87V","120","0","PALACE","3","WIZARD","4","0","3871",,,,,"0","2018-10-03 21:05:16","242389"
"A14SEFVPXYZ9TN","cs_wg_rev_mem_pilot2","3B837J3LDOXVY2DOPPLGDEX48GKSRE","69","0","PEBBLE","4","BANANA","3","1","647",,,,,"0","2018-10-03 21:05:17","242390"
"A14SEFVPXYZ9TN","cs_wg_rev_mem_pilot2","3B837J3LDOXVY2DOPPLGDEX48GKSRE","70","0","BAMBOO","3","THUMB","4","1","862",,,,,"0","2018-10-03 21:05:20","242391"
"ALVYYB3MI30NS","cs_wg_rev_mem_pilot2","31QNSG6A5RU3XZE02DH5R663VAJ87V","121","0","WIZARD","4","BASKET","4","0","54",,,,,"0","2018-10-03 21:05:21","242392"
"ALVYYB3MI30NS","cs_wg_rev_mem_pilot2","31QNSG6A5RU3XZE02DH5R663VAJ87V","122","0","MONKEY","3","PALACE","3","0","298",,,,,"0","2018-10-03 21:05:23","242393"
"A14SEFVPXYZ9TN","cs_wg_rev_mem_pilot2","3B837J3LDOXVY2DOPPLGDEX48GKSRE","71","0","AIRBAG","3","BLANKET","5","0","1240",,,,,"0","2018-10-03 21:05:23","242394"
"ALVYYB3MI30NS","cs_wg_rev_mem_pilot2","31QNSG6A5RU3XZE02DH5R663VAJ87V","123","0","BASKET","4","ADULT","3","1","96",,,,,"0","2018-10-03 21:05:24","242395"
"ALVYYB3MI30NS","cs_wg_rev_mem_pilot2","31QNSG6A5RU3XZE02DH5R663VAJ87V","124","0","BUCKET","4","ADULT","3","1","104",,,,,"0","2018-10-03 21:05:25","242396"
"A14SEFVPXYZ9TN","cs_wg_rev_mem_pilot2","3B837J3LDOXVY2DOPPLGDEX48GKSRE","72","0","THUMB","4","PUMPKIN","5","1","596",,,,,"0","2018-10-03 21:05:25","242397"
"ALVYYB3MI30NS","cs_wg_rev_mem_pilot2","31QNSG6A5RU3XZE02DH5R663VAJ87V","125","0","BASKET","4","MOUSE","2","1","599",,,,,"0","2018-10-03 21:05:28","242398"
"ALVYYB3MI30NS","cs_wg_rev_mem_pilot2","31QNSG6A5RU3XZE02DH5R663VAJ87V","126","0","GROUND","4","ADULT","3","0","170",,,,,"0","2018-10-03 21:05:29","242399"
"A14SEFVPXYZ9TN","cs_wg_rev_mem_pilot2","3B837J3LDOXVY2DOPPLGDEX48GKSRE","73","0","BAMBOO","3","COSTUME","4","1","2342",,,,,"0","2018-10-03 21:05:30","242400"
"ALVYYB3MI30NS","cs_wg_rev_mem_pilot2","31QNSG6A5RU3XZE02DH5R663VAJ87V","127","0","ADULT","3","TURKEY","3","0","181",,,,,"0","2018-10-03 21:05:30","242401"
"ALVYYB3MI30NS","cs_wg_rev_mem_pilot2","31QNSG6A5RU3XZE02DH5R663VAJ87V","128","0","PALACE","3","BUCKET","4","1","193",,,,,"0","2018-10-03 21:05:31","242402"
"A14SEFVPXYZ9TN","cs_wg_rev_mem_pilot2","3B837J3LDOXVY2DOPPLGDEX48GKSRE","74","0","BAMBOO","3","AIRBAG","3","0","665",,,,,"0","2018-10-03 21:05:32","242403"
"ALVYYB3MI30NS","cs_wg_rev_mem_pilot2","31QNSG6A5RU3XZE02DH5R663VAJ87V","129","0","WIZARD","4","TURKEY","3","1","685",,,,,"0","2018-10-03 21:05:34","242404"
"A14SEFVPXYZ9TN","cs_wg_rev_mem_pilot2","3B837J3LDOXVY2DOPPLGDEX48GKSRE","75","0","AIRBAG","3","GROUND","4","1","874",,,,,"0","2018-10-03 21:05:35","242405"
"ALVYYB3MI30NS","cs_wg_rev_mem_pilot2","31QNSG6A5RU3XZE02DH5R663VAJ87V","130","0","GROUND","4","SPATULA","4","0","303",,,,,"0","2018-10-03 21:05:36","242406"
"A14SEFVPXYZ9TN","cs_wg_rev_mem_pilot2","3B837J3LDOXVY2DOPPLGDEX48GKSRE","76","0","THUMB","4","PEBBLE","4","0","623",,,,,"0","2018-10-03 21:05:37","242407"
"ALVYYB3MI30NS","cs_wg_rev_mem_pilot2","31QNSG6A5RU3XZE02DH5R663VAJ87V","131","0","ADULT","3","GROUND","4","1","387",,,,,"0","2018-10-03 21:05:40","242408"
"A14SEFVPXYZ9TN","cs_wg_rev_mem_pilot2","3B837J3LDOXVY2DOPPLGDEX48GKSRE","77","0","THUMB","4","BAMBOO","3","0","455",,,,,"0","2018-10-03 21:05:40","242409"
"A14SEFVPXYZ9TN","cs_wg_rev_mem_pilot2","3B837J3LDOXVY2DOPPLGDEX48GKSRE","78","0","GROUND","4","THUMB","4","1","1073",,,,,"0","2018-10-03 21:05:43","242410"
"A14SEFVPXYZ9TN","cs_wg_rev_mem_pilot2","3B837J3LDOXVY2DOPPLGDEX48GKSRE","79","0","MONKEY","3","MARKET","4","1","1198",,,,,"0","2018-10-03 21:05:46","242411"
"A14SEFVPXYZ9TN","cs_wg_rev_mem_pilot2","3B837J3LDOXVY2DOPPLGDEX48GKSRE","80","0","BANANA","3","GROUND","4","1","1529",,,,,"0","2018-10-03 21:05:49","242412"
"A14SEFVPXYZ9TN","cs_wg_rev_mem_pilot2","3B837J3LDOXVY2DOPPLGDEX48GKSRE","81","0","PUMPKIN","5","MONKEY","3","0","643",,,,,"0","2018-10-03 21:05:51","242413"
"A14SEFVPXYZ9TN","cs_wg_rev_mem_pilot2","3B837J3LDOXVY2DOPPLGDEX48GKSRE","82","0","MARKET","4","BLANKET","5","1","681",,,,,"0","2018-10-03 21:05:54","242414"
"A14SEFVPXYZ9TN","cs_wg_rev_mem_pilot2","3B837J3LDOXVY2DOPPLGDEX48GKSRE","83","0","PENGUIN","4","PEBBLE","4","0","928",,,,,"0","2018-10-03 21:05:56","242415"
"A14SEFVPXYZ9TN","cs_wg_rev_mem_pilot2","3B837J3LDOXVY2DOPPLGDEX48GKSRE","84","0","BAMBOO","3","BANANA","3","1","1001",,,,,"0","2018-10-03 21:05:59","242416"
"A14SEFVPXYZ9TN","cs_wg_rev_mem_pilot2","3B837J3LDOXVY2DOPPLGDEX48GKSRE","85","0","BANANA","3","BLANKET","5","1","727",,,,,"0","2018-10-03 21:06:01","242417"
"A14SEFVPXYZ9TN","cs_wg_rev_mem_pilot2","3B837J3LDOXVY2DOPPLGDEX48GKSRE","86","0","PENGUIN","4","AIRBAG","3","0","685",,,,,"0","2018-10-03 21:06:04","242418"
"A14SEFVPXYZ9TN","cs_wg_rev_mem_pilot2","3B837J3LDOXVY2DOPPLGDEX48GKSRE","87","0","PEBBLE","4","AIRBAG","3","1","953",,,,,"0","2018-10-03 21:06:07","242419"
"A14SEFVPXYZ9TN","cs_wg_rev_mem_pilot2","3B837J3LDOXVY2DOPPLGDEX48GKSRE","88","0","THUMB","4","MONKEY","3","0","1051",,,,,"0","2018-10-03 21:06:09","242420"
"A14SEFVPXYZ9TN","cs_wg_rev_mem_pilot2","3B837J3LDOXVY2DOPPLGDEX48GKSRE","89","0","BLANKET","5","AIRBAG","3","0","513",,,,,"0","2018-10-03 21:06:12","242421"
"A14SEFVPXYZ9TN","cs_wg_rev_mem_pilot2","3B837J3LDOXVY2DOPPLGDEX48GKSRE","90","0","AIRBAG","3","BANANA","3","0","825",,,,,"0","2018-10-03 21:06:14","242422"
"A14SEFVPXYZ9TN","cs_wg_rev_mem_pilot2","3B837J3LDOXVY2DOPPLGDEX48GKSRE","91","0","PEBBLE","4","PUMPKIN","5","1","625",,,,,"0","2018-10-03 21:06:17","242423"
"A14SEFVPXYZ9TN","cs_wg_rev_mem_pilot2","3B837J3LDOXVY2DOPPLGDEX48GKSRE","92","0","PUMPKIN","5","PENGUIN","4","0","593",,,,,"0","2018-10-03 21:06:19","242424"
"A14SEFVPXYZ9TN","cs_wg_rev_mem_pilot2","3B837J3LDOXVY2DOPPLGDEX48GKSRE","93","0","PUMPKIN","5","BLANKET","5","0","682",,,,,"0","2018-10-03 21:06:22","242425"
"A14SEFVPXYZ9TN","cs_wg_rev_mem_pilot2","3B837J3LDOXVY2DOPPLGDEX48GKSRE","94","0","BAMBOO","3","MONKEY","3","1","1429",,,,,"0","2018-10-03 21:06:25","242426"
"A14SEFVPXYZ9TN","cs_wg_rev_mem_pilot2","3B837J3LDOXVY2DOPPLGDEX48GKSRE","95","0","BAMBOO","3","BLANKET","5","1","728",,,,,"0","2018-10-03 21:06:27","242427"
"A14SEFVPXYZ9TN","cs_wg_rev_mem_pilot2","3B837J3LDOXVY2DOPPLGDEX48GKSRE","96","0","MONKEY","3","BAMBOO","3","0","555",,,,,"0","2018-10-03 21:06:30","242428"
"A14SEFVPXYZ9TN","cs_wg_rev_mem_pilot2","3B837J3LDOXVY2DOPPLGDEX48GKSRE","97","0","GROUND","4","COSTUME","4","1","573",,,,,"0","2018-10-03 21:06:32","242429"
"A14SEFVPXYZ9TN","cs_wg_rev_mem_pilot2","3B837J3LDOXVY2DOPPLGDEX48GKSRE","98","0","AIRBAG","3","PENGUIN","4","1","717",,,,,"0","2018-10-03 21:06:34","242430"
"A14SEFVPXYZ9TN","cs_wg_rev_mem_pilot2","3B837J3LDOXVY2DOPPLGDEX48GKSRE","99","0","BANANA","3","PUMPKIN","5","0","790",,,,,"0","2018-10-03 21:06:37","242431"
"A14SEFVPXYZ9TN","cs_wg_rev_mem_pilot2","3B837J3LDOXVY2DOPPLGDEX48GKSRE","100","0","AIRBAG","3","MONKEY","3","0","801",,,,,"0","2018-10-03 21:06:40","242432"
"A14SEFVPXYZ9TN","cs_wg_rev_mem_pilot2","3B837J3LDOXVY2DOPPLGDEX48GKSRE","101","0","PEBBLE","4","THUMB","4","1","726",,,,,"0","2018-10-03 21:06:44","242433"
"A14SEFVPXYZ9TN","cs_wg_rev_mem_pilot2","3B837J3LDOXVY2DOPPLGDEX48GKSRE","102","0","BAMBOO","3","PENGUIN","4","1","703",,,,,"0","2018-10-03 21:06:46","242434"
"A14SEFVPXYZ9TN","cs_wg_rev_mem_pilot2","3B837J3LDOXVY2DOPPLGDEX48GKSRE","103","0","MARKET","4","THUMB","4","1","734",,,,,"0","2018-10-03 21:06:48","242435"
"A14SEFVPXYZ9TN","cs_wg_rev_mem_pilot2","3B837J3LDOXVY2DOPPLGDEX48GKSRE","104","0","PUMPKIN","5","BAMBOO","3","0","906",,,,,"0","2018-10-03 21:06:51","242436"
"A14SEFVPXYZ9TN","cs_wg_rev_mem_pilot2","3B837J3LDOXVY2DOPPLGDEX48GKSRE","105","0","PEBBLE","4","MARKET","4","0","1340",,,,,"0","2018-10-03 21:06:54","242437"
"A14SEFVPXYZ9TN","cs_wg_rev_mem_pilot2","3B837J3LDOXVY2DOPPLGDEX48GKSRE","106","0","PENGUIN","4","MONKEY","3","1","934",,,,,"0","2018-10-03 21:06:57","242438"
"A14SEFVPXYZ9TN","cs_wg_rev_mem_pilot2","3B837J3LDOXVY2DOPPLGDEX48GKSRE","107","0","MARKET","4","PENGUIN","4","1","611",,,,,"0","2018-10-03 21:06:59","242439"
"A14SEFVPXYZ9TN","cs_wg_rev_mem_pilot2","3B837J3LDOXVY2DOPPLGDEX48GKSRE","108","0","COSTUME","4","MONKEY","3","1","610",,,,,"0","2018-10-03 21:07:02","242440"
"A14SEFVPXYZ9TN","cs_wg_rev_mem_pilot2","3B837J3LDOXVY2DOPPLGDEX48GKSRE","109","0","BLANKET","5","MARKET","4","0","824",,,,,"0","2018-10-03 21:07:04","242441"
"A14SEFVPXYZ9TN","cs_wg_rev_mem_pilot2","3B837J3LDOXVY2DOPPLGDEX48GKSRE","110","0","COSTUME","4","BLANKET","5","1","796",,,,,"0","2018-10-03 21:07:07","242442"
"A14SEFVPXYZ9TN","cs_wg_rev_mem_pilot2","3B837J3LDOXVY2DOPPLGDEX48GKSRE","111","0","GROUND","4","PUMPKIN","5","1","572",,,,,"0","2018-10-03 21:07:09","242443"
"A14SEFVPXYZ9TN","cs_wg_rev_mem_pilot2","3B837J3LDOXVY2DOPPLGDEX48GKSRE","112","0","BANANA","3","BAMBOO","3","1","783",,,,,"0","2018-10-03 21:07:12","242444"
"A14SEFVPXYZ9TN","cs_wg_rev_mem_pilot2","3B837J3LDOXVY2DOPPLGDEX48GKSRE","113","0","GROUND","4","BANANA","3","0","834",,,,,"0","2018-10-03 21:07:15","242445"
"A14SEFVPXYZ9TN","cs_wg_rev_mem_pilot2","3B837J3LDOXVY2DOPPLGDEX48GKSRE","114","0","MARKET","4","PEBBLE","4","0","897",,,,,"0","2018-10-03 21:07:18","242446"
"A14SEFVPXYZ9TN","cs_wg_rev_mem_pilot2","3B837J3LDOXVY2DOPPLGDEX48GKSRE","115","0","PUMPKIN","5","MARKET","4","0","625",,,,,"0","2018-10-03 21:07:20","242447"
"A14SEFVPXYZ9TN","cs_wg_rev_mem_pilot2","3B837J3LDOXVY2DOPPLGDEX48GKSRE","116","0","THUMB","4","PENGUIN","4","0","761",,,,,"0","2018-10-03 21:07:23","242448"
"A14SEFVPXYZ9TN","cs_wg_rev_mem_pilot2","3B837J3LDOXVY2DOPPLGDEX48GKSRE","117","0","COSTUME","4","MARKET","4","1","1014",,,,,"0","2018-10-03 21:07:25","242449"
"A14SEFVPXYZ9TN","cs_wg_rev_mem_pilot2","3B837J3LDOXVY2DOPPLGDEX48GKSRE","118","0","AIRBAG","3","COSTUME","4","1","783",,,,,"0","2018-10-03 21:07:28","242450"
"A14SEFVPXYZ9TN","cs_wg_rev_mem_pilot2","3B837J3LDOXVY2DOPPLGDEX48GKSRE","119","0","GROUND","4","BAMBOO","3","0","775",,,,,"0","2018-10-03 21:07:31","242451"
"A14SEFVPXYZ9TN","cs_wg_rev_mem_pilot2","3B837J3LDOXVY2DOPPLGDEX48GKSRE","120","0","MONKEY","3","BANANA","3","0","845",,,,,"0","2018-10-03 21:07:33","242452"
"A14SEFVPXYZ9TN","cs_wg_rev_mem_pilot2","3B837J3LDOXVY2DOPPLGDEX48GKSRE","121","0","MARKET","4","MONKEY","3","0","630",,,,,"0","2018-10-03 21:07:36","242453"
"A14SEFVPXYZ9TN","cs_wg_rev_mem_pilot2","3B837J3LDOXVY2DOPPLGDEX48GKSRE","122","0","PENGUIN","4","BLANKET","5","0","625",,,,,"0","2018-10-03 21:07:39","242454"
"A14SEFVPXYZ9TN","cs_wg_rev_mem_pilot2","3B837J3LDOXVY2DOPPLGDEX48GKSRE","123","0","THUMB","4","AIRBAG","3","0","822",,,,,"0","2018-10-03 21:07:42","242455"
"A14SEFVPXYZ9TN","cs_wg_rev_mem_pilot2","3B837J3LDOXVY2DOPPLGDEX48GKSRE","124","0","BLANKET","5","PEBBLE","4","0","1029",,,,,"0","2018-10-03 21:07:45","242456"
"A14SEFVPXYZ9TN","cs_wg_rev_mem_pilot2","3B837J3LDOXVY2DOPPLGDEX48GKSRE","125","0","PENGUIN","4","COSTUME","4","0","996",,,,,"0","2018-10-03 21:07:48","242457"
"A14SEFVPXYZ9TN","cs_wg_rev_mem_pilot2","3B837J3LDOXVY2DOPPLGDEX48GKSRE","126","0","BLANKET","5","PUMPKIN","5","1","989",,,,,"0","2018-10-03 21:07:51","242458"
"A14SEFVPXYZ9TN","cs_wg_rev_mem_pilot2","3B837J3LDOXVY2DOPPLGDEX48GKSRE","127","0","BLANKET","5","BAMBOO","3","0","843",,,,,"0","2018-10-03 21:07:53","242459"
"A14SEFVPXYZ9TN","cs_wg_rev_mem_pilot2","3B837J3LDOXVY2DOPPLGDEX48GKSRE","128","0","GROUND","4","BLANKET","5","1","1537",,,,,"0","2018-10-03 21:07:56","242460"
"A14SEFVPXYZ9TN","cs_wg_rev_mem_pilot2","3B837J3LDOXVY2DOPPLGDEX48GKSRE","129","0","THUMB","4","GROUND","4","0","744",,,,,"0","2018-10-03 21:07:59","242461"
"A14SEFVPXYZ9TN","cs_wg_rev_mem_pilot2","3B837J3LDOXVY2DOPPLGDEX48GKSRE","130","0","COSTUME","4","BANANA","3","0","1447",,,,,"0","2018-10-03 21:08:03","242462"
"A14SEFVPXYZ9TN","cs_wg_rev_mem_pilot2","3B837J3LDOXVY2DOPPLGDEX48GKSRE","131","0","BLANKET","5","COSTUME","4","0","627",,,,,"0","2018-10-03 21:08:05","242463"
"A3RTXKL0EGLRDJ","cs_wg_rev_mem_pilot2","36TFCYNS44BQ5PLKNUF9YICQ0MNXHT","37","0","JAGUAR","3","ACROBAT","4","0","273185",,,,,"0","2018-10-03 21:08:28","242464"
"A3RTXKL0EGLRDJ","cs_wg_rev_mem_pilot2","36TFCYNS44BQ5PLKNUF9YICQ0MNXHT","38","0","GRENADE","4","SCUBA","3","0","193",,,,,"0","2018-10-03 21:08:30","242465"
"A3RTXKL0EGLRDJ","cs_wg_rev_mem_pilot2","36TFCYNS44BQ5PLKNUF9YICQ0MNXHT","39","0","ACROBAT","4","BLOUSE","3","0","9187",,,,,"0","2018-10-03 21:08:41","242466"
"A3RTXKL0EGLRDJ","cs_wg_rev_mem_pilot2","36TFCYNS44BQ5PLKNUF9YICQ0MNXHT","40","0","MONKEY","3","COMPANY","4","0","503",,,,,"0","2018-10-03 21:08:43","242467"
"A3RTXKL0EGLRDJ","cs_wg_rev_mem_pilot2","36TFCYNS44BQ5PLKNUF9YICQ0MNXHT","41","0","BLANKET","5","SPATULA","4","0","1240",,,,,"0","2018-10-03 21:08:46","242468"
"A3RTXKL0EGLRDJ","cs_wg_rev_mem_pilot2","36TFCYNS44BQ5PLKNUF9YICQ0MNXHT","42","0","DONKEY","3","JAGUAR","3","0","1451",,,,,"0","2018-10-03 21:08:49","242469"
"A3RTXKL0EGLRDJ","cs_wg_rev_mem_pilot2","36TFCYNS44BQ5PLKNUF9YICQ0MNXHT","43","0","ACROBAT","4","MARKET","4","0","1073",,,,,"0","2018-10-03 21:08:51","242470"
"A3RTXKL0EGLRDJ","cs_wg_rev_mem_pilot2","36TFCYNS44BQ5PLKNUF9YICQ0MNXHT","44","0","SPATULA","4","GRENADE","4","0","1392",,,,,"0","2018-10-03 21:08:54","242471"
"A3RTXKL0EGLRDJ","cs_wg_rev_mem_pilot2","36TFCYNS44BQ5PLKNUF9YICQ0MNXHT","45","0","BLANKET","5","DONKEY","3","0","1176",,,,,"0","2018-10-03 21:08:57","242472"
"A3RTXKL0EGLRDJ","cs_wg_rev_mem_pilot2","36TFCYNS44BQ5PLKNUF9YICQ0MNXHT","46","0","BLANKET","5","BLOUSE","3","1","2752",,,,,"0","2018-10-03 21:09:02","242473"
"A3RTXKL0EGLRDJ","cs_wg_rev_mem_pilot2","36TFCYNS44BQ5PLKNUF9YICQ0MNXHT","47","0","BLOUSE","3","MONKEY","3","1","3342",,,,,"0","2018-10-03 21:09:07","242474"
"A3RTXKL0EGLRDJ","cs_wg_rev_mem_pilot2","36TFCYNS44BQ5PLKNUF9YICQ0MNXHT","48","0","ACROBAT","4","JAGUAR","3","0","1232",,,,,"0","2018-10-03 21:09:11","242475"
"A3RTXKL0EGLRDJ","cs_wg_rev_mem_pilot2","36TFCYNS44BQ5PLKNUF9YICQ0MNXHT","49","0","COMPANY","4","SPATULA","4","0","1019",,,,,"0","2018-10-03 21:09:13","242476"
"A3RTXKL0EGLRDJ","cs_wg_rev_mem_pilot2","36TFCYNS44BQ5PLKNUF9YICQ0MNXHT","50","0","GRENADE","4","JAGUAR","3","0","1900",,,,,"0","2018-10-03 21:09:17","242477"
"A3RTXKL0EGLRDJ","cs_wg_rev_mem_pilot2","36TFCYNS44BQ5PLKNUF9YICQ0MNXHT","51","0","ACROBAT","4","SCUBA","3","0","1514",,,,,"0","2018-10-03 21:09:20","242478"
"A3RTXKL0EGLRDJ","cs_wg_rev_mem_pilot2","36TFCYNS44BQ5PLKNUF9YICQ0MNXHT","52","0","DONKEY","3","BLOUSE","3","0","1356",,,,,"0","2018-10-03 21:09:23","242479"
"A3RTXKL0EGLRDJ","cs_wg_rev_mem_pilot2","36TFCYNS44BQ5PLKNUF9YICQ0MNXHT","53","0","SQUARE","3","JAGUAR","3","0","2186",,,,,"0","2018-10-03 21:09:27","242480"
"A3RTXKL0EGLRDJ","cs_wg_rev_mem_pilot2","36TFCYNS44BQ5PLKNUF9YICQ0MNXHT","54","0","JAGUAR","3","COMPANY","4","0","621",,,,,"0","2018-10-03 21:09:29","242481"
"A3RTXKL0EGLRDJ","cs_wg_rev_mem_pilot2","36TFCYNS44BQ5PLKNUF9YICQ0MNXHT","55","0","DONKEY","3","COMPANY","4","0","406",,,,,"0","2018-10-03 21:09:31","242482"
"A3RTXKL0EGLRDJ","cs_wg_rev_mem_pilot2","36TFCYNS44BQ5PLKNUF9YICQ0MNXHT","56","0","BLOUSE","3","MARKET","4","0","468",,,,,"0","2018-10-03 21:09:34","242483"
"A3RTXKL0EGLRDJ","cs_wg_rev_mem_pilot2","36TFCYNS44BQ5PLKNUF9YICQ0MNXHT","57","0","JAGUAR","3","DONKEY","3","0","565",,,,,"0","2018-10-03 21:09:36","242484"
"A3RTXKL0EGLRDJ","cs_wg_rev_mem_pilot2","36TFCYNS44BQ5PLKNUF9YICQ0MNXHT","58","0","SQUARE","3","MARKET","4","0","543",,,,,"0","2018-10-03 21:09:38","242485"
"A3RTXKL0EGLRDJ","cs_wg_rev_mem_pilot2","36TFCYNS44BQ5PLKNUF9YICQ0MNXHT","59","0","BLANKET","5","ACROBAT","4","0","474",,,,,"0","2018-10-03 21:09:39","242486"
"A3RTXKL0EGLRDJ","cs_wg_rev_mem_pilot2","36TFCYNS44BQ5PLKNUF9YICQ0MNXHT","60","0","MARKET","4","SPATULA","4","0","6226",,,,,"0","2018-10-03 21:09:48","242487"
"A3RTXKL0EGLRDJ","cs_wg_rev_mem_pilot2","36TFCYNS44BQ5PLKNUF9YICQ0MNXHT","61","0","MONKEY","3","SQUARE","3","0","594",,,,,"0","2018-10-03 21:09:50","242488"
"A3RTXKL0EGLRDJ","cs_wg_rev_mem_pilot2","36TFCYNS44BQ5PLKNUF9YICQ0MNXHT","62","0","DONKEY","3","GRENADE","4","0","732",,,,,"0","2018-10-03 21:09:53","242489"
"A3RTXKL0EGLRDJ","cs_wg_rev_mem_pilot2","36TFCYNS44BQ5PLKNUF9YICQ0MNXHT","63","0","BLOUSE","3","COMPANY","4","0","347",,,,,"0","2018-10-03 21:09:54","242490"
"A3RTXKL0EGLRDJ","cs_wg_rev_mem_pilot2","36TFCYNS44BQ5PLKNUF9YICQ0MNXHT","64","0","COMPANY","4","SCUBA","3","0","991",,,,,"0","2018-10-03 21:09:57","242491"
"A3RTXKL0EGLRDJ","cs_wg_rev_mem_pilot2","36TFCYNS44BQ5PLKNUF9YICQ0MNXHT","65","0","BLANKET","5","COMPANY","4","0","990",,,,,"0","2018-10-03 21:10:00","242492"
"AZ5ZYUCAQ0XDL","cs_wg_rev_mem_pilot2","3S3AMIZX3U6LQB5NA20WTKCI7C7CDY","0","0","BANANA","3","POTATO","3","1","12060",,,,,"0","2018-10-03 21:11:51","242493"
"AZ5ZYUCAQ0XDL","cs_wg_rev_mem_pilot2","3S3AMIZX3U6LQB5NA20WTKCI7C7CDY","1","0","THUMB","4","CHICKEN","5","1","4402",,,,,"0","2018-10-03 21:12:02","242494"
"AZ5ZYUCAQ0XDL","cs_wg_rev_mem_pilot2","3S3AMIZX3U6LQB5NA20WTKCI7C7CDY","2","0","WHISKER","5","ISLAND","4","0","5528",,,,,"0","2018-10-03 21:12:11","242495"
"A2TCV4URAGNFEO","cs_wg_rev_mem_pilot2","3R2UR8A0IAH0X677R7AZIR9RC81XOH","0","0","LIQUID","3","WHISKER","5","1","17988",,,,,"0","2018-10-03 21:12:13","242496"
"A3RTXKL0EGLRDJ","cs_wg_rev_mem_pilot2","36TFCYNS44BQ5PLKNUF9YICQ0MNXHT","66","0","SPATULA","4","COMPANY","4","0","134923",,,,,"0","2018-10-03 21:12:16","242497"
"A3RTXKL0EGLRDJ","cs_wg_rev_mem_pilot2","36TFCYNS44BQ5PLKNUF9YICQ0MNXHT","67","0","BLOUSE","3","SPATULA","4","0","715",,,,,"0","2018-10-03 21:12:19","242498"
"A3RTXKL0EGLRDJ","cs_wg_rev_mem_pilot2","36TFCYNS44BQ5PLKNUF9YICQ0MNXHT","68","0","COMPANY","4","ACROBAT","4","0","565",,,,,"0","2018-10-03 21:12:21","242499"
"AZ5ZYUCAQ0XDL","cs_wg_rev_mem_pilot2","3S3AMIZX3U6LQB5NA20WTKCI7C7CDY","3","0","SAUCE","2","PICTURE","4","1","4470",,,,,"0","2018-10-03 21:12:21","242500"
"A2TCV4URAGNFEO","cs_wg_rev_mem_pilot2","3R2UR8A0IAH0X677R7AZIR9RC81XOH","1","0","BASKET","4","BANANA","3","0","7757",,,,,"0","2018-10-03 21:12:23","242501"
"A3RTXKL0EGLRDJ","cs_wg_rev_mem_pilot2","36TFCYNS44BQ5PLKNUF9YICQ0MNXHT","69","0","MARKET","4","JAGUAR","3","0","1085",,,,,"0","2018-10-03 21:12:23","242502"
"A3RTXKL0EGLRDJ","cs_wg_rev_mem_pilot2","36TFCYNS44BQ5PLKNUF9YICQ0MNXHT","70","0","BLOUSE","3","SQUARE","3","0","377",,,,,"0","2018-10-03 21:12:25","242503"
"A3RTXKL0EGLRDJ","cs_wg_rev_mem_pilot2","36TFCYNS44BQ5PLKNUF9YICQ0MNXHT","71","0","SCUBA","3","SQUARE","3","0","1265",,,,,"0","2018-10-03 21:12:28","242504"
"AZ5ZYUCAQ0XDL","cs_wg_rev_mem_pilot2","3S3AMIZX3U6LQB5NA20WTKCI7C7CDY","4","0","ISLAND","4","BASKET","4","0","7901",,,,,"0","2018-10-03 21:12:32","242505"
"A3RTXKL0EGLRDJ","cs_wg_rev_mem_pilot2","36TFCYNS44BQ5PLKNUF9YICQ0MNXHT","72","0","JAGUAR","3","MARKET","4","0","5785",,,,,"0","2018-10-03 21:12:36","242506"
"A2TCV4URAGNFEO","cs_wg_rev_mem_pilot2","3R2UR8A0IAH0X677R7AZIR9RC81XOH","2","0","LIQUID","3","LETTUCE","4","1","10709",,,,,"0","2018-10-03 21:12:37","242507"
"AZ5ZYUCAQ0XDL","cs_wg_rev_mem_pilot2","3S3AMIZX3U6LQB5NA20WTKCI7C7CDY","5","0","VOLCANO","4","PICTURE","4","0","4293",,,,,"0","2018-10-03 21:12:38","242508"
"AZ5ZYUCAQ0XDL","cs_wg_rev_mem_pilot2","3S3AMIZX3U6LQB5NA20WTKCI7C7CDY","6","0","PICTURE","4","THUMB","4","0","3796",,,,,"0","2018-10-03 21:12:45","242509"
"A3RTXKL0EGLRDJ","cs_wg_rev_mem_pilot2","36TFCYNS44BQ5PLKNUF9YICQ0MNXHT","73","0","COMPANY","4","JAGUAR","3","0","11453",,,,,"0","2018-10-03 21:12:49","242510"
"A2TCV4URAGNFEO","cs_wg_rev_mem_pilot2","3R2UR8A0IAH0X677R7AZIR9RC81XOH","3","0","MARKET","4","LETTUCE","4","1","10151",,,,,"0","2018-10-03 21:12:50","242511"
"AZ5ZYUCAQ0XDL","cs_wg_rev_mem_pilot2","3S3AMIZX3U6LQB5NA20WTKCI7C7CDY","7","0","VOLCANO","4","BASKET","4","0","4411",,,,,"0","2018-10-03 21:12:52","242512"
"A3RTXKL0EGLRDJ","cs_wg_rev_mem_pilot2","36TFCYNS44BQ5PLKNUF9YICQ0MNXHT","74","0","BLOUSE","3","JAGUAR","3","0","4306",,,,,"0","2018-10-03 21:12:55","242513"
"A3RTXKL0EGLRDJ","cs_wg_rev_mem_pilot2","36TFCYNS44BQ5PLKNUF9YICQ0MNXHT","75","0","BLOUSE","3","BLANKET","5","0","716",,,,,"0","2018-10-03 21:12:57","242514"
"AZ5ZYUCAQ0XDL","cs_wg_rev_mem_pilot2","3S3AMIZX3U6LQB5NA20WTKCI7C7CDY","8","0","PICTURE","4","ISLAND","4","0","4655",,,,,"0","2018-10-03 21:12:58","242515"
"A2TCV4URAGNFEO","cs_wg_rev_mem_pilot2","3R2UR8A0IAH0X677R7AZIR9RC81XOH","4","0","MARKET","4","WHISKER","5","1","6701",,,,,"0","2018-10-03 21:12:59","242516"
"A3RTXKL0EGLRDJ","cs_wg_rev_mem_pilot2","36TFCYNS44BQ5PLKNUF9YICQ0MNXHT","76","0","BLANKET","5","JAGUAR","3","0","5782",,,,,"0","2018-10-03 21:13:04","242517"
"AZ5ZYUCAQ0XDL","cs_wg_rev_mem_pilot2","3S3AMIZX3U6LQB5NA20WTKCI7C7CDY","9","0","THUMB","4","BANANA","3","0","5294",,,,,"0","2018-10-03 21:13:06","242518"
"A2TCV4URAGNFEO","cs_wg_rev_mem_pilot2","3R2UR8A0IAH0X677R7AZIR9RC81XOH","5","0","LETTUCE","4","BANQUET","4","1","7426",,,,,"0","2018-10-03 21:13:08","242519"
"A3RTXKL0EGLRDJ","cs_wg_rev_mem_pilot2","36TFCYNS44BQ5PLKNUF9YICQ0MNXHT","77","0","DONKEY","3","SPATULA","4","0","4494",,,,,"0","2018-10-03 21:13:10","242520"
"AZ5ZYUCAQ0XDL","cs_wg_rev_mem_pilot2","3S3AMIZX3U6LQB5NA20WTKCI7C7CDY","10","0","BASKET","4","ROCKET","4","0","5243",,,,,"0","2018-10-03 21:13:13","242521"
"A3RTXKL0EGLRDJ","cs_wg_rev_mem_pilot2","36TFCYNS44BQ5PLKNUF9YICQ0MNXHT","78","0","BLOUSE","3","ACROBAT","4","0","5220",,,,,"0","2018-10-03 21:13:17","242522"
"AZ5ZYUCAQ0XDL","cs_wg_rev_mem_pilot2","3S3AMIZX3U6LQB5NA20WTKCI7C7CDY","11","0","BASKET","4","WHISKER","5","1","2678",,,,,"0","2018-10-03 21:13:17","242523"
"A2TCV4URAGNFEO","cs_wg_rev_mem_pilot2","3R2UR8A0IAH0X677R7AZIR9RC81XOH","6","0","SCUBA","3","BANANA","3","1","8881",,,,,"0","2018-10-03 21:13:20","242524"
"A3RTXKL0EGLRDJ","cs_wg_rev_mem_pilot2","36TFCYNS44BQ5PLKNUF9YICQ0MNXHT","79","0","SCUBA","3","BLANKET","5","0","2066",,,,,"0","2018-10-03 21:13:21","242525"
"AZ5ZYUCAQ0XDL","cs_wg_rev_mem_pilot2","3S3AMIZX3U6LQB5NA20WTKCI7C7CDY","12","0","THUMB","4","VOLCANO","4","1","1807",,,,,"0","2018-10-03 21:13:21","242526"
"A3RTXKL0EGLRDJ","cs_wg_rev_mem_pilot2","36TFCYNS44BQ5PLKNUF9YICQ0MNXHT","80","0","GRENADE","4","BLOUSE","3","0","448",,,,,"0","2018-10-03 21:13:23","242527"
"A3RTXKL0EGLRDJ","cs_wg_rev_mem_pilot2","36TFCYNS44BQ5PLKNUF9YICQ0MNXHT","81","0","SQUARE","3","GRENADE","4","0","438",,,,,"0","2018-10-03 21:13:24","242528"
"AZ5ZYUCAQ0XDL","cs_wg_rev_mem_pilot2","3S3AMIZX3U6LQB5NA20WTKCI7C7CDY","13","0","PICTURE","4","WHISKER","5","1","1776",,,,,"0","2018-10-03 21:13:25","242529"
"AZ5ZYUCAQ0XDL","cs_wg_rev_mem_pilot2","3S3AMIZX3U6LQB5NA20WTKCI7C7CDY","14","0","BANANA","3","THUMB","4","1","3611",,,,,"0","2018-10-03 21:13:31","242530"
"A2TCV4URAGNFEO","cs_wg_rev_mem_pilot2","3R2UR8A0IAH0X677R7AZIR9RC81XOH","7","0","WHISKER","5","BLANKET","5","1","10785",,,,,"0","2018-10-03 21:13:33","242531"
"AZ5ZYUCAQ0XDL","cs_wg_rev_mem_pilot2","3S3AMIZX3U6LQB5NA20WTKCI7C7CDY","15","0","THUMB","4","LETTUCE","4","0","4586",,,,,"0","2018-10-03 21:13:37","242532"
"A3RTXKL0EGLRDJ","cs_wg_rev_mem_pilot2","36TFCYNS44BQ5PLKNUF9YICQ0MNXHT","82","0","DONKEY","3","MARKET","4","1","11185",,,,,"0","2018-10-03 21:13:38","242533"
"A3RTXKL0EGLRDJ","cs_wg_rev_mem_pilot2","36TFCYNS44BQ5PLKNUF9YICQ0MNXHT","83","0","SCUBA","3","ACROBAT","4","0","1020",,,,,"0","2018-10-03 21:13:41","242534"
"A3RTXKL0EGLRDJ","cs_wg_rev_mem_pilot2","36TFCYNS44BQ5PLKNUF9YICQ0MNXHT","84","0","COMPANY","4","DONKEY","3","0","286",,,,,"0","2018-10-03 21:13:42","242535"
"AZ5ZYUCAQ0XDL","cs_wg_rev_mem_pilot2","3S3AMIZX3U6LQB5NA20WTKCI7C7CDY","16","0","POTATO","3","ROCKET","4","1","5961",,,,,"0","2018-10-03 21:13:45","242536"
"A3RTXKL0EGLRDJ","cs_wg_rev_mem_pilot2","36TFCYNS44BQ5PLKNUF9YICQ0MNXHT","85","0","ACROBAT","4","COMPANY","4","0","1360",,,,,"0","2018-10-03 21:13:45","242537"
"A2TCV4URAGNFEO","cs_wg_rev_mem_pilot2","3R2UR8A0IAH0X677R7AZIR9RC81XOH","8","0","BANQUET","4","SCUBA","3","0","10080",,,,,"0","2018-10-03 21:13:45","242538"
"A3RTXKL0EGLRDJ","cs_wg_rev_mem_pilot2","36TFCYNS44BQ5PLKNUF9YICQ0MNXHT","86","0","MONKEY","3","SPATULA","4","0","624",,,,,"0","2018-10-03 21:13:47","242539"
"A3RTXKL0EGLRDJ","cs_wg_rev_mem_pilot2","36TFCYNS44BQ5PLKNUF9YICQ0MNXHT","87","0","JAGUAR","3","SQUARE","3","0","1267",,,,,"0","2018-10-03 21:13:50","242540"
"AZ5ZYUCAQ0XDL","cs_wg_rev_mem_pilot2","3S3AMIZX3U6LQB5NA20WTKCI7C7CDY","17","0","BASKET","4","PICTURE","4","0","5892",,,,,"0","2018-10-03 21:13:52","242541"
"A3RTXKL0EGLRDJ","cs_wg_rev_mem_pilot2","36TFCYNS44BQ5PLKNUF9YICQ0MNXHT","88","0","MONKEY","3","SCUBA","3","0","930",,,,,"0","2018-10-03 21:13:53","242542"
"A3RTXKL0EGLRDJ","cs_wg_rev_mem_pilot2","36TFCYNS44BQ5PLKNUF9YICQ0MNXHT","89","0","SCUBA","3","JAGUAR","3","0","1115",,,,,"0","2018-10-03 21:13:55","242543"
"AZ5ZYUCAQ0XDL","cs_wg_rev_mem_pilot2","3S3AMIZX3U6LQB5NA20WTKCI7C7CDY","18","0","LETTUCE","4","VOLCANO","4","0","3062",,,,,"0","2018-10-03 21:13:57","242544"
"A2TCV4URAGNFEO","cs_wg_rev_mem_pilot2","3R2UR8A0IAH0X677R7AZIR9RC81XOH","9","0","GRENADE","4","PELICAN","4","1","11633",,,,,"0","2018-10-03 21:13:59","242545"
"A3RTXKL0EGLRDJ","cs_wg_rev_mem_pilot2","36TFCYNS44BQ5PLKNUF9YICQ0MNXHT","90","0","SQUARE","3","BLOUSE","3","0","4604",,,,,"0","2018-10-03 21:14:01","242546"
"AZ5ZYUCAQ0XDL","cs_wg_rev_mem_pilot2","3S3AMIZX3U6LQB5NA20WTKCI7C7CDY","19","0","CHICKEN","5","ISLAND","4","0","2899",,,,,"0","2018-10-03 21:14:02","242547"
"A3RTXKL0EGLRDJ","cs_wg_rev_mem_pilot2","36TFCYNS44BQ5PLKNUF9YICQ0MNXHT","91","0","SPATULA","4","JAGUAR","3","0","151",,,,,"0","2018-10-03 21:14:03","242548"
"AZ5ZYUCAQ0XDL","cs_wg_rev_mem_pilot2","3S3AMIZX3U6LQB5NA20WTKCI7C7CDY","20","0","BANANA","3","CHICKEN","5","1","1295",,,,,"0","2018-10-03 21:14:05","242549"
"A2TCV4URAGNFEO","cs_wg_rev_mem_pilot2","3R2UR8A0IAH0X677R7AZIR9RC81XOH","10","0","GARBAGE","4","PELICAN","4","1","8251",,,,,"0","2018-10-03 21:14:11","242550"
"A3RTXKL0EGLRDJ","cs_wg_rev_mem_pilot2","36TFCYNS44BQ5PLKNUF9YICQ0MNXHT","92","0","COMPANY","4","SQUARE","3","0","8323",,,,,"0","2018-10-03 21:14:13","242551"
"AZ5ZYUCAQ0XDL","cs_wg_rev_mem_pilot2","3S3AMIZX3U6LQB5NA20WTKCI7C7CDY","21","0","VOLCANO","4","POTATO","3","0","7135",,,,,"0","2018-10-03 21:14:14","242552"
"A3RTXKL0EGLRDJ","cs_wg_rev_mem_pilot2","36TFCYNS44BQ5PLKNUF9YICQ0MNXHT","93","0","SCUBA","3","BLOUSE","3","0","2587",,,,,"0","2018-10-03 21:14:17","242553"
"A3RTXKL0EGLRDJ","cs_wg_rev_mem_pilot2","36TFCYNS44BQ5PLKNUF9YICQ0MNXHT","94","0","JAGUAR","3","SPATULA","4","0","1302",,,,,"0","2018-10-03 21:14:19","242554"
"AZ5ZYUCAQ0XDL","cs_wg_rev_mem_pilot2","3S3AMIZX3U6LQB5NA20WTKCI7C7CDY","22","0","PICTURE","4","BASKET","4","0","4157",,,,,"0","2018-10-03 21:14:20","242555"
"AZ5ZYUCAQ0XDL","cs_wg_rev_mem_pilot2","3S3AMIZX3U6LQB5NA20WTKCI7C7CDY","23","0","SAUCE","2","BASKET","4","0","3799",,,,,"0","2018-10-03 21:14:27","242556"
"A2TCV4URAGNFEO","cs_wg_rev_mem_pilot2","3R2UR8A0IAH0X677R7AZIR9RC81XOH","11","0","SCUBA","3","MARKET","4","1","11951",,,,,"0","2018-10-03 21:14:28","242557"
"A3RTXKL0EGLRDJ","cs_wg_rev_mem_pilot2","36TFCYNS44BQ5PLKNUF9YICQ0MNXHT","95","0","SPATULA","4","MONKEY","3","0","7806",,,,,"0","2018-10-03 21:14:28","242558"
"AZ5ZYUCAQ0XDL","cs_wg_rev_mem_pilot2","3S3AMIZX3U6LQB5NA20WTKCI7C7CDY","24","0","PICTURE","4","SAUCE","2","0","1753",,,,,"0","2018-10-03 21:14:31","242559"
"A3RTXKL0EGLRDJ","cs_wg_rev_mem_pilot2","36TFCYNS44BQ5PLKNUF9YICQ0MNXHT","96","0","BLANKET","5","MARKET","4","0","1357",,,,,"0","2018-10-03 21:14:31","242560"
"AZ5ZYUCAQ0XDL","cs_wg_rev_mem_pilot2","3S3AMIZX3U6LQB5NA20WTKCI7C7CDY","25","0","BASKET","4","SAUCE","2","0","4074",,,,,"0","2018-10-03 21:14:36","242561"
"A3RTXKL0EGLRDJ","cs_wg_rev_mem_pilot2","36TFCYNS44BQ5PLKNUF9YICQ0MNXHT","97","0","SCUBA","3","MARKET","4","0","4402",,,,,"0","2018-10-03 21:14:37","242562"
"A2TCV4URAGNFEO","cs_wg_rev_mem_pilot2","3R2UR8A0IAH0X677R7AZIR9RC81XOH","12","0","GARBAGE","4","SCUBA","3","0","8376",,,,,"0","2018-10-03 21:14:38","242563"
"AZ5ZYUCAQ0XDL","cs_wg_rev_mem_pilot2","3S3AMIZX3U6LQB5NA20WTKCI7C7CDY","26","0","BASKET","4","BANANA","3","0","1280",,,,,"0","2018-10-03 21:14:40","242564"
"AZ5ZYUCAQ0XDL","cs_wg_rev_mem_pilot2","3S3AMIZX3U6LQB5NA20WTKCI7C7CDY","27","0","BANANA","3","LETTUCE","4","1","1193",,,,,"0","2018-10-03 21:14:43","242565"
"A3RTXKL0EGLRDJ","cs_wg_rev_mem_pilot2","36TFCYNS44BQ5PLKNUF9YICQ0MNXHT","98","0","GRENADE","4","SPATULA","4","0","7214",,,,,"0","2018-10-03 21:14:46","242566"
"A3RTXKL0EGLRDJ","cs_wg_rev_mem_pilot2","36TFCYNS44BQ5PLKNUF9YICQ0MNXHT","99","0","MARKET","4","SQUARE","3","0","529",,,,,"0","2018-10-03 21:14:48","242567"
"AZ5ZYUCAQ0XDL","cs_wg_rev_mem_pilot2","3S3AMIZX3U6LQB5NA20WTKCI7C7CDY","28","0","POTATO","3","BASKET","4","1","4114",,,,,"0","2018-10-03 21:14:48","242568"
"A3RTXKL0EGLRDJ","cs_wg_rev_mem_pilot2","36TFCYNS44BQ5PLKNUF9YICQ0MNXHT","100","0","MARKET","4","DONKEY","3","0","387",,,,,"0","2018-10-03 21:14:50","242569"
"AZ5ZYUCAQ0XDL","cs_wg_rev_mem_pilot2","3S3AMIZX3U6LQB5NA20WTKCI7C7CDY","29","0","POTATO","3","WHISKER","5","1","930",,,,,"0","2018-10-03 21:14:51","242570"
"A2TCV4URAGNFEO","cs_wg_rev_mem_pilot2","3R2UR8A0IAH0X677R7AZIR9RC81XOH","13","0","GRENADE","4","MARKET","4","1","11491",,,,,"0","2018-10-03 21:14:52","242571"
"A3RTXKL0EGLRDJ","cs_wg_rev_mem_pilot2","36TFCYNS44BQ5PLKNUF9YICQ0MNXHT","101","0","COMPANY","4","GRENADE","4","0","1206",,,,,"0","2018-10-03 21:14:53","242572"
"AZ5ZYUCAQ0XDL","cs_wg_rev_mem_pilot2","3S3AMIZX3U6LQB5NA20WTKCI7C7CDY","30","0","LETTUCE","4","POTATO","3","0","1408",,,,,"0","2018-10-03 21:14:54","242573"
"AZ5ZYUCAQ0XDL","cs_wg_rev_mem_pilot2","3S3AMIZX3U6LQB5NA20WTKCI7C7CDY","31","0","POTATO","3","CHICKEN","5","1","994",,,,,"0","2018-10-03 21:14:57","242574"
"A3RTXKL0EGLRDJ","cs_wg_rev_mem_pilot2","36TFCYNS44BQ5PLKNUF9YICQ0MNXHT","102","0","GRENADE","4","BLANKET","5","0","4592",,,,,"0","2018-10-03 21:14:58","242575"
"A3RTXKL0EGLRDJ","cs_wg_rev_mem_pilot2","36TFCYNS44BQ5PLKNUF9YICQ0MNXHT","103","0","BLANKET","5","SCUBA","3","0","717",,,,,"0","2018-10-03 21:15:01","242576"
"A2TCV4URAGNFEO","cs_wg_rev_mem_pilot2","3R2UR8A0IAH0X677R7AZIR9RC81XOH","14","0","MARKET","4","PELICAN","4","1","6629",,,,,"0","2018-10-03 21:15:01","242577"
"AZ5ZYUCAQ0XDL","cs_wg_rev_mem_pilot2","3S3AMIZX3U6LQB5NA20WTKCI7C7CDY","32","0","SAUCE","2","POTATO","3","0","2124",,,,,"0","2018-10-03 21:15:02","242578"
"A3RTXKL0EGLRDJ","cs_wg_rev_mem_pilot2","36TFCYNS44BQ5PLKNUF9YICQ0MNXHT","104","0","SPATULA","4","SQUARE","3","0","501",,,,,"0","2018-10-03 21:15:03","242579"
"AZ5ZYUCAQ0XDL","cs_wg_rev_mem_pilot2","3S3AMIZX3U6LQB5NA20WTKCI7C7CDY","33","0","WHISKER","5","LETTUCE","4","0","803",,,,,"0","2018-10-03 21:15:04","242580"
"A3RTXKL0EGLRDJ","cs_wg_rev_mem_pilot2","36TFCYNS44BQ5PLKNUF9YICQ0MNXHT","105","0","MARKET","4","ACROBAT","4","0","346",,,,,"0","2018-10-03 21:15:04","242581"
"A2TCV4URAGNFEO","cs_wg_rev_mem_pilot2","3R2UR8A0IAH0X677R7AZIR9RC81XOH","15","0","BASKET","4","MARKET","4","1","5838",,,,,"0","2018-10-03 21:15:09","242582"
"A3RTXKL0EGLRDJ","cs_wg_rev_mem_pilot2","36TFCYNS44BQ5PLKNUF9YICQ0MNXHT","106","0","SQUARE","3","DONKEY","3","0","3341",,,,,"0","2018-10-03 21:15:10","242583"
"AZ5ZYUCAQ0XDL","cs_wg_rev_mem_pilot2","3S3AMIZX3U6LQB5NA20WTKCI7C7CDY","34","0","ISLAND","4","THUMB","4","1","4016",,,,,"0","2018-10-03 21:15:10","242584"
"A3RTXKL0EGLRDJ","cs_wg_rev_mem_pilot2","36TFCYNS44BQ5PLKNUF9YICQ0MNXHT","107","0","MONKEY","3","MARKET","4","0","529",,,,,"0","2018-10-03 21:15:12","242585"
"A3RTXKL0EGLRDJ","cs_wg_rev_mem_pilot2","36TFCYNS44BQ5PLKNUF9YICQ0MNXHT","108","0","GRENADE","4","SQUARE","3","0","427",,,,,"0","2018-10-03 21:15:14","242586"
"AZ5ZYUCAQ0XDL","cs_wg_rev_mem_pilot2","3S3AMIZX3U6LQB5NA20WTKCI7C7CDY","35","0","ISLAND","4","VOLCANO","4","0","3889",,,,,"0","2018-10-03 21:15:15","242587"
"A3RTXKL0EGLRDJ","cs_wg_rev_mem_pilot2","36TFCYNS44BQ5PLKNUF9YICQ0MNXHT","109","0","DONKEY","3","SQUARE","3","0","2096",,,,,"0","2018-10-03 21:15:17","242588"
"A2TCV4URAGNFEO","cs_wg_rev_mem_pilot2","3R2UR8A0IAH0X677R7AZIR9RC81XOH","16","0","WHISKER","5","BANANA","3","0","6644",,,,,"0","2018-10-03 21:15:18","242589"
"AZ5ZYUCAQ0XDL","cs_wg_rev_mem_pilot2","3S3AMIZX3U6LQB5NA20WTKCI7C7CDY","36","0","WHISKER","5","ROCKET","4","0","1110",,,,,"0","2018-10-03 21:15:18","242590"
"A3RTXKL0EGLRDJ","cs_wg_rev_mem_pilot2","36TFCYNS44BQ5PLKNUF9YICQ0MNXHT","110","0","MARKET","4","MONKEY","3","0","553",,,,,"0","2018-10-03 21:15:19","242591"
"A3RTXKL0EGLRDJ","cs_wg_rev_mem_pilot2","36TFCYNS44BQ5PLKNUF9YICQ0MNXHT","111","0","JAGUAR","3","GRENADE","4","0","499",,,,,"0","2018-10-03 21:15:21","242592"
"A3RTXKL0EGLRDJ","cs_wg_rev_mem_pilot2","36TFCYNS44BQ5PLKNUF9YICQ0MNXHT","112","0","GRENADE","4","DONKEY","3","0","594",,,,,"0","2018-10-03 21:15:23","242593"
"AZ5ZYUCAQ0XDL","cs_wg_rev_mem_pilot2","3S3AMIZX3U6LQB5NA20WTKCI7C7CDY","37","0","ROCKET","4","SAUCE","2","0","4236",,,,,"0","2018-10-03 21:15:24","242594"
"A3RTXKL0EGLRDJ","cs_wg_rev_mem_pilot2","36TFCYNS44BQ5PLKNUF9YICQ0MNXHT","113","0","BLOUSE","3","DONKEY","3","0","83",,,,,"0","2018-10-03 21:15:25","242595"
"A3RTXKL0EGLRDJ","cs_wg_rev_mem_pilot2","36TFCYNS44BQ5PLKNUF9YICQ0MNXHT","114","0","COMPANY","4","MARKET","4","0","442",,,,,"0","2018-10-03 21:15:27","242596"
"AZ5ZYUCAQ0XDL","cs_wg_rev_mem_pilot2","3S3AMIZX3U6LQB5NA20WTKCI7C7CDY","38","0","CHICKEN","5","BANANA","3","0","966",,,,,"0","2018-10-03 21:15:27","242597"
"A2TCV4URAGNFEO","cs_wg_rev_mem_pilot2","3R2UR8A0IAH0X677R7AZIR9RC81XOH","17","0","LIQUID","3","BANANA","3","1","8222",,,,,"0","2018-10-03 21:15:29","242598"
"A3RTXKL0EGLRDJ","cs_wg_rev_mem_pilot2","36TFCYNS44BQ5PLKNUF9YICQ0MNXHT","115","0","JAGUAR","3","SCUBA","3","0","1208",,,,,"0","2018-10-03 21:15:29","242599"
"AZ5ZYUCAQ0XDL","cs_wg_rev_mem_pilot2","3S3AMIZX3U6LQB5NA20WTKCI7C7CDY","39","0","PICTURE","4","BANANA","3","0","3921",,,,,"0","2018-10-03 21:15:32","242600"
"A3RTXKL0EGLRDJ","cs_wg_rev_mem_pilot2","36TFCYNS44BQ5PLKNUF9YICQ0MNXHT","116","0","DONKEY","3","BLANKET","5","0","1147",,,,,"0","2018-10-03 21:15:32","242601"
"A3RTXKL0EGLRDJ","cs_wg_rev_mem_pilot2","36TFCYNS44BQ5PLKNUF9YICQ0MNXHT","117","0","MONKEY","3","BLOUSE","3","0","900",,,,,"0","2018-10-03 21:15:35","242602"
"AZ5ZYUCAQ0XDL","cs_wg_rev_mem_pilot2","3S3AMIZX3U6LQB5NA20WTKCI7C7CDY","40","0","WHISKER","5","BASKET","4","0","1299",,,,,"0","2018-10-03 21:15:35","242603"
"A3RTXKL0EGLRDJ","cs_wg_rev_mem_pilot2","36TFCYNS44BQ5PLKNUF9YICQ0MNXHT","118","0","SPATULA","4","DONKEY","3","0","377",,,,,"0","2018-10-03 21:15:37","242604"
"A3RTXKL0EGLRDJ","cs_wg_rev_mem_pilot2","36TFCYNS44BQ5PLKNUF9YICQ0MNXHT","119","0","SPATULA","4","SCUBA","3","0","685",,,,,"0","2018-10-03 21:15:39","242605"
"A2TCV4URAGNFEO","cs_wg_rev_mem_pilot2","3R2UR8A0IAH0X677R7AZIR9RC81XOH","18","0","WHISKER","5","PELICAN","4","0","6807",,,,,"0","2018-10-03 21:15:39","242606"
"A3RTXKL0EGLRDJ","cs_wg_rev_mem_pilot2","36TFCYNS44BQ5PLKNUF9YICQ0MNXHT","120","0","GRENADE","4","MARKET","4","0","403",,,,,"0","2018-10-03 21:15:41","242607"
"AZ5ZYUCAQ0XDL","cs_wg_rev_mem_pilot2","3S3AMIZX3U6LQB5NA20WTKCI7C7CDY","41","0","PICTURE","4","LETTUCE","4","1","4211",,,,,"0","2018-10-03 21:15:41","242608"
"A3RTXKL0EGLRDJ","cs_wg_rev_mem_pilot2","36TFCYNS44BQ5PLKNUF9YICQ0MNXHT","121","0","MONKEY","3","DONKEY","3","0","929",,,,,"0","2018-10-03 21:15:44","242609"
"AZ5ZYUCAQ0XDL","cs_wg_rev_mem_pilot2","3S3AMIZX3U6LQB5NA20WTKCI7C7CDY","42","0","VOLCANO","4","LETTUCE","4","0","2454",,,,,"0","2018-10-03 21:15:45","242610"
"A3RTXKL0EGLRDJ","cs_wg_rev_mem_pilot2","36TFCYNS44BQ5PLKNUF9YICQ0MNXHT","122","0","SCUBA","3","COMPANY","4","0","775",,,,,"0","2018-10-03 21:15:46","242611"
"AZ5ZYUCAQ0XDL","cs_wg_rev_mem_pilot2","3S3AMIZX3U6LQB5NA20WTKCI7C7CDY","43","0","SAUCE","2","ROCKET","4","1","2620",,,,,"0","2018-10-03 21:15:49","242612"
"A2TCV4URAGNFEO","cs_wg_rev_mem_pilot2","3R2UR8A0IAH0X677R7AZIR9RC81XOH","19","0","MARKET","4","BANQUET","4","1","6441",,,,,"0","2018-10-03 21:15:49","242613"
"A3RTXKL0EGLRDJ","cs_wg_rev_mem_pilot2","36TFCYNS44BQ5PLKNUF9YICQ0MNXHT","123","0","DONKEY","3","SCUBA","3","0","2991",,,,,"0","2018-10-03 21:15:50","242614"
"AZ5ZYUCAQ0XDL","cs_wg_rev_mem_pilot2","3S3AMIZX3U6LQB5NA20WTKCI7C7CDY","44","0","WHISKER","5","BANANA","3","0","1042",,,,,"0","2018-10-03 21:15:52","242615"
"A3RTXKL0EGLRDJ","cs_wg_rev_mem_pilot2","36TFCYNS44BQ5PLKNUF9YICQ0MNXHT","124","0","ACROBAT","4","SPATULA","4","0","2004",,,,,"0","2018-10-03 21:15:54","242616"
"A3RTXKL0EGLRDJ","cs_wg_rev_mem_pilot2","36TFCYNS44BQ5PLKNUF9YICQ0MNXHT","125","0","BLANKET","5","SQUARE","3","0","430",,,,,"0","2018-10-03 21:15:56","242617"
"AZ5ZYUCAQ0XDL","cs_wg_rev_mem_pilot2","3S3AMIZX3U6LQB5NA20WTKCI7C7CDY","45","0","SAUCE","2","THUMB","4","1","4008",,,,,"0","2018-10-03 21:15:57","242618"
"A3RTXKL0EGLRDJ","cs_wg_rev_mem_pilot2","36TFCYNS44BQ5PLKNUF9YICQ0MNXHT","126","0","MARKET","4","GRENADE","4","0","2233",,,,,"0","2018-10-03 21:15:59","242619"
"A2TCV4URAGNFEO","cs_wg_rev_mem_pilot2","3R2UR8A0IAH0X677R7AZIR9RC81XOH","20","0","WHISKER","5","GARBAGE","4","0","8872",,,,,"0","2018-10-03 21:16:01","242620"
"A3RTXKL0EGLRDJ","cs_wg_rev_mem_pilot2","36TFCYNS44BQ5PLKNUF9YICQ0MNXHT","127","0","GRENADE","4","MONKEY","3","0","1404",,,,,"0","2018-10-03 21:16:02","242621"
"A3RTXKL0EGLRDJ","cs_wg_rev_mem_pilot2","36TFCYNS44BQ5PLKNUF9YICQ0MNXHT","128","0","GRENADE","4","COMPANY","4","0","621",,,,,"0","2018-10-03 21:16:04","242622"
"AZ5ZYUCAQ0XDL","cs_wg_rev_mem_pilot2","3S3AMIZX3U6LQB5NA20WTKCI7C7CDY","46","0","ISLAND","4","LETTUCE","4","0","5654",,,,,"0","2018-10-03 21:16:05","242623"
"A3RTXKL0EGLRDJ","cs_wg_rev_mem_pilot2","36TFCYNS44BQ5PLKNUF9YICQ0MNXHT","129","0","ACROBAT","4","DONKEY","3","0","509",,,,,"0","2018-10-03 21:16:07","242624"
"AZ5ZYUCAQ0XDL","cs_wg_rev_mem_pilot2","3S3AMIZX3U6LQB5NA20WTKCI7C7CDY","47","0","WHISKER","5","THUMB","4","0","1001",,,,,"0","2018-10-03 21:16:07","242625"
"A2TCV4URAGNFEO","cs_wg_rev_mem_pilot2","3R2UR8A0IAH0X677R7AZIR9RC81XOH","21","0","WHISKER","5","MARKET","4","0","5129",,,,,"0","2018-10-03 21:16:08","242626"
"A3RTXKL0EGLRDJ","cs_wg_rev_mem_pilot2","36TFCYNS44BQ5PLKNUF9YICQ0MNXHT","130","0","BLOUSE","3","GRENADE","4","0","1114",,,,,"0","2018-10-03 21:16:10","242627"
"A3RTXKL0EGLRDJ","cs_wg_rev_mem_pilot2","36TFCYNS44BQ5PLKNUF9YICQ0MNXHT","131","0","SQUARE","3","SCUBA","3","0","1694",,,,,"0","2018-10-03 21:16:13","242628"
"AZ5ZYUCAQ0XDL","cs_wg_rev_mem_pilot2","3S3AMIZX3U6LQB5NA20WTKCI7C7CDY","48","0","ROCKET","4","BANANA","3","0","3958",,,,,"0","2018-10-03 21:16:13","242629"
"AZ5ZYUCAQ0XDL","cs_wg_rev_mem_pilot2","3S3AMIZX3U6LQB5NA20WTKCI7C7CDY","49","0","SAUCE","2","CHICKEN","5","1","789",,,,,"0","2018-10-03 21:16:15","242630"
"A2TCV4URAGNFEO","cs_wg_rev_mem_pilot2","3R2UR8A0IAH0X677R7AZIR9RC81XOH","22","0","BANANA","3","LETTUCE","4","1","6608",,,,,"0","2018-10-03 21:16:17","242631"
"AZ5ZYUCAQ0XDL","cs_wg_rev_mem_pilot2","3S3AMIZX3U6LQB5NA20WTKCI7C7CDY","50","0","ROCKET","4","PICTURE","4","0","4409",,,,,"0","2018-10-03 21:16:21","242632"
"AZ5ZYUCAQ0XDL","cs_wg_rev_mem_pilot2","3S3AMIZX3U6LQB5NA20WTKCI7C7CDY","51","0","ROCKET","4","ISLAND","4","0","1697",,,,,"0","2018-10-03 21:16:24","242633"
"A2TCV4URAGNFEO","cs_wg_rev_mem_pilot2","3R2UR8A0IAH0X677R7AZIR9RC81XOH","23","0","SCUBA","3","LETTUCE","4","1","8146",,,,,"0","2018-10-03 21:16:29","242634"
"AZ5ZYUCAQ0XDL","cs_wg_rev_mem_pilot2","3S3AMIZX3U6LQB5NA20WTKCI7C7CDY","52","0","ISLAND","4","PICTURE","4","0","4471",,,,,"0","2018-10-03 21:16:30","242635"
"AZ5ZYUCAQ0XDL","cs_wg_rev_mem_pilot2","3S3AMIZX3U6LQB5NA20WTKCI7C7CDY","53","0","LETTUCE","4","WHISKER","5","1","936",,,,,"0","2018-10-03 21:16:33","242636"
"AZ5ZYUCAQ0XDL","cs_wg_rev_mem_pilot2","3S3AMIZX3U6LQB5NA20WTKCI7C7CDY","54","0","CHICKEN","5","LETTUCE","4","0","1365",,,,,"0","2018-10-03 21:16:36","242637"
"A2TCV4URAGNFEO","cs_wg_rev_mem_pilot2","3R2UR8A0IAH0X677R7AZIR9RC81XOH","24","0","WHISKER","5","BANQUET","4","0","7081",,,,,"0","2018-10-03 21:16:38","242638"
"AZ5ZYUCAQ0XDL","cs_wg_rev_mem_pilot2","3S3AMIZX3U6LQB5NA20WTKCI7C7CDY","55","0","VOLCANO","4","WHISKER","5","1","900",,,,,"0","2018-10-03 21:16:39","242639"
"AZ5ZYUCAQ0XDL","cs_wg_rev_mem_pilot2","3S3AMIZX3U6LQB5NA20WTKCI7C7CDY","56","0","LETTUCE","4","THUMB","4","0","1201",,,,,"0","2018-10-03 21:16:41","242640"
"AZ5ZYUCAQ0XDL","cs_wg_rev_mem_pilot2","3S3AMIZX3U6LQB5NA20WTKCI7C7CDY","57","0","VOLCANO","4","ISLAND","4","0","2400",,,,,"0","2018-10-03 21:16:46","242641"
"AZ5ZYUCAQ0XDL","cs_wg_rev_mem_pilot2","3S3AMIZX3U6LQB5NA20WTKCI7C7CDY","58","0","VOLCANO","4","BANANA","3","0","2516",,,,,"0","2018-10-03 21:16:50","242642"
"AZ5ZYUCAQ0XDL","cs_wg_rev_mem_pilot2","3S3AMIZX3U6LQB5NA20WTKCI7C7CDY","59","0","PICTURE","4","CHICKEN","5","1","778",,,,,"0","2018-10-03 21:16:52","242643"
"A2TCV4URAGNFEO","cs_wg_rev_mem_pilot2","3R2UR8A0IAH0X677R7AZIR9RC81XOH","25","0","BANQUET","4","GRENADE","4","0","10853",,,,,"0","2018-10-03 21:16:52","242644"
"AZ5ZYUCAQ0XDL","cs_wg_rev_mem_pilot2","3S3AMIZX3U6LQB5NA20WTKCI7C7CDY","60","0","BASKET","4","VOLCANO","4","0","3780",,,,,"0","2018-10-03 21:16:57","242645"
"AZ5ZYUCAQ0XDL","cs_wg_rev_mem_pilot2","3S3AMIZX3U6LQB5NA20WTKCI7C7CDY","61","0","POTATO","3","BANANA","3","0","3268",,,,,"0","2018-10-03 21:17:02","242646"
"A2TCV4URAGNFEO","cs_wg_rev_mem_pilot2","3R2UR8A0IAH0X677R7AZIR9RC81XOH","26","0","SCUBA","3","BLANKET","5","1","7921",,,,,"0","2018-10-03 21:17:02","242647"
"AZ5ZYUCAQ0XDL","cs_wg_rev_mem_pilot2","3S3AMIZX3U6LQB5NA20WTKCI7C7CDY","62","0","BANANA","3","VOLCANO","4","1","3168",,,,,"0","2018-10-03 21:17:06","242648"
"AZ5ZYUCAQ0XDL","cs_wg_rev_mem_pilot2","3S3AMIZX3U6LQB5NA20WTKCI7C7CDY","63","0","LETTUCE","4","CHICKEN","5","1","854",,,,,"0","2018-10-03 21:17:08","242649"
"AZ5ZYUCAQ0XDL","cs_wg_rev_mem_pilot2","3S3AMIZX3U6LQB5NA20WTKCI7C7CDY","64","0","ROCKET","4","BASKET","4","0","3972",,,,,"0","2018-10-03 21:17:14","242650"
"A2TCV4URAGNFEO","cs_wg_rev_mem_pilot2","3R2UR8A0IAH0X677R7AZIR9RC81XOH","27","0","GRENADE","4","BLANKET","5","1","10446",,,,,"0","2018-10-03 21:17:15","242651"
"AZ5ZYUCAQ0XDL","cs_wg_rev_mem_pilot2","3S3AMIZX3U6LQB5NA20WTKCI7C7CDY","65","0","CHICKEN","5","VOLCANO","4","0","1910",,,,,"0","2018-10-03 21:17:17","242652"
"AZ5ZYUCAQ0XDL","cs_wg_rev_mem_pilot2","3S3AMIZX3U6LQB5NA20WTKCI7C7CDY","66","0","THUMB","4","SAUCE","2","0","3022",,,,,"0","2018-10-03 21:17:21","242653"
"A2TCV4URAGNFEO","cs_wg_rev_mem_pilot2","3R2UR8A0IAH0X677R7AZIR9RC81XOH","28","0","BASKET","4","PELICAN","4","1","6323",,,,,"0","2018-10-03 21:17:23","242654"
"AZ5ZYUCAQ0XDL","cs_wg_rev_mem_pilot2","3S3AMIZX3U6LQB5NA20WTKCI7C7CDY","67","0","VOLCANO","4","CHICKEN","5","1","973",,,,,"0","2018-10-03 21:17:24","242655"
"AZ5ZYUCAQ0XDL","cs_wg_rev_mem_pilot2","3S3AMIZX3U6LQB5NA20WTKCI7C7CDY","68","0","WHISKER","5","POTATO","3","0","1145",,,,,"0","2018-10-03 21:17:27","242656"
"A2TCV4URAGNFEO","cs_wg_rev_mem_pilot2","3R2UR8A0IAH0X677R7AZIR9RC81XOH","29","0","BLANKET","5","BASKET","4","0","5885",,,,,"0","2018-10-03 21:17:32","242657"
"AZ5ZYUCAQ0XDL","cs_wg_rev_mem_pilot2","3S3AMIZX3U6LQB5NA20WTKCI7C7CDY","69","0","LETTUCE","4","ISLAND","4","0","3611",,,,,"0","2018-10-03 21:17:32","242658"
"AZ5ZYUCAQ0XDL","cs_wg_rev_mem_pilot2","3S3AMIZX3U6LQB5NA20WTKCI7C7CDY","70","0","LETTUCE","4","BASKET","4","0","3303",,,,,"0","2018-10-03 21:17:36","242659"
"AZ5ZYUCAQ0XDL","cs_wg_rev_mem_pilot2","3S3AMIZX3U6LQB5NA20WTKCI7C7CDY","71","0","POTATO","3","VOLCANO","4","1","2490",,,,,"0","2018-10-03 21:17:40","242660"
"A2TCV4URAGNFEO","cs_wg_rev_mem_pilot2","3R2UR8A0IAH0X677R7AZIR9RC81XOH","30","0","BASKET","4","LETTUCE","4","1","8488",,,,,"0","2018-10-03 21:17:43","242661"
"AZ5ZYUCAQ0XDL","cs_wg_rev_mem_pilot2","3S3AMIZX3U6LQB5NA20WTKCI7C7CDY","72","0","BASKET","4","CHICKEN","5","1","1287",,,,,"0","2018-10-03 21:17:44","242662"
"AZ5ZYUCAQ0XDL","cs_wg_rev_mem_pilot2","3S3AMIZX3U6LQB5NA20WTKCI7C7CDY","73","0","PICTURE","4","VOLCANO","4","0","3009",,,,,"0","2018-10-03 21:17:48","242663"
"AZ5ZYUCAQ0XDL","cs_wg_rev_mem_pilot2","3S3AMIZX3U6LQB5NA20WTKCI7C7CDY","74","0","LETTUCE","4","BANANA","3","0","1989",,,,,"0","2018-10-03 21:17:51","242664"
"A2TCV4URAGNFEO","cs_wg_rev_mem_pilot2","3R2UR8A0IAH0X677R7AZIR9RC81XOH","31","0","LETTUCE","4","SCUBA","3","0","5791",,,,,"0","2018-10-03 21:17:51","242665"
"AZ5ZYUCAQ0XDL","cs_wg_rev_mem_pilot2","3S3AMIZX3U6LQB5NA20WTKCI7C7CDY","75","0","LETTUCE","4","SAUCE","2","0","1206",,,,,"0","2018-10-03 21:17:54","242666"
"AZ5ZYUCAQ0XDL","cs_wg_rev_mem_pilot2","3S3AMIZX3U6LQB5NA20WTKCI7C7CDY","76","0","SAUCE","2","LETTUCE","4","1","1002",,,,,"0","2018-10-03 21:17:56","242667"
"AZ5ZYUCAQ0XDL","cs_wg_rev_mem_pilot2","3S3AMIZX3U6LQB5NA20WTKCI7C7CDY","77","0","ROCKET","4","THUMB","4","0","2286",,,,,"0","2018-10-03 21:18:00","242668"
"A2TCV4URAGNFEO","cs_wg_rev_mem_pilot2","3R2UR8A0IAH0X677R7AZIR9RC81XOH","32","0","LETTUCE","4","BLANKET","5","1","6850",,,,,"0","2018-10-03 21:18:01","242669"
"AZ5ZYUCAQ0XDL","cs_wg_rev_mem_pilot2","3S3AMIZX3U6LQB5NA20WTKCI7C7CDY","78","0","BANANA","3","BASKET","4","1","2526",,,,,"0","2018-10-03 21:18:04","242670"
"AZ5ZYUCAQ0XDL","cs_wg_rev_mem_pilot2","3S3AMIZX3U6LQB5NA20WTKCI7C7CDY","79","0","ROCKET","4","LETTUCE","4","0","3313",,,,,"0","2018-10-03 21:18:08","242671"
"A2TCV4URAGNFEO","cs_wg_rev_mem_pilot2","3R2UR8A0IAH0X677R7AZIR9RC81XOH","33","0","PELICAN","4","SCUBA","3","0","6696",,,,,"0","2018-10-03 21:18:09","242672"
"AZ5ZYUCAQ0XDL","cs_wg_rev_mem_pilot2","3S3AMIZX3U6LQB5NA20WTKCI7C7CDY","80","0","THUMB","4","PICTURE","4","0","3392",,,,,"0","2018-10-03 21:18:13","242673"
"AZ5ZYUCAQ0XDL","cs_wg_rev_mem_pilot2","3S3AMIZX3U6LQB5NA20WTKCI7C7CDY","81","0","BANANA","3","WHISKER","5","1","1174",,,,,"0","2018-10-03 21:18:16","242674"
"A2TCV4URAGNFEO","cs_wg_rev_mem_pilot2","3R2UR8A0IAH0X677R7AZIR9RC81XOH","34","0","PELICAN","4","BANANA","3","0","7487",,,,,"0","2018-10-03 21:18:19","242675"
"AZ5ZYUCAQ0XDL","cs_wg_rev_mem_pilot2","3S3AMIZX3U6LQB5NA20WTKCI7C7CDY","82","0","ROCKET","4","CHICKEN","5","1","2139",,,,,"0","2018-10-03 21:18:20","242676"
"AZ5ZYUCAQ0XDL","cs_wg_rev_mem_pilot2","3S3AMIZX3U6LQB5NA20WTKCI7C7CDY","83","0","VOLCANO","4","ROCKET","4","0","1099",,,,,"0","2018-10-03 21:18:22","242677"
"AZ5ZYUCAQ0XDL","cs_wg_rev_mem_pilot2","3S3AMIZX3U6LQB5NA20WTKCI7C7CDY","84","0","BANANA","3","SAUCE","2","0","1121",,,,,"0","2018-10-03 21:18:26","242678"
"AZ5ZYUCAQ0XDL","cs_wg_rev_mem_pilot2","3S3AMIZX3U6LQB5NA20WTKCI7C7CDY","85","0","BASKET","4","ISLAND","4","0","1020",,,,,"0","2018-10-03 21:18:29","242679"
"A2TCV4URAGNFEO","cs_wg_rev_mem_pilot2","3R2UR8A0IAH0X677R7AZIR9RC81XOH","35","0","BANANA","3","GARBAGE","4","1","9926",,,,,"0","2018-10-03 21:18:31","242680"
"AZ5ZYUCAQ0XDL","cs_wg_rev_mem_pilot2","3S3AMIZX3U6LQB5NA20WTKCI7C7CDY","86","0","ISLAND","4","SAUCE","2","0","1072",,,,,"0","2018-10-03 21:18:32","242681"
"AZ5ZYUCAQ0XDL","cs_wg_rev_mem_pilot2","3S3AMIZX3U6LQB5NA20WTKCI7C7CDY","87","0","CHICKEN","5","ROCKET","4","0","898",,,,,"0","2018-10-03 21:18:35","242682"
"AZ5ZYUCAQ0XDL","cs_wg_rev_mem_pilot2","3S3AMIZX3U6LQB5NA20WTKCI7C7CDY","88","0","SAUCE","2","BANANA","3","1","1296",,,,,"0","2018-10-03 21:18:38","242683"
"A2TCV4URAGNFEO","cs_wg_rev_mem_pilot2","3R2UR8A0IAH0X677R7AZIR9RC81XOH","36","0","MARKET","4","BANANA","3","0","5669",,,,,"0","2018-10-03 21:18:39","242684"
"AZ5ZYUCAQ0XDL","cs_wg_rev_mem_pilot2","3S3AMIZX3U6LQB5NA20WTKCI7C7CDY","89","0","ISLAND","4","POTATO","3","0","1325",,,,,"0","2018-10-03 21:18:41","242685"
"AZ5ZYUCAQ0XDL","cs_wg_rev_mem_pilot2","3S3AMIZX3U6LQB5NA20WTKCI7C7CDY","90","0","ISLAND","4","WHISKER","5","1","900",,,,,"0","2018-10-03 21:18:44","242686"
"AZ5ZYUCAQ0XDL","cs_wg_rev_mem_pilot2","3S3AMIZX3U6LQB5NA20WTKCI7C7CDY","91","0","CHICKEN","5","PICTURE","4","0","789",,,,,"0","2018-10-03 21:18:46","242687"
"A2TCV4URAGNFEO","cs_wg_rev_mem_pilot2","3R2UR8A0IAH0X677R7AZIR9RC81XOH","37","0","BANQUET","4","BANANA","3","0","5143",,,,,"0","2018-10-03 21:18:47","242688"
"AZ5ZYUCAQ0XDL","cs_wg_rev_mem_pilot2","3S3AMIZX3U6LQB5NA20WTKCI7C7CDY","92","0","ISLAND","4","BANANA","3","0","1379",,,,,"0","2018-10-03 21:18:50","242689"
"AZ5ZYUCAQ0XDL","cs_wg_rev_mem_pilot2","3S3AMIZX3U6LQB5NA20WTKCI7C7CDY","93","0","ISLAND","4","ROCKET","4","0","2090",,,,,"0","2018-10-03 21:18:54","242690"
"A2TCV4URAGNFEO","cs_wg_rev_mem_pilot2","3R2UR8A0IAH0X677R7AZIR9RC81XOH","38","0","PELICAN","4","GRENADE","4","0","6336",,,,,"0","2018-10-03 21:18:55","242691"
"AZ5ZYUCAQ0XDL","cs_wg_rev_mem_pilot2","3S3AMIZX3U6LQB5NA20WTKCI7C7CDY","94","0","THUMB","4","ISLAND","4","1","3406",,,,,"0","2018-10-03 21:18:59","242692"
"AZ5ZYUCAQ0XDL","cs_wg_rev_mem_pilot2","3S3AMIZX3U6LQB5NA20WTKCI7C7CDY","95","0","ISLAND","4","CHICKEN","5","1","951",,,,,"0","2018-10-03 21:19:01","242693"
"A2TCV4URAGNFEO","cs_wg_rev_mem_pilot2","3R2UR8A0IAH0X677R7AZIR9RC81XOH","39","0","GARBAGE","4","LETTUCE","4","0","7943",,,,,"0","2018-10-03 21:19:05","242694"
"AZ5ZYUCAQ0XDL","cs_wg_rev_mem_pilot2","3S3AMIZX3U6LQB5NA20WTKCI7C7CDY","96","0","PICTURE","4","ROCKET","4","0","3250",,,,,"0","2018-10-03 21:19:06","242695"
"AZ5ZYUCAQ0XDL","cs_wg_rev_mem_pilot2","3S3AMIZX3U6LQB5NA20WTKCI7C7CDY","97","0","BANANA","3","ISLAND","4","0","1730",,,,,"0","2018-10-03 21:19:09","242696"
"AZ5ZYUCAQ0XDL","cs_wg_rev_mem_pilot2","3S3AMIZX3U6LQB5NA20WTKCI7C7CDY","98","0","THUMB","4","POTATO","3","0","3102",,,,,"0","2018-10-03 21:19:14","242697"
"AZ5ZYUCAQ0XDL","cs_wg_rev_mem_pilot2","3S3AMIZX3U6LQB5NA20WTKCI7C7CDY","99","0","VOLCANO","4","THUMB","4","0","996",,,,,"0","2018-10-03 21:19:17","242698"
"A2TCV4URAGNFEO","cs_wg_rev_mem_pilot2","3R2UR8A0IAH0X677R7AZIR9RC81XOH","40","0","SCUBA","3","GRENADE","4","1","11042",,,,,"0","2018-10-03 21:19:19","242699"
"AZ5ZYUCAQ0XDL","cs_wg_rev_mem_pilot2","3S3AMIZX3U6LQB5NA20WTKCI7C7CDY","100","0","SAUCE","2","VOLCANO","4","1","791",,,,,"0","2018-10-03 21:19:20","242700"
"AZ5ZYUCAQ0XDL","cs_wg_rev_mem_pilot2","3S3AMIZX3U6LQB5NA20WTKCI7C7CDY","101","0","PICTURE","4","POTATO","3","0","2179",,,,,"0","2018-10-03 21:19:23","242701"
"AZ5ZYUCAQ0XDL","cs_wg_rev_mem_pilot2","3S3AMIZX3U6LQB5NA20WTKCI7C7CDY","102","0","WHISKER","5","PICTURE","4","0","2405",,,,,"0","2018-10-03 21:19:27","242702"
"A2TCV4URAGNFEO","cs_wg_rev_mem_pilot2","3R2UR8A0IAH0X677R7AZIR9RC81XOH","41","0","BASKET","4","BANQUET","4","0","8017",,,,,"0","2018-10-03 21:19:29","242703"
"AZ5ZYUCAQ0XDL","cs_wg_rev_mem_pilot2","3S3AMIZX3U6LQB5NA20WTKCI7C7CDY","103","0","THUMB","4","ROCKET","4","0","3003",,,,,"0","2018-10-03 21:19:32","242704"
"AZ5ZYUCAQ0XDL","cs_wg_rev_mem_pilot2","3S3AMIZX3U6LQB5NA20WTKCI7C7CDY","104","0","WHISKER","5","CHICKEN","5","0","801",,,,,"0","2018-10-03 21:19:35","242705"
"A2TCV4URAGNFEO","cs_wg_rev_mem_pilot2","3R2UR8A0IAH0X677R7AZIR9RC81XOH","42","0","BLANKET","5","WHISKER","5","0","6159",,,,,"0","2018-10-03 21:19:38","242706"
"AZ5ZYUCAQ0XDL","cs_wg_rev_mem_pilot2","3S3AMIZX3U6LQB5NA20WTKCI7C7CDY","105","0","POTATO","3","PICTURE","4","1","1773",,,,,"0","2018-10-03 21:19:38","242707"
"AZ5ZYUCAQ0XDL","cs_wg_rev_mem_pilot2","3S3AMIZX3U6LQB5NA20WTKCI7C7CDY","106","0","THUMB","4","WHISKER","5","1","814",,,,,"0","2018-10-03 21:19:41","242708"
"AZ5ZYUCAQ0XDL","cs_wg_rev_mem_pilot2","3S3AMIZX3U6LQB5NA20WTKCI7C7CDY","107","0","BANANA","3","PICTURE","4","1","2931",,,,,"0","2018-10-03 21:19:46","242709"
"A2TCV4URAGNFEO","cs_wg_rev_mem_pilot2","3R2UR8A0IAH0X677R7AZIR9RC81XOH","43","0","GRENADE","4","GARBAGE","4","1","8860",,,,,"0","2018-10-03 21:19:49","242710"
"AZ5ZYUCAQ0XDL","cs_wg_rev_mem_pilot2","3S3AMIZX3U6LQB5NA20WTKCI7C7CDY","108","0","POTATO","3","LETTUCE","4","1","2305",,,,,"0","2018-10-03 21:19:50","242711"
"AZ5ZYUCAQ0XDL","cs_wg_rev_mem_pilot2","3S3AMIZX3U6LQB5NA20WTKCI7C7CDY","109","0","THUMB","4","BASKET","4","1","858",,,,,"0","2018-10-03 21:19:52","242712"
"AZ5ZYUCAQ0XDL","cs_wg_rev_mem_pilot2","3S3AMIZX3U6LQB5NA20WTKCI7C7CDY","110","0","POTATO","3","ISLAND","4","1","1614",,,,,"0","2018-10-03 21:19:55","242713"
"A2TCV4URAGNFEO","cs_wg_rev_mem_pilot2","3R2UR8A0IAH0X677R7AZIR9RC81XOH","44","0","WHISKER","5","SCUBA","3","0","7493",,,,,"0","2018-10-03 21:19:59","242714"
"AZ5ZYUCAQ0XDL","cs_wg_rev_mem_pilot2","3S3AMIZX3U6LQB5NA20WTKCI7C7CDY","111","0","BASKET","4","POTATO","3","0","3832",,,,,"0","2018-10-03 21:20:01","242715"
"AZ5ZYUCAQ0XDL","cs_wg_rev_mem_pilot2","3S3AMIZX3U6LQB5NA20WTKCI7C7CDY","112","0","WHISKER","5","SAUCE","2","0","1650",,,,,"0","2018-10-03 21:20:04","242716"
"AZ5ZYUCAQ0XDL","cs_wg_rev_mem_pilot2","3S3AMIZX3U6LQB5NA20WTKCI7C7CDY","113","0","WHISKER","5","VOLCANO","4","0","888",,,,,"0","2018-10-03 21:20:06","242717"
"AZ5ZYUCAQ0XDL","cs_wg_rev_mem_pilot2","3S3AMIZX3U6LQB5NA20WTKCI7C7CDY","114","0","CHICKEN","5","THUMB","4","0","730",,,,,"0","2018-10-03 21:20:09","242718"
"A2TCV4URAGNFEO","cs_wg_rev_mem_pilot2","3R2UR8A0IAH0X677R7AZIR9RC81XOH","45","0","GRENADE","4","LETTUCE","4","1","8964",,,,,"0","2018-10-03 21:20:10","242719"
"AZ5ZYUCAQ0XDL","cs_wg_rev_mem_pilot2","3S3AMIZX3U6LQB5NA20WTKCI7C7CDY","115","0","BASKET","4","LETTUCE","4","0","3531",,,,,"0","2018-10-03 21:20:14","242720"
"AZ5ZYUCAQ0XDL","cs_wg_rev_mem_pilot2","3S3AMIZX3U6LQB5NA20WTKCI7C7CDY","116","0","LETTUCE","4","ROCKET","4","0","1189",,,,,"0","2018-10-03 21:20:16","242721"
"AZ5ZYUCAQ0XDL","cs_wg_rev_mem_pilot2","3S3AMIZX3U6LQB5NA20WTKCI7C7CDY","117","0","VOLCANO","4","SAUCE","2","0","882",,,,,"0","2018-10-03 21:20:18","242722"
"A2TCV4URAGNFEO","cs_wg_rev_mem_pilot2","3R2UR8A0IAH0X677R7AZIR9RC81XOH","46","0","BASKET","4","BLANKET","5","1","6337",,,,,"0","2018-10-03 21:20:19","242723"
"AZ5ZYUCAQ0XDL","cs_wg_rev_mem_pilot2","3S3AMIZX3U6LQB5NA20WTKCI7C7CDY","118","0","BASKET","4","THUMB","4","0","1001",,,,,"0","2018-10-03 21:20:21","242724"
"AZ5ZYUCAQ0XDL","cs_wg_rev_mem_pilot2","3S3AMIZX3U6LQB5NA20WTKCI7C7CDY","119","0","SAUCE","2","ISLAND","4","1","729",,,,,"0","2018-10-03 21:20:23","242725"
"AZ5ZYUCAQ0XDL","cs_wg_rev_mem_pilot2","3S3AMIZX3U6LQB5NA20WTKCI7C7CDY","120","0","SAUCE","2","WHISKER","5","1","819",,,,,"0","2018-10-03 21:20:25","242726"
"AZ5ZYUCAQ0XDL","cs_wg_rev_mem_pilot2","3S3AMIZX3U6LQB5NA20WTKCI7C7CDY","121","0","CHICKEN","5","POTATO","3","0","869",,,,,"0","2018-10-03 21:20:28","242727"
"A2TCV4URAGNFEO","cs_wg_rev_mem_pilot2","3R2UR8A0IAH0X677R7AZIR9RC81XOH","47","0","PELICAN","4","LETTUCE","4","1","6711",,,,,"0","2018-10-03 21:20:28","242728"
"AZ5ZYUCAQ0XDL","cs_wg_rev_mem_pilot2","3S3AMIZX3U6LQB5NA20WTKCI7C7CDY","122","0","BANANA","3","ROCKET","4","1","776",,,,,"0","2018-10-03 21:20:30","242729"
"AZ5ZYUCAQ0XDL","cs_wg_rev_mem_pilot2","3S3AMIZX3U6LQB5NA20WTKCI7C7CDY","123","0","CHICKEN","5","BASKET","4","0","803",,,,,"0","2018-10-03 21:20:32","242730"
"AZ5ZYUCAQ0XDL","cs_wg_rev_mem_pilot2","3S3AMIZX3U6LQB5NA20WTKCI7C7CDY","124","0","ROCKET","4","POTATO","3","0","1105",,,,,"0","2018-10-03 21:20:34","242731"
"A2TCV4URAGNFEO","cs_wg_rev_mem_pilot2","3R2UR8A0IAH0X677R7AZIR9RC81XOH","48","0","BLANKET","5","BANQUET","4","0","6811",,,,,"0","2018-10-03 21:20:37","242732"
"AZ5ZYUCAQ0XDL","cs_wg_rev_mem_pilot2","3S3AMIZX3U6LQB5NA20WTKCI7C7CDY","125","0","POTATO","3","SAUCE","2","0","1134",,,,,"0","2018-10-03 21:20:37","242733"
"AZ5ZYUCAQ0XDL","cs_wg_rev_mem_pilot2","3S3AMIZX3U6LQB5NA20WTKCI7C7CDY","126","0","POTATO","3","THUMB","4","1","2123",,,,,"0","2018-10-03 21:20:41","242734"
"AZ5ZYUCAQ0XDL","cs_wg_rev_mem_pilot2","3S3AMIZX3U6LQB5NA20WTKCI7C7CDY","127","0","CHICKEN","5","SAUCE","2","0","692",,,,,"0","2018-10-03 21:20:44","242735"
"A2TCV4URAGNFEO","cs_wg_rev_mem_pilot2","3R2UR8A0IAH0X677R7AZIR9RC81XOH","49","0","LIQUID","3","PELICAN","4","1","7660",,,,,"0","2018-10-03 21:20:47","242736"
"AZ5ZYUCAQ0XDL","cs_wg_rev_mem_pilot2","3S3AMIZX3U6LQB5NA20WTKCI7C7CDY","128","0","ROCKET","4","VOLCANO","4","0","1517",,,,,"0","2018-10-03 21:20:49","242737"
"A3S4N8VEMSDT2M","cs_wg_rev_mem_pilot2","3VFJCI1K4Z0S8X4XUPRZO0E1K5QRGT","0","0","COLUMN","4","PALACE","3","1","2831",,,,,"0","2018-10-03 21:20:49","242738"
"A3S4N8VEMSDT2M","cs_wg_rev_mem_pilot2","3VFJCI1K4Z0S8X4XUPRZO0E1K5QRGT","1","0","PELICAN","4","THUMB","4","0","689",,,,,"0","2018-10-03 21:20:52","242739"
"AZ5ZYUCAQ0XDL","cs_wg_rev_mem_pilot2","3S3AMIZX3U6LQB5NA20WTKCI7C7CDY","129","0","CHICKEN","5","WHISKER","5","0","1651",,,,,"0","2018-10-03 21:20:52","242740"
"A2TCV4URAGNFEO","cs_wg_rev_mem_pilot2","3R2UR8A0IAH0X677R7AZIR9RC81XOH","50","0","MARKET","4","BASKET","4","1","5203",,,,,"0","2018-10-03 21:20:54","242741"
"AZ5ZYUCAQ0XDL","cs_wg_rev_mem_pilot2","3S3AMIZX3U6LQB5NA20WTKCI7C7CDY","130","0","ROCKET","4","WHISKER","5","1","850",,,,,"0","2018-10-03 21:20:55","242742"
"A3S4N8VEMSDT2M","cs_wg_rev_mem_pilot2","3VFJCI1K4Z0S8X4XUPRZO0E1K5QRGT","2","0","SUNBURN","5","WHISKER","5","0","1495",,,,,"0","2018-10-03 21:20:56","242743"
"A3S4N8VEMSDT2M","cs_wg_rev_mem_pilot2","3VFJCI1K4Z0S8X4XUPRZO0E1K5QRGT","3","0","THUMB","4","BUCKET","4","0","1257",,,,,"0","2018-10-03 21:20:59","242744"
"AZ5ZYUCAQ0XDL","cs_wg_rev_mem_pilot2","3S3AMIZX3U6LQB5NA20WTKCI7C7CDY","131","0","LETTUCE","4","PICTURE","4","0","2996",,,,,"0","2018-10-03 21:20:59","242745"
"A3S4N8VEMSDT2M","cs_wg_rev_mem_pilot2","3VFJCI1K4Z0S8X4XUPRZO0E1K5QRGT","4","0","THUMB","4","COLUMN","4","0","872",,,,,"0","2018-10-03 21:21:03","242746"
"A2TCV4URAGNFEO","cs_wg_rev_mem_pilot2","3R2UR8A0IAH0X677R7AZIR9RC81XOH","51","0","MARKET","4","GARBAGE","4","1","6650",,,,,"0","2018-10-03 21:21:03","242747"
"A3S4N8VEMSDT2M","cs_wg_rev_mem_pilot2","3VFJCI1K4Z0S8X4XUPRZO0E1K5QRGT","5","0","DONKEY","3","CANCER","4","0","460",,,,,"0","2018-10-03 21:21:04","242748"
"A3S4N8VEMSDT2M","cs_wg_rev_mem_pilot2","3VFJCI1K4Z0S8X4XUPRZO0E1K5QRGT","6","0","SEAGULL","4","THUMB","4","1","358",,,,,"0","2018-10-03 21:21:06","242749"
"A3S4N8VEMSDT2M","cs_wg_rev_mem_pilot2","3VFJCI1K4Z0S8X4XUPRZO0E1K5QRGT","7","0","DONKEY","3","WHISKER","5","0","1278",,,,,"0","2018-10-03 21:21:09","242750"
"A2TCV4URAGNFEO","cs_wg_rev_mem_pilot2","3R2UR8A0IAH0X677R7AZIR9RC81XOH","52","0","BANANA","3","BASKET","4","1","4882",,,,,"0","2018-10-03 21:21:10","242751"
"A3S4N8VEMSDT2M","cs_wg_rev_mem_pilot2","3VFJCI1K4Z0S8X4XUPRZO0E1K5QRGT","8","0","WHISKER","5","PALACE","3","0","703",,,,,"0","2018-10-03 21:21:13","242752"
"A3S4N8VEMSDT2M","cs_wg_rev_mem_pilot2","3VFJCI1K4Z0S8X4XUPRZO0E1K5QRGT","9","0","PELICAN","4","SUNBURN","5","0","383",,,,,"0","2018-10-03 21:21:14","242753"
"A3S4N8VEMSDT2M","cs_wg_rev_mem_pilot2","3VFJCI1K4Z0S8X4XUPRZO0E1K5QRGT","10","0","DONKEY","3","PALACE","3","0","337",,,,,"0","2018-10-03 21:21:16","242754"
"A2TCV4URAGNFEO","cs_wg_rev_mem_pilot2","3R2UR8A0IAH0X677R7AZIR9RC81XOH","53","0","LETTUCE","4","GARBAGE","4","1","5094",,,,,"0","2018-10-03 21:21:17","242755"
"A3S4N8VEMSDT2M","cs_wg_rev_mem_pilot2","3VFJCI1K4Z0S8X4XUPRZO0E1K5QRGT","11","0","CRICKET","5","ISLAND","4","0","333",,,,,"0","2018-10-03 21:21:17","242756"
"A3S4N8VEMSDT2M","cs_wg_rev_mem_pilot2","3VFJCI1K4Z0S8X4XUPRZO0E1K5QRGT","12","0","ISLAND","4","THUMB","4","0","364",,,,,"0","2018-10-03 21:21:19","242757"
"A3S4N8VEMSDT2M","cs_wg_rev_mem_pilot2","3VFJCI1K4Z0S8X4XUPRZO0E1K5QRGT","13","0","DONKEY","3","CRICKET","5","1","64",,,,,"0","2018-10-03 21:21:22","242758"
"A3S4N8VEMSDT2M","cs_wg_rev_mem_pilot2","3VFJCI1K4Z0S8X4XUPRZO0E1K5QRGT","14","0","CANCER","4","THUMB","4","0","367",,,,,"0","2018-10-03 21:21:23","242759"
"A2TCV4URAGNFEO","cs_wg_rev_mem_pilot2","3R2UR8A0IAH0X677R7AZIR9RC81XOH","54","0","BLANKET","5","LIQUID","3","0","5128",,,,,"0","2018-10-03 21:21:25","242760"
"A3S4N8VEMSDT2M","cs_wg_rev_mem_pilot2","3VFJCI1K4Z0S8X4XUPRZO0E1K5QRGT","15","0","SEAGULL","4","SUNBURN","5","0","169",,,,,"0","2018-10-03 21:21:25","242761"
"A3S4N8VEMSDT2M","cs_wg_rev_mem_pilot2","3VFJCI1K4Z0S8X4XUPRZO0E1K5QRGT","16","0","PELICAN","4","ISLAND","4","0","288",,,,,"0","2018-10-03 21:21:27","242762"
"A3S4N8VEMSDT2M","cs_wg_rev_mem_pilot2","3VFJCI1K4Z0S8X4XUPRZO0E1K5QRGT","17","0","WHISKER","5","ISLAND","4","0","486",,,,,"0","2018-10-03 21:21:29","242763"
"A3S4N8VEMSDT2M","cs_wg_rev_mem_pilot2","3VFJCI1K4Z0S8X4XUPRZO0E1K5QRGT","18","0","WHISKER","5","BUCKET","4","0","200",,,,,"0","2018-10-03 21:21:31","242764"
"A3S4N8VEMSDT2M","cs_wg_rev_mem_pilot2","3VFJCI1K4Z0S8X4XUPRZO0E1K5QRGT","19","0","WHISKER","5","SEAGULL","4","0","109",,,,,"0","2018-10-03 21:21:32","242765"
"A3S4N8VEMSDT2M","cs_wg_rev_mem_pilot2","3VFJCI1K4Z0S8X4XUPRZO0E1K5QRGT","20","0","CANCER","4","BUCKET","4","0","227",,,,,"0","2018-10-03 21:21:33","242766"
"A2TCV4URAGNFEO","cs_wg_rev_mem_pilot2","3R2UR8A0IAH0X677R7AZIR9RC81XOH","55","0","GARBAGE","4","BANQUET","4","0","7056",,,,,"0","2018-10-03 21:21:34","242767"
"A3S4N8VEMSDT2M","cs_wg_rev_mem_pilot2","3VFJCI1K4Z0S8X4XUPRZO0E1K5QRGT","21","0","WHISKER","5","CANCER","4","0","272",,,,,"0","2018-10-03 21:21:35","242768"
"A3S4N8VEMSDT2M","cs_wg_rev_mem_pilot2","3VFJCI1K4Z0S8X4XUPRZO0E1K5QRGT","22","0","PALACE","3","ISLAND","4","0","290",,,,,"0","2018-10-03 21:21:37","242769"
"A3S4N8VEMSDT2M","cs_wg_rev_mem_pilot2","3VFJCI1K4Z0S8X4XUPRZO0E1K5QRGT","23","0","SUNBURN","5","PALACE","3","0","184",,,,,"0","2018-10-03 21:21:38","242770"
"A3S4N8VEMSDT2M","cs_wg_rev_mem_pilot2","3VFJCI1K4Z0S8X4XUPRZO0E1K5QRGT","24","0","SUNBURN","5","PELICAN","4","0","1",,,,,"0","2018-10-03 21:21:39","242771"
"A3S4N8VEMSDT2M","cs_wg_rev_mem_pilot2","3VFJCI1K4Z0S8X4XUPRZO0E1K5QRGT","25","0","PALACE","3","THUMB","4","0","47",,,,,"0","2018-10-03 21:21:41","242772"
"A3S4N8VEMSDT2M","cs_wg_rev_mem_pilot2","3VFJCI1K4Z0S8X4XUPRZO0E1K5QRGT","26","0","COLUMN","4","THUMB","4","0","207",,,,,"0","2018-10-03 21:21:42","242773"
"A2TCV4URAGNFEO","cs_wg_rev_mem_pilot2","3R2UR8A0IAH0X677R7AZIR9RC81XOH","56","0","SCUBA","3","LIQUID","3","0","6760",,,,,"0","2018-10-03 21:21:43","242774"
"A3S4N8VEMSDT2M","cs_wg_rev_mem_pilot2","3VFJCI1K4Z0S8X4XUPRZO0E1K5QRGT","27","0","PELICAN","4","SEAGULL","4","0","527",,,,,"0","2018-10-03 21:21:44","242775"
"A3S4N8VEMSDT2M","cs_wg_rev_mem_pilot2","3VFJCI1K4Z0S8X4XUPRZO0E1K5QRGT","28","0","SEAGULL","4","DONKEY","3","0","186",,,,,"0","2018-10-03 21:21:46","242776"
"A3S4N8VEMSDT2M","cs_wg_rev_mem_pilot2","3VFJCI1K4Z0S8X4XUPRZO0E1K5QRGT","29","0","CRICKET","5","PELICAN","4","0","402",,,,,"0","2018-10-03 21:21:47","242777"
"A3S4N8VEMSDT2M","cs_wg_rev_mem_pilot2","3VFJCI1K4Z0S8X4XUPRZO0E1K5QRGT","30","0","PALACE","3","DONKEY","3","0","153",,,,,"0","2018-10-03 21:21:49","242778"
"A3S4N8VEMSDT2M","cs_wg_rev_mem_pilot2","3VFJCI1K4Z0S8X4XUPRZO0E1K5QRGT","31","0","ISLAND","4","COLUMN","4","0","113",,,,,"0","2018-10-03 21:21:50","242779"
"A2TCV4URAGNFEO","cs_wg_rev_mem_pilot2","3R2UR8A0IAH0X677R7AZIR9RC81XOH","57","0","GARBAGE","4","GRENADE","4","0","6606",,,,,"0","2018-10-03 21:21:52","242780"
"A3S4N8VEMSDT2M","cs_wg_rev_mem_pilot2","3VFJCI1K4Z0S8X4XUPRZO0E1K5QRGT","32","0","CRICKET","5","COLUMN","4","0","287",,,,,"0","2018-10-03 21:21:52","242781"
"A3S4N8VEMSDT2M","cs_wg_rev_mem_pilot2","3VFJCI1K4Z0S8X4XUPRZO0E1K5QRGT","33","0","BUCKET","4","SUNBURN","5","0","31",,,,,"0","2018-10-03 21:21:53","242782"
"A3S4N8VEMSDT2M","cs_wg_rev_mem_pilot2","3VFJCI1K4Z0S8X4XUPRZO0E1K5QRGT","34","0","COLUMN","4","SUNBURN","5","0","96",,,,,"0","2018-10-03 21:21:55","242783"
"A3S4N8VEMSDT2M","cs_wg_rev_mem_pilot2","3VFJCI1K4Z0S8X4XUPRZO0E1K5QRGT","35","0","ISLAND","4","PELICAN","4","0","27",,,,,"0","2018-10-03 21:21:56","242784"
"A3S4N8VEMSDT2M","cs_wg_rev_mem_pilot2","3VFJCI1K4Z0S8X4XUPRZO0E1K5QRGT","36","0","PALACE","3","BUCKET","4","0","177",,,,,"0","2018-10-03 21:21:58","242785"
"A2TCV4URAGNFEO","cs_wg_rev_mem_pilot2","3R2UR8A0IAH0X677R7AZIR9RC81XOH","58","0","BANQUET","4","LETTUCE","4","0","4913",,,,,"0","2018-10-03 21:21:58","242786"
"A3S4N8VEMSDT2M","cs_wg_rev_mem_pilot2","3VFJCI1K4Z0S8X4XUPRZO0E1K5QRGT","37","0","WHISKER","5","THUMB","4","1","234",,,,,"0","2018-10-03 21:22:00","242787"
"A3S4N8VEMSDT2M","cs_wg_rev_mem_pilot2","3VFJCI1K4Z0S8X4XUPRZO0E1K5QRGT","38","0","PELICAN","4","CRICKET","5","0","30",,,,,"0","2018-10-03 21:22:01","242788"
"A3S4N8VEMSDT2M","cs_wg_rev_mem_pilot2","3VFJCI1K4Z0S8X4XUPRZO0E1K5QRGT","39","0","ISLAND","4","BUCKET","4","0","136",,,,,"0","2018-10-03 21:22:03","242789"
"A3S4N8VEMSDT2M","cs_wg_rev_mem_pilot2","3VFJCI1K4Z0S8X4XUPRZO0E1K5QRGT","40","0","DONKEY","3","PELICAN","4","0","55",,,,,"0","2018-10-03 21:22:04","242790"
"A3S4N8VEMSDT2M","cs_wg_rev_mem_pilot2","3VFJCI1K4Z0S8X4XUPRZO0E1K5QRGT","41","0","PALACE","3","PELICAN","4","0","47",,,,,"0","2018-10-03 21:22:06","242791"
"A2TCV4URAGNFEO","cs_wg_rev_mem_pilot2","3R2UR8A0IAH0X677R7AZIR9RC81XOH","59","0","WHISKER","5","LETTUCE","4","0","5661",,,,,"0","2018-10-03 21:22:06","242792"
"A3S4N8VEMSDT2M","cs_wg_rev_mem_pilot2","3VFJCI1K4Z0S8X4XUPRZO0E1K5QRGT","42","0","COLUMN","4","CRICKET","5","0","99",,,,,"0","2018-10-03 21:22:07","242793"
"A3S4N8VEMSDT2M","cs_wg_rev_mem_pilot2","3VFJCI1K4Z0S8X4XUPRZO0E1K5QRGT","43","0","CANCER","4","SUNBURN","5","0","133",,,,,"0","2018-10-03 21:22:08","242794"
"A3S4N8VEMSDT2M","cs_wg_rev_mem_pilot2","3VFJCI1K4Z0S8X4XUPRZO0E1K5QRGT","44","0","PALACE","3","CRICKET","5","0","159",,,,,"0","2018-10-03 21:22:10","242795"
