"subject","version","assignmentId","trial","trial_type","word","value","alt","choice","rt","resp","resp2","stamp","id"
"A21E07C6ILD4A","cs_wg_full_v2_pilot2","3NLZY2D53PQ8IO3YS1ZFW294YH6QL5","0","0","EARDRUM","11","6","1","6203","eardrum","11","2018-06-30 16:53:15","349142"
"A21E07C6ILD4A","cs_wg_full_v2_pilot2","3NLZY2D53PQ8IO3YS1ZFW294YH6QL5","1","0","BULLET","3","6","0","15686","BULLET","3","2018-06-30 16:53:44","349153"
"A21E07C6ILD4A","cs_wg_full_v2_pilot2","3NLZY2D53PQ8IO3YS1ZFW294YH6QL5","2","0","EARDRUM","11","6","0","3582","EARDRUM","11","2018-06-30 16:54:00","349160"
"A21E07C6ILD4A","cs_wg_full_v2_pilot2","3NLZY2D53PQ8IO3YS1ZFW294YH6QL5","3","0","ALMOND","2","6","1","6013","ALMOND","2","2018-06-30 16:54:24","349168"
"A21E07C6ILD4A","cs_wg_full_v2_pilot2","3NLZY2D53PQ8IO3YS1ZFW294YH6QL5","4","0","BULLET","3","6","1","4528","BULLET","3","2018-06-30 16:54:39","349174"
"A2QTFUJ1ON2ZR2","cs_wg_full_v2_pilot2","3VZLGYJEYLBCWALETGLGYPGVAT1XZS","0","0","ROYALTY","2","6","1","4643","Royalty","2","2018-06-30 16:54:43","349177"
"A3SHZQLYH7L1V4","cs_wg_full_v2_pilot2","3K5TEWLKGVCYXVR9TXWCA9GKY5RVIQ","0","0","BEAVER","3","6","0","4004","beaver","3","2018-06-30 16:54:49","349179"
"A342D4DOMDD3Q9","cs_wg_full_v2_pilot2","36WLNQG78ZB78CRHSXFLOIOL3K4BER","0","0","SMOKER","10","6","1","6657","smoker","10","2018-06-30 16:54:51","349180"
"A3EKKEZ21SGJEC","cs_wg_full_v2_pilot2","3IFS6Q0HJIKI53A5Z2R7ZMWDZ1XSII","0","0","KIDNEY","2","6","1","8398","kidney","2","2018-06-30 16:54:54","349183"
"A1OX59GGMHY1F3","cs_wg_full_v2_pilot2","33L7PJKHCGZQVXB7FGK6W2YLYO6T80","0","0","THRONE","1","6","1","8562","Throne","6","2018-06-30 16:54:55","349184"
"A21E07C6ILD4A","cs_wg_full_v2_pilot2","3NLZY2D53PQ8IO3YS1ZFW294YH6QL5","5","0","COSTUME","6","6","1","4621","COSTUME","6","2018-06-30 16:55:00","349188"
"A2QTFUJ1ON2ZR2","cs_wg_full_v2_pilot2","3VZLGYJEYLBCWALETGLGYPGVAT1XZS","1","0","SILVER","7","6","1","3114","silver","7","2018-06-30 16:55:02","349189"
"A342D4DOMDD3Q9","cs_wg_full_v2_pilot2","36WLNQG78ZB78CRHSXFLOIOL3K4BER","1","0","SUNBURN","12","6","0","3569","sunburn","12","2018-06-30 16:55:08","349191"
"A3SHZQLYH7L1V4","cs_wg_full_v2_pilot2","3K5TEWLKGVCYXVR9TXWCA9GKY5RVIQ","1","0","PICTURE","7","6","0","4792","picture","7","2018-06-30 16:55:08","349192"
"A3EKKEZ21SGJEC","cs_wg_full_v2_pilot2","3IFS6Q0HJIKI53A5Z2R7ZMWDZ1XSII","1","0","CHICKEN","1","6","0","4442","chicken","1","2018-06-30 16:55:12","349196"
"A1OX59GGMHY1F3","cs_wg_full_v2_pilot2","33L7PJKHCGZQVXB7FGK6W2YLYO6T80","1","0","PLANET","12","6","1","2487","planet","12","2018-06-30 16:55:13","349197"
"A21E07C6ILD4A","cs_wg_full_v2_pilot2","3NLZY2D53PQ8IO3YS1ZFW294YH6QL5","6","0","COFFEE","1","6","0","5343","COFFEE","1","2018-06-30 16:55:18","349200"
"A3SHZQLYH7L1V4","cs_wg_full_v2_pilot2","3K5TEWLKGVCYXVR9TXWCA9GKY5RVIQ","2","0","TONGUE","1","6","0","3020","tongue","1","2018-06-30 16:55:24","349203"
"A2QTFUJ1ON2ZR2","cs_wg_full_v2_pilot2","3VZLGYJEYLBCWALETGLGYPGVAT1XZS","2","0","JUNGLE","12","6","1","3135","jungle","12","2018-06-30 16:55:25","349204"
"A342D4DOMDD3Q9","cs_wg_full_v2_pilot2","36WLNQG78ZB78CRHSXFLOIOL3K4BER","2","0","SUNBURN","12","6","0","3830","sunburn","12","2018-06-30 16:55:26","349205"
"A3EKKEZ21SGJEC","cs_wg_full_v2_pilot2","3IFS6Q0HJIKI53A5Z2R7ZMWDZ1XSII","2","0","KIDNEY","2","6","1","4058","kidney","2","2018-06-30 16:55:28","349207"
"A1OX59GGMHY1F3","cs_wg_full_v2_pilot2","33L7PJKHCGZQVXB7FGK6W2YLYO6T80","2","0","BATTERY","4","6","1","5825","battery","4","2018-06-30 16:55:30","349208"
"A3SHZQLYH7L1V4","cs_wg_full_v2_pilot2","3K5TEWLKGVCYXVR9TXWCA9GKY5RVIQ","3","0","PICTURE","7","6","0","2214","picture","7","2018-06-30 16:55:35","349210"
"A1OX59GGMHY1F3","cs_wg_full_v2_pilot2","33L7PJKHCGZQVXB7FGK6W2YLYO6T80","3","0","JUNGLE","5","6","1","1302","jungle","5","2018-06-30 16:55:41","349216"
"A2QTFUJ1ON2ZR2","cs_wg_full_v2_pilot2","3VZLGYJEYLBCWALETGLGYPGVAT1XZS","3","0","PRIEST","8","6","1","3119","priest","8","2018-06-30 16:55:43","349217"
"A21E07C6ILD4A","cs_wg_full_v2_pilot2","3NLZY2D53PQ8IO3YS1ZFW294YH6QL5","7","0","COSTUME","6","6","0","12525","COSTUME","6","2018-06-30 16:55:44","349218"
"A3EKKEZ21SGJEC","cs_wg_full_v2_pilot2","3IFS6Q0HJIKI53A5Z2R7ZMWDZ1XSII","3","0","BARREL","8","6","0","2860","Barrel","8","2018-06-30 16:55:44","349219"
"A342D4DOMDD3Q9","cs_wg_full_v2_pilot2","36WLNQG78ZB78CRHSXFLOIOL3K4BER","3","0","PEACOCK","9","6","0","2566","peacock","9","2018-06-30 16:55:46","349220"
"A3SHZQLYH7L1V4","cs_wg_full_v2_pilot2","3K5TEWLKGVCYXVR9TXWCA9GKY5RVIQ","4","0","BEAVER","3","6","1","2800","beaver","3","2018-06-30 16:55:48","349223"
"A1OX59GGMHY1F3","cs_wg_full_v2_pilot2","33L7PJKHCGZQVXB7FGK6W2YLYO6T80","4","0","JUNGLE","5","6","1","5159","Jungle ","5","2018-06-30 16:55:58","349225"
"A21E07C6ILD4A","cs_wg_full_v2_pilot2","3NLZY2D53PQ8IO3YS1ZFW294YH6QL5","8","0","COSTUME","6","6","0","3628","COSTUME","56","2018-06-30 16:55:58","349227"
"A3SHZQLYH7L1V4","cs_wg_full_v2_pilot2","3K5TEWLKGVCYXVR9TXWCA9GKY5RVIQ","5","0","BULLET","2","6","0","2793","bullet","2","2018-06-30 16:55:58","349228"
"A3EKKEZ21SGJEC","cs_wg_full_v2_pilot2","3IFS6Q0HJIKI53A5Z2R7ZMWDZ1XSII","4","0","BAPTISM","7","6","1","3866","Baptism","7","2018-06-30 16:56:00","349230"
"A2QTFUJ1ON2ZR2","cs_wg_full_v2_pilot2","3VZLGYJEYLBCWALETGLGYPGVAT1XZS","4","0","CARROT","4","6","0","2238","carrot","4
4","2018-06-30 16:56:01","349232"
"A342D4DOMDD3Q9","cs_wg_full_v2_pilot2","36WLNQG78ZB78CRHSXFLOIOL3K4BER","4","0","ABDOMEN","3","6","0","3450","abdomen","3","2018-06-30 16:56:06","349233"
"A3SHZQLYH7L1V4","cs_wg_full_v2_pilot2","3K5TEWLKGVCYXVR9TXWCA9GKY5RVIQ","6","0","BEAVER","3","6","0","1449","beaver","3","2018-06-30 16:56:08","349234"
"A1OX59GGMHY1F3","cs_wg_full_v2_pilot2","33L7PJKHCGZQVXB7FGK6W2YLYO6T80","5","0","THRONE","1","6","1","2660","Throne","1","2018-06-30 16:56:09","349235"
"A38ENY014WTJHC","cs_wg_full_v2_pilot2","3VNXK88KKCJ5MUY6P3QZXGHHFF4V97","0","0","BARREL","2","6","0","10416","BARREL","2","2018-06-30 16:56:11","349237"
"A24UUWI8IIJKT6","cs_wg_full_v2_pilot2","34HJIJKLP5X4POSU88U8G861TNQV4B","0","0","DRAGON","11","6","0","5121","Dragon","11","2018-06-30 16:56:11","349238"
"A21E07C6ILD4A","cs_wg_full_v2_pilot2","3NLZY2D53PQ8IO3YS1ZFW294YH6QL5","9","0","PLANET","4","6","0","2904","PLANET","4","2018-06-30 16:56:11","349239"
"A3EKKEZ21SGJEC","cs_wg_full_v2_pilot2","3IFS6Q0HJIKI53A5Z2R7ZMWDZ1XSII","5","0","BAPTISM","7","6","0","3481","Baptism","7","2018-06-30 16:56:16","349243"
"A2QTFUJ1ON2ZR2","cs_wg_full_v2_pilot2","3VZLGYJEYLBCWALETGLGYPGVAT1XZS","5","0","SILVER","7","6","0","3736","silver","7","2018-06-30 16:56:17","349244"
"A3SHZQLYH7L1V4","cs_wg_full_v2_pilot2","3K5TEWLKGVCYXVR9TXWCA9GKY5RVIQ","7","0","PICKLE","6","6","0","1140","pickle","6","2018-06-30 16:56:18","349245"
"A1OX59GGMHY1F3","cs_wg_full_v2_pilot2","33L7PJKHCGZQVXB7FGK6W2YLYO6T80","6","0","BEAVER","7","6","1","1584","beaver ","7","2018-06-30 16:56:20","349247"
"A342D4DOMDD3Q9","cs_wg_full_v2_pilot2","36WLNQG78ZB78CRHSXFLOIOL3K4BER","5","0","BULLET","7","6","0","1840","bullet","7","2018-06-30 16:56:22","349248"
"A21E07C6ILD4A","cs_wg_full_v2_pilot2","3NLZY2D53PQ8IO3YS1ZFW294YH6QL5","10","0","PLANET","4","6","1","2863","PLANET","4","2018-06-30 16:56:27","349251"
"A2FJUGTKTCIB0","cs_wg_full_v2_pilot2","33UKMF9319L9TH3VIEV1NYU8C1RTTP","0","0","CHORUS","9","6","1","5145","Chorus","9","2018-06-30 16:56:27","349252"
"A3SHZQLYH7L1V4","cs_wg_full_v2_pilot2","3K5TEWLKGVCYXVR9TXWCA9GKY5RVIQ","8","0","SPIRAL","11","6","0","2565","spiral","11","2018-06-30 16:56:29","349255"
"A3EKKEZ21SGJEC","cs_wg_full_v2_pilot2","3IFS6Q0HJIKI53A5Z2R7ZMWDZ1XSII","6","0","BABOON","12","6","1","2690","Baboon","12","2018-06-30 16:56:30","349256"
"A24UUWI8IIJKT6","cs_wg_full_v2_pilot2","34HJIJKLP5X4POSU88U8G861TNQV4B","1","0","LIQUID","9","6","0","2910","Liquid","9","2018-06-30 16:56:31","349257"
"A38ENY014WTJHC","cs_wg_full_v2_pilot2","3VNXK88KKCJ5MUY6P3QZXGHHFF4V97","1","0","JAVELIN","11","6","0","7694","JAVELIN","11","2018-06-30 16:56:31","349258"
"A1OX59GGMHY1F3","cs_wg_full_v2_pilot2","33L7PJKHCGZQVXB7FGK6W2YLYO6T80","7","0","CASINO","10","6","1","3052","casino","10","2018-06-30 16:56:31","349259"
"A2QTFUJ1ON2ZR2","cs_wg_full_v2_pilot2","3VZLGYJEYLBCWALETGLGYPGVAT1XZS","6","0","BABOON","1","6","0","3936","baboon","1","2018-06-30 16:56:32","349261"
"A342D4DOMDD3Q9","cs_wg_full_v2_pilot2","36WLNQG78ZB78CRHSXFLOIOL3K4BER","6","0","PEANUT","5","6","0","2176","peanut","5","2018-06-30 16:56:39","349263"
"A3SHZQLYH7L1V4","cs_wg_full_v2_pilot2","3K5TEWLKGVCYXVR9TXWCA9GKY5RVIQ","9","0","PARENT","10","6","0","1907","parent","10","2018-06-30 16:56:39","349264"
"A3EKKEZ21SGJEC","cs_wg_full_v2_pilot2","3IFS6Q0HJIKI53A5Z2R7ZMWDZ1XSII","7","0","BARREL","8","6","0","2243","Barrel","8","2018-06-30 16:56:43","349266"
"A2FJUGTKTCIB0","cs_wg_full_v2_pilot2","33UKMF9319L9TH3VIEV1NYU8C1RTTP","1","0","PILLAR","3","6","0","4798","pillar","3","2018-06-30 16:56:43","349267"
"A1OX59GGMHY1F3","cs_wg_full_v2_pilot2","33L7PJKHCGZQVXB7FGK6W2YLYO6T80","8","0","SMOKER","3","6","1","1768","smoker","3","2018-06-30 16:56:43","349268"
"A21E07C6ILD4A","cs_wg_full_v2_pilot2","3NLZY2D53PQ8IO3YS1ZFW294YH6QL5","11","0","EARDRUM","11","6","0","3967","EARDRUM","11","2018-06-30 16:56:46","349272"
"A3SHZQLYH7L1V4","cs_wg_full_v2_pilot2","3K5TEWLKGVCYXVR9TXWCA9GKY5RVIQ","10","0","BULLET","2","6","1","3635","bullet","2","2018-06-30 16:56:50","349274"
"A2QTFUJ1ON2ZR2","cs_wg_full_v2_pilot2","3VZLGYJEYLBCWALETGLGYPGVAT1XZS","7","0","ANIMAL","6","6","1","2233","animal","6","2018-06-30 16:56:51","349275"
"A24UUWI8IIJKT6","cs_wg_full_v2_pilot2","34HJIJKLP5X4POSU88U8G861TNQV4B","2","0","PRIEST","2","6","1","3071","Priest","2","2018-06-30 16:56:52","349276"
"A1OX59GGMHY1F3","cs_wg_full_v2_pilot2","33L7PJKHCGZQVXB7FGK6W2YLYO6T80","9","0","MUFFIN","11","6","1","2345","muffin","11","2018-06-30 16:56:54","349277"
"A342D4DOMDD3Q9","cs_wg_full_v2_pilot2","36WLNQG78ZB78CRHSXFLOIOL3K4BER","7","0","SUNBURN","12","6","0","2228","sunburn","12","2018-06-30 16:56:54","349278"
"A3EKKEZ21SGJEC","cs_wg_full_v2_pilot2","3IFS6Q0HJIKI53A5Z2R7ZMWDZ1XSII","8","0","HERMIT","9","6","1","3139","Hermit","9","2018-06-30 16:56:56","349280"
"A2FJUGTKTCIB0","cs_wg_full_v2_pilot2","33UKMF9319L9TH3VIEV1NYU8C1RTTP","2","0","CELERY","7","6","1","3526","celery","7","2018-06-30 16:56:57","349281"
"A3SHZQLYH7L1V4","cs_wg_full_v2_pilot2","3K5TEWLKGVCYXVR9TXWCA9GKY5RVIQ","11","0","COFFIN","4","6","0","1273","coffin","4","2018-06-30 16:56:59","349283"
"A38ENY014WTJHC","cs_wg_full_v2_pilot2","3VNXK88KKCJ5MUY6P3QZXGHHFF4V97","2","0","GIRAFFE","1","6","0","9230","GIRAFFE","1","2018-06-30 16:57:00","349284"
"A1OX59GGMHY1F3","cs_wg_full_v2_pilot2","33L7PJKHCGZQVXB7FGK6W2YLYO6T80","10","0","CASINO","10","6","0","2385","casino","10","2018-06-30 16:57:06","349288"
"A2QTFUJ1ON2ZR2","cs_wg_full_v2_pilot2","3VZLGYJEYLBCWALETGLGYPGVAT1XZS","8","0","PENGUIN","11","6","1","2223","penguin","11","2018-06-30 16:57:06","349289"
"A342D4DOMDD3Q9","cs_wg_full_v2_pilot2","36WLNQG78ZB78CRHSXFLOIOL3K4BER","8","0","ABDOMEN","3","6","1","3915","abdomen","3","2018-06-30 16:57:08","349290"
"A21E07C6ILD4A","cs_wg_full_v2_pilot2","3NLZY2D53PQ8IO3YS1ZFW294YH6QL5","12","0","COSTUME","6","6","1","6762","COSTUME","6","2018-06-30 16:57:08","349291"
"A3EKKEZ21SGJEC","cs_wg_full_v2_pilot2","3IFS6Q0HJIKI53A5Z2R7ZMWDZ1XSII","9","0","HEAVEN","4","6","0","2780","Heaven","4","2018-06-30 16:57:10","349293"
"A3SHZQLYH7L1V4","cs_wg_full_v2_pilot2","3K5TEWLKGVCYXVR9TXWCA9GKY5RVIQ","12","0","PARENT","10","6","0","4048","parent","10","2018-06-30 16:57:10","349294"
"A24UUWI8IIJKT6","cs_wg_full_v2_pilot2","34HJIJKLP5X4POSU88U8G861TNQV4B","3","0","THRONE","4","6","1","2681","Throne ","4","2018-06-30 16:57:11","349295"
"A2FJUGTKTCIB0","cs_wg_full_v2_pilot2","33UKMF9319L9TH3VIEV1NYU8C1RTTP","3","0","CHORUS","9","6","0","4077","chorus","9","2018-06-30 16:57:14","349298"
"A38ENY014WTJHC","cs_wg_full_v2_pilot2","3VNXK88KKCJ5MUY6P3QZXGHHFF4V97","3","0","CABINET","6","6","0","2857","CABINET","6","2018-06-30 16:57:16","349300"
"A1OX59GGMHY1F3","cs_wg_full_v2_pilot2","33L7PJKHCGZQVXB7FGK6W2YLYO6T80","11","0","JAVELIN","9","6","1","1712","javenlin","9","2018-06-30 16:57:17","349301"
"A3SHZQLYH7L1V4","cs_wg_full_v2_pilot2","3K5TEWLKGVCYXVR9TXWCA9GKY5RVIQ","13","0","DEMON","9","6","0","1540","demon","9","2018-06-30 16:57:19","349302"
"A2QTFUJ1ON2ZR2","cs_wg_full_v2_pilot2","3VZLGYJEYLBCWALETGLGYPGVAT1XZS","9","0","WALNUT","10","6","1","1604","walnut","10","2018-06-30 16:57:20","349304"
"A3EKKEZ21SGJEC","cs_wg_full_v2_pilot2","3IFS6Q0HJIKI53A5Z2R7ZMWDZ1XSII","10","0","BARREL","8","6","0","1507","Barrel","8","2018-06-30 16:57:21","349305"
"A1Z0ECR2X12MPW","cs_wg_full_v2_pilot2","3NJM2BJS4W7UF88DFBRRTET7ZC6PCX","0","0","SPONGE","5","6","1","6156","sponge","5","2018-06-30 16:57:25","349307"
"A342D4DOMDD3Q9","cs_wg_full_v2_pilot2","36WLNQG78ZB78CRHSXFLOIOL3K4BER","9","0","BATTERY","6","6","0","2797","battery","6","2018-06-30 16:57:25","349308"
"A21E07C6ILD4A","cs_wg_full_v2_pilot2","3NLZY2D53PQ8IO3YS1ZFW294YH6QL5","13","0","CELERY","9","6","0","5664","CELERY","11","2018-06-30 16:57:28","349311"
"A3SHZQLYH7L1V4","cs_wg_full_v2_pilot2","3K5TEWLKGVCYXVR9TXWCA9GKY5RVIQ","14","0","PICTURE","7","6","1","2622","picture","7","2018-06-30 16:57:29","349312"
"A2FJUGTKTCIB0","cs_wg_full_v2_pilot2","33UKMF9319L9TH3VIEV1NYU8C1RTTP","4","0","CHIMNEY","12","6","0","2392","chimney","12","2018-06-30 16:57:29","349313"
"A24UUWI8IIJKT6","cs_wg_full_v2_pilot2","34HJIJKLP5X4POSU88U8G861TNQV4B","4","0","ROYALTY","5","6","0","2036","Royalty","5","2018-06-30 16:57:30","349314"
"A1OX59GGMHY1F3","cs_wg_full_v2_pilot2","33L7PJKHCGZQVXB7FGK6W2YLYO6T80","12","0","JUNGLE","5","6","1","2167","jungle","5","2018-06-30 16:57:30","349315"
"A2QTFUJ1ON2ZR2","cs_wg_full_v2_pilot2","3VZLGYJEYLBCWALETGLGYPGVAT1XZS","10","0","PRIEST","8","6","0","3422","priest","8","2018-06-30 16:57:33","349318"
"A38ENY014WTJHC","cs_wg_full_v2_pilot2","3VNXK88KKCJ5MUY6P3QZXGHHFF4V97","4","0","DRAGON","8","6","0","1647","DRAGON","8","2018-06-30 16:57:33","349319"
"A3EKKEZ21SGJEC","cs_wg_full_v2_pilot2","3IFS6Q0HJIKI53A5Z2R7ZMWDZ1XSII","11","0","BABOON","12","6","0","2100","Baboon","12","2018-06-30 16:57:34","349320"
"A3SHZQLYH7L1V4","cs_wg_full_v2_pilot2","3K5TEWLKGVCYXVR9TXWCA9GKY5RVIQ","15","0","BEAVER","3","6","1","1971","beaver","3","2018-06-30 16:57:38","349321"
"A342D4DOMDD3Q9","cs_wg_full_v2_pilot2","36WLNQG78ZB78CRHSXFLOIOL3K4BER","10","0","BATTERY","6","6","1","3826","battery","6","2018-06-30 16:57:39","349323"
"A2FJUGTKTCIB0","cs_wg_full_v2_pilot2","33UKMF9319L9TH3VIEV1NYU8C1RTTP","5","0","PILLAR","3","6","0","2773","pillar","3","2018-06-30 16:57:41","349325"
"A2QTFUJ1ON2ZR2","cs_wg_full_v2_pilot2","3VZLGYJEYLBCWALETGLGYPGVAT1XZS","11","0","JUNGLE","12","6","0","2478","jungle","12","2018-06-30 16:57:42","349326"
"A1Z0ECR2X12MPW","cs_wg_full_v2_pilot2","3NJM2BJS4W7UF88DFBRRTET7ZC6PCX","1","0","PARENT","12","6","1","5230","parent","12","2018-06-30 16:57:44","349328"
"A3EKKEZ21SGJEC","cs_wg_full_v2_pilot2","3IFS6Q0HJIKI53A5Z2R7ZMWDZ1XSII","12","0","HERMIT","9","6","0","2050","Hermit","9","2018-06-30 16:57:46","349329"
"A3SHZQLYH7L1V4","cs_wg_full_v2_pilot2","3K5TEWLKGVCYXVR9TXWCA9GKY5RVIQ","16","0","PICKLE","6","6","0","1562","pickle","6","2018-06-30 16:57:47","349330"
"A24UUWI8IIJKT6","cs_wg_full_v2_pilot2","34HJIJKLP5X4POSU88U8G861TNQV4B","5","0","CHICKEN","6","6","1","2321","Chicken","6","2018-06-30 16:57:50","349331"
"A2QTFUJ1ON2ZR2","cs_wg_full_v2_pilot2","3VZLGYJEYLBCWALETGLGYPGVAT1XZS","12","0","ROYALTY","2","6","1","3093","royalty","2","2018-06-30 16:57:51","349333"
"A21E07C6ILD4A","cs_wg_full_v2_pilot2","3NLZY2D53PQ8IO3YS1ZFW294YH6QL5","14","0","EARDRUM","11","6","0","8388","EARDRUME","11","2018-06-30 16:57:52","349334"
"A38ENY014WTJHC","cs_wg_full_v2_pilot2","3VNXK88KKCJ5MUY6P3QZXGHHFF4V97","5","0","CABINET","6","6","1","4232","CABINET","6","2018-06-30 16:57:52","349335"
"A342D4DOMDD3Q9","cs_wg_full_v2_pilot2","36WLNQG78ZB78CRHSXFLOIOL3K4BER","11","0","DRAGON","1","6","0","1631","dragon","1","2018-06-30 16:57:52","349336"
"A1OX59GGMHY1F3","cs_wg_full_v2_pilot2","33L7PJKHCGZQVXB7FGK6W2YLYO6T80","13","0","BATTERY","4","6","1","9604","battery","4","2018-06-30 16:57:54","349337"
"A2FJUGTKTCIB0","cs_wg_full_v2_pilot2","33UKMF9319L9TH3VIEV1NYU8C1RTTP","6","0","COSTUME","4","6","1","2918","costume","4","2018-06-30 16:57:54","349338"
"A3SHZQLYH7L1V4","cs_wg_full_v2_pilot2","3K5TEWLKGVCYXVR9TXWCA9GKY5RVIQ","17","0","SPIRAL","11","6","0","1364","spiral","11","2018-06-30 16:57:56","349341"
"AGR032RZW1C76","cs_wg_full_v2_pilot2","3FPRZHYEPY8J7S9Q8UPP63EVFNUV3Q","0","0","JUNGLE","4","6","0","16815","Jungle","4","2018-06-30 16:57:58","349343"
"A1Z0ECR2X12MPW","cs_wg_full_v2_pilot2","3NJM2BJS4W7UF88DFBRRTET7ZC6PCX","2","0","DRAGON","4","6","0","2715","dragon","4","2018-06-30 16:57:59","349344"
"A3EKKEZ21SGJEC","cs_wg_full_v2_pilot2","3IFS6Q0HJIKI53A5Z2R7ZMWDZ1XSII","13","0","LIQUID","3","6","1","4083","Liquid","3","2018-06-30 16:57:59","349346"
"A2QTFUJ1ON2ZR2","cs_wg_full_v2_pilot2","3VZLGYJEYLBCWALETGLGYPGVAT1XZS","13","0","BABOON","1","6","1","5657","baboon","1","2018-06-30 16:58:04","349347"
"A3SHZQLYH7L1V4","cs_wg_full_v2_pilot2","3K5TEWLKGVCYXVR9TXWCA9GKY5RVIQ","18","0","WALNUT","12","6","0","1326","walnut","12","2018-06-30 16:58:04","349348"
"A2FJUGTKTCIB0","cs_wg_full_v2_pilot2","33UKMF9319L9TH3VIEV1NYU8C1RTTP","7","0","THRONE","2","6","0","1658","throne","2","2018-06-30 16:58:04","349349"
"A1OX59GGMHY1F3","cs_wg_full_v2_pilot2","33L7PJKHCGZQVXB7FGK6W2YLYO6T80","14","0","SPATULA","6","6","1","2262","spatula","6","2018-06-30 16:58:05","349350"
"A342D4DOMDD3Q9","cs_wg_full_v2_pilot2","36WLNQG78ZB78CRHSXFLOIOL3K4BER","12","0","PEANUT","5","6","1","3867","peanut","5","2018-06-30 16:58:06","349351"
"A21E07C6ILD4A","cs_wg_full_v2_pilot2","3NLZY2D53PQ8IO3YS1ZFW294YH6QL5","15","0","COSTUME","6","6","0","3415","COSTUME","6","2018-06-30 16:58:08","349352"
"A38ENY014WTJHC","cs_wg_full_v2_pilot2","3VNXK88KKCJ5MUY6P3QZXGHHFF4V97","6","0","BARREL","2","6","0","1535","BARREL","2","2018-06-30 16:58:09","349353"
"A3SHZQLYH7L1V4","cs_wg_full_v2_pilot2","3K5TEWLKGVCYXVR9TXWCA9GKY5RVIQ","19","0","DOMINO","5","6","0","1100","domino","5","2018-06-30 16:58:11","349355"
"A2QTFUJ1ON2ZR2","cs_wg_full_v2_pilot2","3VZLGYJEYLBCWALETGLGYPGVAT1XZS","14","0","PENGUIN","11","6","0","2040","penguin","11","2018-06-30 16:58:12","349358"
"A3EKKEZ21SGJEC","cs_wg_full_v2_pilot2","3IFS6Q0HJIKI53A5Z2R7ZMWDZ1XSII","14","0","HEAVEN","4","6","1","2243","Heaven","4","2018-06-30 16:58:13","349359"
"A1Z0ECR2X12MPW","cs_wg_full_v2_pilot2","3NJM2BJS4W7UF88DFBRRTET7ZC6PCX","3","0","DOLLAR","9","6","1","2723","dollar","9","2018-06-30 16:58:13","349360"
"A2FJUGTKTCIB0","cs_wg_full_v2_pilot2","33UKMF9319L9TH3VIEV1NYU8C1RTTP","8","0","GIRAFFE","10","6","0","2302","giraffe","10","2018-06-30 16:58:17","349363"
"AGR032RZW1C76","cs_wg_full_v2_pilot2","3FPRZHYEPY8J7S9Q8UPP63EVFNUV3Q","1","0","WALRUS","6","6","0","5875","Walrus","6","2018-06-30 16:58:18","349365"
"A24UUWI8IIJKT6","cs_wg_full_v2_pilot2","34HJIJKLP5X4POSU88U8G861TNQV4B","6","0","BAGPIPE","8","6","1","9507","Bagpipe","8","2018-06-30 16:58:19","349366"
"A3SHZQLYH7L1V4","cs_wg_full_v2_pilot2","3K5TEWLKGVCYXVR9TXWCA9GKY5RVIQ","20","0","BULLET","2","6","1","1968","bullet","2","2018-06-30 16:58:20","349367"
"A1OX59GGMHY1F3","cs_wg_full_v2_pilot2","33L7PJKHCGZQVXB7FGK6W2YLYO6T80","15","0","BATTERY","4","6","1","7118","battery","4","2018-06-30 16:58:21","349368"
"A2QTFUJ1ON2ZR2","cs_wg_full_v2_pilot2","3VZLGYJEYLBCWALETGLGYPGVAT1XZS","15","0","PENGUIN","11","6","0","2070","penguin","11","2018-06-30 16:58:21","349369"
"A342D4DOMDD3Q9","cs_wg_full_v2_pilot2","36WLNQG78ZB78CRHSXFLOIOL3K4BER","13","0","EARDRUM","8","6","0","1868","eardrum","8","2018-06-30 16:58:24","349370"
"A38ENY014WTJHC","cs_wg_full_v2_pilot2","3VNXK88KKCJ5MUY6P3QZXGHHFF4V97","7","0","PICTURE","4","6","0","1812","PICTURE","4","2018-06-30 16:58:25","349372"
"A3EKKEZ21SGJEC","cs_wg_full_v2_pilot2","3IFS6Q0HJIKI53A5Z2R7ZMWDZ1XSII","15","0","BAPTISM","7","6","0","3285","Baptism","7","2018-06-30 16:58:27","349375"
"A21E07C6ILD4A","cs_wg_full_v2_pilot2","3NLZY2D53PQ8IO3YS1ZFW294YH6QL5","16","0","BAPTISM","12","6","0","4001","BAPTISM","12","2018-06-30 16:58:28","349377"
"A3SHZQLYH7L1V4","cs_wg_full_v2_pilot2","3K5TEWLKGVCYXVR9TXWCA9GKY5RVIQ","21","0","SPIRAL","11","6","0","852","spiral","11","2018-06-30 16:58:28","349378"
"A1Z0ECR2X12MPW","cs_wg_full_v2_pilot2","3NJM2BJS4W7UF88DFBRRTET7ZC6PCX","4","0","SUNBURN","11","6","1","3242","sunburn","11","2018-06-30 16:58:29","349380"
"A2FJUGTKTCIB0","cs_wg_full_v2_pilot2","33UKMF9319L9TH3VIEV1NYU8C1RTTP","9","0","TONGUE","11","6","0","2558","tongue","11","2018-06-30 16:58:30","349381"
"A2QTFUJ1ON2ZR2","cs_wg_full_v2_pilot2","3VZLGYJEYLBCWALETGLGYPGVAT1XZS","16","0","BABOON","1","6","1","2145","baboon","1","2018-06-30 16:58:31","349382"
"A1OX59GGMHY1F3","cs_wg_full_v2_pilot2","33L7PJKHCGZQVXB7FGK6W2YLYO6T80","16","0","SMOKER","3","6","1","3880","smoker","3","2018-06-30 16:58:35","349383"
"A3SHZQLYH7L1V4","cs_wg_full_v2_pilot2","3K5TEWLKGVCYXVR9TXWCA9GKY5RVIQ","22","0","WALNUT","12","6","0","1063","walnut","12","2018-06-30 16:58:36","349386"
"A24UUWI8IIJKT6","cs_wg_full_v2_pilot2","34HJIJKLP5X4POSU88U8G861TNQV4B","7","0","PRIEST","2","6","1","6776","Priest","2","2018-06-30 16:58:36","349387"
"A342D4DOMDD3Q9","cs_wg_full_v2_pilot2","36WLNQG78ZB78CRHSXFLOIOL3K4BER","14","0","EARDRUM","8","6","0","2741","eardrum","8","2018-06-30 16:58:37","349388"
"A2QTFUJ1ON2ZR2","cs_wg_full_v2_pilot2","3VZLGYJEYLBCWALETGLGYPGVAT1XZS","17","0","PRIEST","8","6","0","3476","priest","8","2018-06-30 16:58:41","349390"
"A3EKKEZ21SGJEC","cs_wg_full_v2_pilot2","3IFS6Q0HJIKI53A5Z2R7ZMWDZ1XSII","16","0","KIDNEY","2","6","1","3916","Kidney","2","2018-06-30 16:58:41","349391"
"A1Z0ECR2X12MPW","cs_wg_full_v2_pilot2","3NJM2BJS4W7UF88DFBRRTET7ZC6PCX","5","0","SUNBURN","11","6","0","2155","sunburn","11","2018-06-30 16:58:41","349392"
"A2FJUGTKTCIB0","cs_wg_full_v2_pilot2","33UKMF9319L9TH3VIEV1NYU8C1RTTP","10","0","CHIMNEY","12","6","0","2494","chimney","12","2018-06-30 16:58:42","349393"
"AGR032RZW1C76","cs_wg_full_v2_pilot2","3FPRZHYEPY8J7S9Q8UPP63EVFNUV3Q","2","0","BUCKET","3","6","1","13164","Bucket","3","2018-06-30 16:58:43","349395"
"A3SHZQLYH7L1V4","cs_wg_full_v2_pilot2","3K5TEWLKGVCYXVR9TXWCA9GKY5RVIQ","23","0","BULLET","2","6","1","1641","bullet","2","2018-06-30 16:58:44","349397"
"A21E07C6ILD4A","cs_wg_full_v2_pilot2","3NLZY2D53PQ8IO3YS1ZFW294YH6QL5","17","0","BAPTISM","12","6","0","2984","BAPTISM","12","2018-06-30 16:58:47","349400"
"A24UUWI8IIJKT6","cs_wg_full_v2_pilot2","34HJIJKLP5X4POSU88U8G861TNQV4B","8","0","LIQUID","9","6","0","4061","Liquid","9","2018-06-30 16:58:48","349401"
"A1OX59GGMHY1F3","cs_wg_full_v2_pilot2","33L7PJKHCGZQVXB7FGK6W2YLYO6T80","17","0","MUFFIN","11","6","1","6884","muffin","11","2018-06-30 16:58:52","349403"
"A3EKKEZ21SGJEC","cs_wg_full_v2_pilot2","3IFS6Q0HJIKI53A5Z2R7ZMWDZ1XSII","17","0","WAFFLE","11","6","0","2236","Waffle","11","2018-06-30 16:58:53","349404"
"A2FJUGTKTCIB0","cs_wg_full_v2_pilot2","33UKMF9319L9TH3VIEV1NYU8C1RTTP","11","0","CANVAS","5","6","1","2266","canvas","5","2018-06-30 16:58:55","349405"
"A1Z0ECR2X12MPW","cs_wg_full_v2_pilot2","3NJM2BJS4W7UF88DFBRRTET7ZC6PCX","6","0","HERMIT","7","6","1","1891","hermit","7","2018-06-30 16:58:56","349407"
"A2QTFUJ1ON2ZR2","cs_wg_full_v2_pilot2","3VZLGYJEYLBCWALETGLGYPGVAT1XZS","18","0","ADDICT","9","6","1","1690","addict","9","2018-06-30 16:58:57","349408"
"A3SHZQLYH7L1V4","cs_wg_full_v2_pilot2","3K5TEWLKGVCYXVR9TXWCA9GKY5RVIQ","24","0","DEMON","9","6","1","2211","demon","9","2018-06-30 16:58:58","349409"
"A38ENY014WTJHC","cs_wg_full_v2_pilot2","3VNXK88KKCJ5MUY6P3QZXGHHFF4V97","8","0","FIREMAN","5","6","0","23633","FIREMAN","5","2018-06-30 16:59:00","349410"
"A342D4DOMDD3Q9","cs_wg_full_v2_pilot2","36WLNQG78ZB78CRHSXFLOIOL3K4BER","15","0","DOMINO","4","6","0","1636","domino","4","2018-06-30 16:59:02","349413"
"A24UUWI8IIJKT6","cs_wg_full_v2_pilot2","34HJIJKLP5X4POSU88U8G861TNQV4B","9","0","ROYALTY","5","6","1","4874","Royalty","5","2018-06-30 16:59:04","349415"
"AGR032RZW1C76","cs_wg_full_v2_pilot2","3FPRZHYEPY8J7S9Q8UPP63EVFNUV3Q","3","0","PRIEST","9","6","1","7089","Priest","9","2018-06-30 16:59:04","349416"
"A1Z0ECR2X12MPW","cs_wg_full_v2_pilot2","3NJM2BJS4W7UF88DFBRRTET7ZC6PCX","7","0","PARENT","12","6","0","2116","parent ","12","2018-06-30 16:59:05","349417"
"A3EKKEZ21SGJEC","cs_wg_full_v2_pilot2","3IFS6Q0HJIKI53A5Z2R7ZMWDZ1XSII","18","0","CHICKEN","1","6","1","2323","chicken","1","2018-06-30 16:59:06","349418"
"A3SHZQLYH7L1V4","cs_wg_full_v2_pilot2","3K5TEWLKGVCYXVR9TXWCA9GKY5RVIQ","25","0","BULLET","2","6","1","2249","bullet","2","2018-06-30 16:59:07","349419"
"A2QTFUJ1ON2ZR2","cs_wg_full_v2_pilot2","3VZLGYJEYLBCWALETGLGYPGVAT1XZS","19","0","JUNGLE","12","6","0","3136","jungle","12","2018-06-30 16:59:08","349420"
"A24UUWI8IIJKT6","cs_wg_full_v2_pilot2","34HJIJKLP5X4POSU88U8G861TNQV4B","10","0","PRIEST","2","6","1","1937","Priest","2","2018-06-30 16:59:13","349423"
"A3SHZQLYH7L1V4","cs_wg_full_v2_pilot2","3K5TEWLKGVCYXVR9TXWCA9GKY5RVIQ","26","0","BEAVER","3","6","1","3058","beaver","3","2018-06-30 16:59:16","349426"
"A2FJUGTKTCIB0","cs_wg_full_v2_pilot2","33UKMF9319L9TH3VIEV1NYU8C1RTTP","12","0","PILLAR","3","6","1","11021","pillar","3","2018-06-30 16:59:16","349427"
"A38ENY014WTJHC","cs_wg_full_v2_pilot2","3VNXK88KKCJ5MUY6P3QZXGHHFF4V97","9","0","SHIVER","9","6","0","5650","SHIVER","9","2018-06-30 16:59:17","349429"
"A1Z0ECR2X12MPW","cs_wg_full_v2_pilot2","3NJM2BJS4W7UF88DFBRRTET7ZC6PCX","8","0","SUNBURN","11","6","0","2305","sunburn","11","2018-06-30 16:59:18","349430"
"A342D4DOMDD3Q9","cs_wg_full_v2_pilot2","36WLNQG78ZB78CRHSXFLOIOL3K4BER","16","0","EARDRUM","8","6","0","6986","eardrum","8","2018-06-30 16:59:18","349431"
"A3EKKEZ21SGJEC","cs_wg_full_v2_pilot2","3IFS6Q0HJIKI53A5Z2R7ZMWDZ1XSII","19","0","BARREL","8","6","0","2325","Barrel","8","2018-06-30 16:59:18","349432"
"A21E07C6ILD4A","cs_wg_full_v2_pilot2","3NLZY2D53PQ8IO3YS1ZFW294YH6QL5","18","0","BAPTISM","12","6","0","14120","BAPTISM","12","2018-06-30 16:59:18","349433"
"A1OX59GGMHY1F3","cs_wg_full_v2_pilot2","33L7PJKHCGZQVXB7FGK6W2YLYO6T80","18","0","BATTERY","4","6","0","13881","battery","4","2018-06-30 16:59:21","349435"
"A3SHZQLYH7L1V4","cs_wg_full_v2_pilot2","3K5TEWLKGVCYXVR9TXWCA9GKY5RVIQ","27","0","DOMINO","5","6","0","1275","domino","5","2018-06-30 16:59:24","349438"
"AGR032RZW1C76","cs_wg_full_v2_pilot2","3FPRZHYEPY8J7S9Q8UPP63EVFNUV3Q","4","0","PRIEST","9","6","0","5245","Priest","9","2018-06-30 16:59:26","349439"
"A2FJUGTKTCIB0","cs_wg_full_v2_pilot2","33UKMF9319L9TH3VIEV1NYU8C1RTTP","13","0","ANIMAL","6","6","0","2309","animal","6","2018-06-30 16:59:27","349440"
"A2QTFUJ1ON2ZR2","cs_wg_full_v2_pilot2","3VZLGYJEYLBCWALETGLGYPGVAT1XZS","20","0","ANIMAL","6","6","1","12372","animal","6","2018-06-30 16:59:28","349442"
"A1Z0ECR2X12MPW","cs_wg_full_v2_pilot2","3NJM2BJS4W7UF88DFBRRTET7ZC6PCX","9","0","DRAGON","4","6","1","3555","dragon","4","2018-06-30 16:59:29","349443"
"A3EKKEZ21SGJEC","cs_wg_full_v2_pilot2","3IFS6Q0HJIKI53A5Z2R7ZMWDZ1XSII","20","0","HERMIT","9","6","0","3508","Hermit","9","2018-06-30 16:59:31","349445"
"A342D4DOMDD3Q9","cs_wg_full_v2_pilot2","36WLNQG78ZB78CRHSXFLOIOL3K4BER","17","0","CANVAS","11","6","0","1437","canvas","11","2018-06-30 16:59:31","349446"
"A3SHZQLYH7L1V4","cs_wg_full_v2_pilot2","3K5TEWLKGVCYXVR9TXWCA9GKY5RVIQ","28","0","SPIRAL","11","6","0","773","spiral","11","2018-06-30 16:59:32","349448"
"A24UUWI8IIJKT6","cs_wg_full_v2_pilot2","34HJIJKLP5X4POSU88U8G861TNQV4B","11","0","CHORUS","7","6","0","2087","Chorus","7","2018-06-30 16:59:33","349449"
"A1OX59GGMHY1F3","cs_wg_full_v2_pilot2","33L7PJKHCGZQVXB7FGK6W2YLYO6T80","19","0","BEAVER","7","6","1","1535","beaver","11","2018-06-30 16:59:34","349450"
"A21E07C6ILD4A","cs_wg_full_v2_pilot2","3NLZY2D53PQ8IO3YS1ZFW294YH6QL5","19","0","FIREMAN","7","6","1","3358","FIREMAN","7","2018-06-30 16:59:34","349451"
"A2FJUGTKTCIB0","cs_wg_full_v2_pilot2","33UKMF9319L9TH3VIEV1NYU8C1RTTP","14","0","CELERY","7","6","0","2621","celery","7","2018-06-30 16:59:38","349454"
"A38ENY014WTJHC","cs_wg_full_v2_pilot2","3VNXK88KKCJ5MUY6P3QZXGHHFF4V97","10","0","PICTURE","4","6","1","5848","PICTURE","4","2018-06-30 16:59:39","349456"
"AGR032RZW1C76","cs_wg_full_v2_pilot2","3FPRZHYEPY8J7S9Q8UPP63EVFNUV3Q","5","0","PRIEST","9","6","0","3504","Priest","9","2018-06-30 16:59:42","349458"
"A3SHZQLYH7L1V4","cs_wg_full_v2_pilot2","3K5TEWLKGVCYXVR9TXWCA9GKY5RVIQ","29","0","PARENT","10","6","0","2431","parent","10","2018-06-30 16:59:42","349459"
"A24UUWI8IIJKT6","cs_wg_full_v2_pilot2","34HJIJKLP5X4POSU88U8G861TNQV4B","12","0","ROYALTY","5","6","1","1718","Royalty","5","2018-06-30 16:59:43","349460"
"A3EKKEZ21SGJEC","cs_wg_full_v2_pilot2","3IFS6Q0HJIKI53A5Z2R7ZMWDZ1XSII","21","0","BARREL","8","6","0","1611","Barrel","8","2018-06-30 16:59:44","349461"
"A2QTFUJ1ON2ZR2","cs_wg_full_v2_pilot2","3VZLGYJEYLBCWALETGLGYPGVAT1XZS","21","0","PRIEST","8","6","0","6400","priest","8","2018-06-30 16:59:44","349462"
"A1OX59GGMHY1F3","cs_wg_full_v2_pilot2","33L7PJKHCGZQVXB7FGK6W2YLYO6T80","20","0","SPATULA","6","6","1","1686","spatula","6","2018-06-30 16:59:44","349463"
"A1Z0ECR2X12MPW","cs_wg_full_v2_pilot2","3NJM2BJS4W7UF88DFBRRTET7ZC6PCX","10","0","THRONE","2","6","1","4514","throne","2","2018-06-30 16:59:45","349464"
"A21E07C6ILD4A","cs_wg_full_v2_pilot2","3NLZY2D53PQ8IO3YS1ZFW294YH6QL5","20","0","PLANET","4","6","1","2483","PLANET","4","2018-06-30 16:59:46","349466"
"A342D4DOMDD3Q9","cs_wg_full_v2_pilot2","36WLNQG78ZB78CRHSXFLOIOL3K4BER","18","0","EARDRUM","8","6","0","4395","eardrum","8","2018-06-30 16:59:48","349468"
"A3SHZQLYH7L1V4","cs_wg_full_v2_pilot2","3K5TEWLKGVCYXVR9TXWCA9GKY5RVIQ","30","0","WALNUT","12","6","0","780","walnut","12","2018-06-30 16:59:50","349471"
"A2FJUGTKTCIB0","cs_wg_full_v2_pilot2","33UKMF9319L9TH3VIEV1NYU8C1RTTP","15","0","TONGUE","11","6","0","3070","tongue","11","2018-06-30 16:59:50","349472"
"A2QTFUJ1ON2ZR2","cs_wg_full_v2_pilot2","3VZLGYJEYLBCWALETGLGYPGVAT1XZS","22","0","PRIEST","8","6","0","1791","priest","8","2018-06-30 16:59:53","349473"
"A3EKKEZ21SGJEC","cs_wg_full_v2_pilot2","3IFS6Q0HJIKI53A5Z2R7ZMWDZ1XSII","22","0","HEAVEN","4","6","1","1979","heaven","4","2018-06-30 16:59:55","349475"
"A24UUWI8IIJKT6","cs_wg_full_v2_pilot2","34HJIJKLP5X4POSU88U8G861TNQV4B","13","0","THRONE","4","6","0","2523","Throne ","4","2018-06-30 16:59:56","349477"
"A3SHZQLYH7L1V4","cs_wg_full_v2_pilot2","3K5TEWLKGVCYXVR9TXWCA9GKY5RVIQ","31","0","ALMOND","8","6","0","1111","almond","8","2018-06-30 16:59:58","349478"
"A38ENY014WTJHC","cs_wg_full_v2_pilot2","3VNXK88KKCJ5MUY6P3QZXGHHFF4V97","11","0","CAMERA","10","6","0","2042","CAMERA","10","2018-06-30 16:59:59","349479"
"A2QTFUJ1ON2ZR2","cs_wg_full_v2_pilot2","3VZLGYJEYLBCWALETGLGYPGVAT1XZS","23","0","PENGUIN","11","6","0","2586","penguin","11","2018-06-30 17:00:01","349481"
"AGR032RZW1C76","cs_wg_full_v2_pilot2","3FPRZHYEPY8J7S9Q8UPP63EVFNUV3Q","6","0","PEACOCK","5","6","1","6902","peacock","5","2018-06-30 17:00:01","349482"
"A2FJUGTKTCIB0","cs_wg_full_v2_pilot2","33UKMF9319L9TH3VIEV1NYU8C1RTTP","16","0","GIRAFFE","10","6","0","2418","giraffe","10","2018-06-30 17:00:01","349483"
"A1Z0ECR2X12MPW","cs_wg_full_v2_pilot2","3NJM2BJS4W7UF88DFBRRTET7ZC6PCX","11","0","ADDICT","10","6","0","2946","addict","10","2018-06-30 17:00:02","349484"
"A21E07C6ILD4A","cs_wg_full_v2_pilot2","3NLZY2D53PQ8IO3YS1ZFW294YH6QL5","21","0","BAPTISM","12","6","0","2999","BAPTISM","12","2018-06-30 17:00:03","349486"
"A342D4DOMDD3Q9","cs_wg_full_v2_pilot2","36WLNQG78ZB78CRHSXFLOIOL3K4BER","19","0","PEANUT","5","6","0","3964","peanut","5","2018-06-30 17:00:04","349487"
"A3EKKEZ21SGJEC","cs_wg_full_v2_pilot2","3IFS6Q0HJIKI53A5Z2R7ZMWDZ1XSII","23","0","HERMIT","9","6","0","1596","Hermit","9","2018-06-30 17:00:06","349490"
"A3SHZQLYH7L1V4","cs_wg_full_v2_pilot2","3K5TEWLKGVCYXVR9TXWCA9GKY5RVIQ","32","0","ALMOND","8","6","0","906","almond","8","2018-06-30 17:00:08","349492"
"A2QTFUJ1ON2ZR2","cs_wg_full_v2_pilot2","3VZLGYJEYLBCWALETGLGYPGVAT1XZS","24","0","ADDICT","9","6","0","3449","addict","9","2018-06-30 17:00:11","349493"
"A1Z0ECR2X12MPW","cs_wg_full_v2_pilot2","3NJM2BJS4W7UF88DFBRRTET7ZC6PCX","12","0","THRONE","2","6","1","2295","throne ","2","2018-06-30 17:00:11","349494"
"A2FJUGTKTCIB0","cs_wg_full_v2_pilot2","33UKMF9319L9TH3VIEV1NYU8C1RTTP","17","0","GIRAFFE","10","6","0","1895","giraffe","10","2018-06-30 17:00:11","349495"
"A38ENY014WTJHC","cs_wg_full_v2_pilot2","3VNXK88KKCJ5MUY6P3QZXGHHFF4V97","12","0","PICTURE","4","6","1","4745","PICTURE ","4","2018-06-30 17:00:15","349497"
"A3SHZQLYH7L1V4","cs_wg_full_v2_pilot2","3K5TEWLKGVCYXVR9TXWCA9GKY5RVIQ","33","0","WALNUT","12","6","0","881","walnut","12","2018-06-30 17:00:15","349499"
"A24UUWI8IIJKT6","cs_wg_full_v2_pilot2","34HJIJKLP5X4POSU88U8G861TNQV4B","14","0","DEMON","10","6","0","2066","Demon","10","2018-06-30 17:00:18","349501"
"A3EKKEZ21SGJEC","cs_wg_full_v2_pilot2","3IFS6Q0HJIKI53A5Z2R7ZMWDZ1XSII","24","0","BABOON","12","6","0","1522","Baboon","12","2018-06-30 17:00:18","349502"
"A21E07C6ILD4A","cs_wg_full_v2_pilot2","3NLZY2D53PQ8IO3YS1ZFW294YH6QL5","22","0","BAPTISM","12","6","0","3868","BAPTISM","11","2018-06-30 17:00:19","349503"
"AGR032RZW1C76","cs_wg_full_v2_pilot2","3FPRZHYEPY8J7S9Q8UPP63EVFNUV3Q","7","0","PRIEST","9","6","0","6298","priest","9","2018-06-30 17:00:19","349505"
"A342D4DOMDD3Q9","cs_wg_full_v2_pilot2","36WLNQG78ZB78CRHSXFLOIOL3K4BER","20","0","GIRAFFE","2","6","0","1685","giraffe","2","2018-06-30 17:00:20","349506"
"A1Z0ECR2X12MPW","cs_wg_full_v2_pilot2","3NJM2BJS4W7UF88DFBRRTET7ZC6PCX","13","0","DOLLAR","9","6","0","1968","dollar","9","2018-06-30 17:00:21","349508"
"A2QTFUJ1ON2ZR2","cs_wg_full_v2_pilot2","3VZLGYJEYLBCWALETGLGYPGVAT1XZS","25","0","ROYALTY","2","6","1","2212","royalty","2","2018-06-30 17:00:21","349509"
"A2FJUGTKTCIB0","cs_wg_full_v2_pilot2","33UKMF9319L9TH3VIEV1NYU8C1RTTP","18","0","THRONE","2","6","1","2769","throne","2","2018-06-30 17:00:23","349511"
"A3SHZQLYH7L1V4","cs_wg_full_v2_pilot2","3K5TEWLKGVCYXVR9TXWCA9GKY5RVIQ","34","0","TONGUE","1","6","0","1470","tongue","1","2018-06-30 17:00:24","349513"
"A3EKKEZ21SGJEC","cs_wg_full_v2_pilot2","3IFS6Q0HJIKI53A5Z2R7ZMWDZ1XSII","25","0","LIQUID","3","6","1","2450","Liquid","3","2018-06-30 17:00:30","349514"
"A3SHZQLYH7L1V4","cs_wg_full_v2_pilot2","3K5TEWLKGVCYXVR9TXWCA9GKY5RVIQ","35","0","TONGUE","1","6","1","1717","tongue","1","2018-06-30 17:00:32","349517"
"A2FJUGTKTCIB0","cs_wg_full_v2_pilot2","33UKMF9319L9TH3VIEV1NYU8C1RTTP","19","0","CHIMNEY","12","6","0","1865","chimney","11","2018-06-30 17:00:34","349519"
"A21E07C6ILD4A","cs_wg_full_v2_pilot2","3NLZY2D53PQ8IO3YS1ZFW294YH6QL5","23","0","ALMOND","2","6","0","5805","ALMOND","2","2018-06-30 17:00:34","349520"
"A38ENY014WTJHC","cs_wg_full_v2_pilot2","3VNXK88KKCJ5MUY6P3QZXGHHFF4V97","13","0","FIREMAN","5","6","1","7977","FIREMAN ","5","2018-06-30 17:00:34","349521"
"A24UUWI8IIJKT6","cs_wg_full_v2_pilot2","34HJIJKLP5X4POSU88U8G861TNQV4B","15","0","MUFFIN","12","6","1","1771","Muffin ","12","2018-06-30 17:00:36","349523"
"A1Z0ECR2X12MPW","cs_wg_full_v2_pilot2","3NJM2BJS4W7UF88DFBRRTET7ZC6PCX","14","0","BUCKET","8","6","1","2943","bucket","8","2018-06-30 17:00:37","349524"
"A342D4DOMDD3Q9","cs_wg_full_v2_pilot2","36WLNQG78ZB78CRHSXFLOIOL3K4BER","21","0","BATTERY","6","6","1","8787","battery ","6","2018-06-30 17:00:38","349525"
"AGR032RZW1C76","cs_wg_full_v2_pilot2","3FPRZHYEPY8J7S9Q8UPP63EVFNUV3Q","8","0","PEACOCK","5","6","1","9072","peacock","5","2018-06-30 17:00:39","349526"
"A3EKKEZ21SGJEC","cs_wg_full_v2_pilot2","3IFS6Q0HJIKI53A5Z2R7ZMWDZ1XSII","26","0","LIQUID","3","6","1","1922","liquid","3","2018-06-30 17:00:42","349529"
"A3SHZQLYH7L1V4","cs_wg_full_v2_pilot2","3K5TEWLKGVCYXVR9TXWCA9GKY5RVIQ","36","0","DOMINO","5","6","0","2282","domino","5","2018-06-30 17:00:42","349530"
"A2QTFUJ1ON2ZR2","cs_wg_full_v2_pilot2","3VZLGYJEYLBCWALETGLGYPGVAT1XZS","26","0","CARROT","4","6","1","13929","carrot","4","2018-06-30 17:00:46","349531"
"A2FJUGTKTCIB0","cs_wg_full_v2_pilot2","33UKMF9319L9TH3VIEV1NYU8C1RTTP","20","0","CELERY","7","6","0","3851","celery","7","2018-06-30 17:00:46","349532"
"A1Z0ECR2X12MPW","cs_wg_full_v2_pilot2","3NJM2BJS4W7UF88DFBRRTET7ZC6PCX","15","0","PARENT","12","6","0","1429","parent","12","2018-06-30 17:00:46","349533"
"A38ENY014WTJHC","cs_wg_full_v2_pilot2","3VNXK88KKCJ5MUY6P3QZXGHHFF4V97","14","0","CASINO","7","6","0","1880","CASINO ","7","2018-06-30 17:00:48","349534"
"A24UUWI8IIJKT6","cs_wg_full_v2_pilot2","34HJIJKLP5X4POSU88U8G861TNQV4B","16","0","DRAGON","11","6","0","2779","Dragon","11","2018-06-30 17:00:50","349537"
"A21E07C6ILD4A","cs_wg_full_v2_pilot2","3NLZY2D53PQ8IO3YS1ZFW294YH6QL5","24","0","FIREMAN","7","6","0","2843","FIREMAN","7","2018-06-30 17:00:50","349539"
"A3SHZQLYH7L1V4","cs_wg_full_v2_pilot2","3K5TEWLKGVCYXVR9TXWCA9GKY5RVIQ","37","0","DEMON","9","6","0","1566","demon","9","2018-06-30 17:00:52","349541"
"A3EKKEZ21SGJEC","cs_wg_full_v2_pilot2","3IFS6Q0HJIKI53A5Z2R7ZMWDZ1XSII","27","0","WAFFLE","11","6","0","1915","waffle","11","2018-06-30 17:00:53","349542"
"A2QTFUJ1ON2ZR2","cs_wg_full_v2_pilot2","3VZLGYJEYLBCWALETGLGYPGVAT1XZS","27","0","BABOON","1","6","1","2819","baboon","1","2018-06-30 17:00:54","349543"
"AGR032RZW1C76","cs_wg_full_v2_pilot2","3FPRZHYEPY8J7S9Q8UPP63EVFNUV3Q","9","0","PRIEST","9","6","0","6083","priest","9","2018-06-30 17:00:57","349544"
"A1Z0ECR2X12MPW","cs_wg_full_v2_pilot2","3NJM2BJS4W7UF88DFBRRTET7ZC6PCX","16","0","DOLLAR","9","6","0","2558","dollar","9","2018-06-30 17:00:58","349545"
"A24UUWI8IIJKT6","cs_wg_full_v2_pilot2","34HJIJKLP5X4POSU88U8G861TNQV4B","17","0","THRONE","4","6","1","1618","Throne","4","2018-06-30 17:00:59","349547"
"A342D4DOMDD3Q9","cs_wg_full_v2_pilot2","36WLNQG78ZB78CRHSXFLOIOL3K4BER","22","0","PEACOCK","9","6","0","10682","peacock","9","2018-06-30 17:01:00","349548"
"A2FJUGTKTCIB0","cs_wg_full_v2_pilot2","33UKMF9319L9TH3VIEV1NYU8C1RTTP","21","0","CANVAS","5","6","1","4207","canvas","5","2018-06-30 17:01:00","349550"
"A3SHZQLYH7L1V4","cs_wg_full_v2_pilot2","3K5TEWLKGVCYXVR9TXWCA9GKY5RVIQ","38","0","COFFIN","4","6","0","1498","coffin","4","2018-06-30 17:01:01","349551"
"A38ENY014WTJHC","cs_wg_full_v2_pilot2","3VNXK88KKCJ5MUY6P3QZXGHHFF4V97","15","0","CABINET","6","6","0","2368","CABINET ","6","2018-06-30 17:01:02","349553"
"A2QTFUJ1ON2ZR2","cs_wg_full_v2_pilot2","3VZLGYJEYLBCWALETGLGYPGVAT1XZS","28","0","WALNUT","10","6","0","2737","walnut","10","2018-06-30 17:01:04","349554"
"A21E07C6ILD4A","cs_wg_full_v2_pilot2","3NLZY2D53PQ8IO3YS1ZFW294YH6QL5","25","0","FIREMAN","7","6","0","2411","FIREMAN","7","2018-06-30 17:01:09","349556"
"A3EKKEZ21SGJEC","cs_wg_full_v2_pilot2","3IFS6Q0HJIKI53A5Z2R7ZMWDZ1XSII","28","0","JUNGLE","6","6","0","2923","jungle","6","2018-06-30 17:01:10","349558"
"A3SHZQLYH7L1V4","cs_wg_full_v2_pilot2","3K5TEWLKGVCYXVR9TXWCA9GKY5RVIQ","39","0","BEAVER","3","6","1","3131","beaver","3","2018-06-30 17:01:10","349559"
"A2FJUGTKTCIB0","cs_wg_full_v2_pilot2","33UKMF9319L9TH3VIEV1NYU8C1RTTP","22","0","ANIMAL","6","6","0","2259","animal","6","2018-06-30 17:01:11","349561"
"A24UUWI8IIJKT6","cs_wg_full_v2_pilot2","34HJIJKLP5X4POSU88U8G861TNQV4B","18","0","MUFFIN","12","6","0","5504","Muffin","12","2018-06-30 17:01:12","349562"
"A2QTFUJ1ON2ZR2","cs_wg_full_v2_pilot2","3VZLGYJEYLBCWALETGLGYPGVAT1XZS","29","0","CARROT","4","6","1","2630","carrot","4","2018-06-30 17:01:12","349563"
"A342D4DOMDD3Q9","cs_wg_full_v2_pilot2","36WLNQG78ZB78CRHSXFLOIOL3K4BER","23","0","PEANUT","5","6","1","4281","peanut","5","2018-06-30 17:01:13","349564"
"A1Z0ECR2X12MPW","cs_wg_full_v2_pilot2","3NJM2BJS4W7UF88DFBRRTET7ZC6PCX","17","0","PARENT","12","6","0","1375","parent","12","2018-06-30 17:01:13","349565"
"A38ENY014WTJHC","cs_wg_full_v2_pilot2","3VNXK88KKCJ5MUY6P3QZXGHHFF4V97","16","0","PICTURE","4","6","0","1912","PICTURE ","4","2018-06-30 17:01:15","349566"
"A3SHZQLYH7L1V4","cs_wg_full_v2_pilot2","3K5TEWLKGVCYXVR9TXWCA9GKY5RVIQ","40","0","SPIRAL","11","6","0","748","spiral","11","2018-06-30 17:01:19","349568"
"A3EKKEZ21SGJEC","cs_wg_full_v2_pilot2","3IFS6Q0HJIKI53A5Z2R7ZMWDZ1XSII","29","0","CHICKEN","1","6","1","2212","chicken","1","2018-06-30 17:01:21","349572"
"A2QTFUJ1ON2ZR2","cs_wg_full_v2_pilot2","3VZLGYJEYLBCWALETGLGYPGVAT1XZS","30","0","CARROT","4","6","1","1500","carrot","4","2018-06-30 17:01:21","349573"
"A2PWUACCQI97J8","cs_wg_full_v2_pilot2","3LKC68YZ3A4L862HH2EDG8VKHNSWOW","0","0","SCIENCE","9","6","0","4512","science","9","2018-06-30 17:01:23","349575"
"AGR032RZW1C76","cs_wg_full_v2_pilot2","3FPRZHYEPY8J7S9Q8UPP63EVFNUV3Q","10","0","HERMIT","11","6","1","9832","Hermit","11","2018-06-30 17:01:23","349576"
"A2FJUGTKTCIB0","cs_wg_full_v2_pilot2","33UKMF9319L9TH3VIEV1NYU8C1RTTP","23","0","SMOKER","8","6","0","2064","smoker","8","2018-06-30 17:01:24","349577"
"A24UUWI8IIJKT6","cs_wg_full_v2_pilot2","34HJIJKLP5X4POSU88U8G861TNQV4B","19","0","DRAGON","11","6","0","2295","Dragon","11","2018-06-30 17:01:24","349578"
"A342D4DOMDD3Q9","cs_wg_full_v2_pilot2","36WLNQG78ZB78CRHSXFLOIOL3K4BER","24","0","GIRAFFE","2","6","1","3687","giraffe","2","2018-06-30 17:01:25","349579"
"A3SHZQLYH7L1V4","cs_wg_full_v2_pilot2","3K5TEWLKGVCYXVR9TXWCA9GKY5RVIQ","41","0","SPIRAL","11","6","0","766","spiral","11","2018-06-30 17:01:26","349580"
"A21E07C6ILD4A","cs_wg_full_v2_pilot2","3NLZY2D53PQ8IO3YS1ZFW294YH6QL5","26","0","COSTUME","6","6","1","3441","COSTUME","6","2018-06-30 17:01:27","349581"
"A1Z0ECR2X12MPW","cs_wg_full_v2_pilot2","3NJM2BJS4W7UF88DFBRRTET7ZC6PCX","18","0","CARROT","6","6","1","4142","carrot","6","2018-06-30 17:01:32","349585"
"A2QTFUJ1ON2ZR2","cs_wg_full_v2_pilot2","3VZLGYJEYLBCWALETGLGYPGVAT1XZS","31","0","COFFIN","3","6","1","2583","coffin","3","2018-06-30 17:01:32","349586"
"A38ENY014WTJHC","cs_wg_full_v2_pilot2","3VNXK88KKCJ5MUY6P3QZXGHHFF4V97","17","0","JAVELIN","11","6","0","2225","JAVELIN ","11","2018-06-30 17:01:33","349587"
"A3EKKEZ21SGJEC","cs_wg_full_v2_pilot2","3IFS6Q0HJIKI53A5Z2R7ZMWDZ1XSII","30","0","GOGGLES","10","6","0","2772","goggles","10","2018-06-30 17:01:34","349588"
"A24UUWI8IIJKT6","cs_wg_full_v2_pilot2","34HJIJKLP5X4POSU88U8G861TNQV4B","20","0","CHICKEN","6","6","1","2664","Chicken","6","2018-06-30 17:01:35","349589"
"A2PWUACCQI97J8","cs_wg_full_v2_pilot2","3LKC68YZ3A4L862HH2EDG8VKHNSWOW","1","0","TURKEY","7","6","0","3450","turkey","7","2018-06-30 17:01:35","349590"
"A2FJUGTKTCIB0","cs_wg_full_v2_pilot2","33UKMF9319L9TH3VIEV1NYU8C1RTTP","24","0","CASINO","1","6","0","2054","casino","1","2018-06-30 17:01:35","349591"
"A342D4DOMDD3Q9","cs_wg_full_v2_pilot2","36WLNQG78ZB78CRHSXFLOIOL3K4BER","25","0","GIRAFFE","2","6","1","3127","giraffe","2","2018-06-30 17:01:36","349593"
"A3SHZQLYH7L1V4","cs_wg_full_v2_pilot2","3K5TEWLKGVCYXVR9TXWCA9GKY5RVIQ","42","0","COFFIN","4","6","1","2787","coffin","4","2018-06-30 17:01:36","349594"
"AGR032RZW1C76","cs_wg_full_v2_pilot2","3FPRZHYEPY8J7S9Q8UPP63EVFNUV3Q","11","0","COFFIN","10","6","1","3782","coffin","10","2018-06-30 17:01:38","349596"
"A21E07C6ILD4A","cs_wg_full_v2_pilot2","3NLZY2D53PQ8IO3YS1ZFW294YH6QL5","27","0","ALMOND","2","6","0","2477","ALMOND","2","2018-06-30 17:01:42","349598"
"A2QTFUJ1ON2ZR2","cs_wg_full_v2_pilot2","3VZLGYJEYLBCWALETGLGYPGVAT1XZS","32","0","COFFIN","3","6","1","4818","coffin","3","2018-06-30 17:01:43","349599"
"A1Z0ECR2X12MPW","cs_wg_full_v2_pilot2","3NJM2BJS4W7UF88DFBRRTET7ZC6PCX","19","0","BUCKET","8","6","0","3772","bucket","8","2018-06-30 17:01:43","349600"
"A24UUWI8IIJKT6","cs_wg_full_v2_pilot2","34HJIJKLP5X4POSU88U8G861TNQV4B","21","0","DRAGON","11","6","0","1568","Dragon","11","2018-06-30 17:01:43","349601"
"A3EKKEZ21SGJEC","cs_wg_full_v2_pilot2","3IFS6Q0HJIKI53A5Z2R7ZMWDZ1XSII","31","0","BABOON","12","6","0","1355","baboon","12","2018-06-30 17:01:44","349602"
"A2PWUACCQI97J8","cs_wg_full_v2_pilot2","3LKC68YZ3A4L862HH2EDG8VKHNSWOW","2","0","TURKEY","7","6","0","2303","turkey","7","2018-06-30 17:01:46","349603"
"A3SHZQLYH7L1V4","cs_wg_full_v2_pilot2","3K5TEWLKGVCYXVR9TXWCA9GKY5RVIQ","43","0","DOMINO","5","6","1","2836","domino","5","2018-06-30 17:01:46","349605"
"A38ENY014WTJHC","cs_wg_full_v2_pilot2","3VNXK88KKCJ5MUY6P3QZXGHHFF4V97","18","0","CASINO","7","6","0","1839","CASINO ","7","2018-06-30 17:01:47","349606"
"A2FJUGTKTCIB0","cs_wg_full_v2_pilot2","33UKMF9319L9TH3VIEV1NYU8C1RTTP","25","0","SMOKER","8","6","0","2106","smoker","8","2018-06-30 17:01:47","349607"
"A342D4DOMDD3Q9","cs_wg_full_v2_pilot2","36WLNQG78ZB78CRHSXFLOIOL3K4BER","26","0","SUNBURN","12","6","0","4405","sunburn","12","2018-06-30 17:01:48","349608"
"A2QTFUJ1ON2ZR2","cs_wg_full_v2_pilot2","3VZLGYJEYLBCWALETGLGYPGVAT1XZS","33","0","SILVER","7","6","0","2500","silver","7","2018-06-30 17:01:51","349612"
"A1Z0ECR2X12MPW","cs_wg_full_v2_pilot2","3NJM2BJS4W7UF88DFBRRTET7ZC6PCX","20","0","PARENT","12","6","0","1329","parent","12","2018-06-30 17:01:52","349613"
"A24UUWI8IIJKT6","cs_wg_full_v2_pilot2","34HJIJKLP5X4POSU88U8G861TNQV4B","22","0","DRAGON","11","6","0","1499","Dragon","11","2018-06-30 17:01:53","349614"
"A3SHZQLYH7L1V4","cs_wg_full_v2_pilot2","3K5TEWLKGVCYXVR9TXWCA9GKY5RVIQ","44","0","TONGUE","1","6","1","1774","tongue","1","2018-06-30 17:01:54","349615"
"AGR032RZW1C76","cs_wg_full_v2_pilot2","3FPRZHYEPY8J7S9Q8UPP63EVFNUV3Q","12","0","LIQUID","1","6","0","5636","liquid","1","2018-06-30 17:01:55","349616"
"A21E07C6ILD4A","cs_wg_full_v2_pilot2","3NLZY2D53PQ8IO3YS1ZFW294YH6QL5","28","0","ALMOND","2","6","1","2110","ALMOND","2","2018-06-30 17:01:55","349617"
"A3EKKEZ21SGJEC","cs_wg_full_v2_pilot2","3IFS6Q0HJIKI53A5Z2R7ZMWDZ1XSII","32","0","HERMIT","9","6","0","1851","Hermit","9","2018-06-30 17:01:55","349618"
"A2PWUACCQI97J8","cs_wg_full_v2_pilot2","3LKC68YZ3A4L862HH2EDG8VKHNSWOW","3","0","CARROT","5","6","0","1785","carrot","5","2018-06-30 17:01:56","349619"
"A342D4DOMDD3Q9","cs_wg_full_v2_pilot2","36WLNQG78ZB78CRHSXFLOIOL3K4BER","27","0","PEACOCK","9","6","0","2946","peacock","9","2018-06-30 17:01:59","349623"
"A2FJUGTKTCIB0","cs_wg_full_v2_pilot2","33UKMF9319L9TH3VIEV1NYU8C1RTTP","26","0","CANVAS","5","6","0","2690","canvas","5","2018-06-30 17:01:59","349625"
"A2QTFUJ1ON2ZR2","cs_wg_full_v2_pilot2","3VZLGYJEYLBCWALETGLGYPGVAT1XZS","34","0","CARROT","4","6","1","2081","carrot","4","2018-06-30 17:01:59","349626"
"A1Z0ECR2X12MPW","cs_wg_full_v2_pilot2","3NJM2BJS4W7UF88DFBRRTET7ZC6PCX","21","0","CARROT","6","6","0","2188","carrot","6","2018-06-30 17:02:01","349627"
"A38ENY014WTJHC","cs_wg_full_v2_pilot2","3VNXK88KKCJ5MUY6P3QZXGHHFF4V97","19","0","FIREMAN","5","6","1","5338","FIREMAN ","5","2018-06-30 17:02:03","349628"
"A24UUWI8IIJKT6","cs_wg_full_v2_pilot2","34HJIJKLP5X4POSU88U8G861TNQV4B","23","0","BAGPIPE","8","6","1","1935","Bagpipe","8","2018-06-30 17:02:04","349629"
"A3SHZQLYH7L1V4","cs_wg_full_v2_pilot2","3K5TEWLKGVCYXVR9TXWCA9GKY5RVIQ","45","0","PARENT","10","6","0","3065","parent","10","2018-06-30 17:02:05","349630"
"A2PWUACCQI97J8","cs_wg_full_v2_pilot2","3LKC68YZ3A4L862HH2EDG8VKHNSWOW","4","0","PILLAR","2","6","0","1380","pillar","2","2018-06-30 17:02:06","349631"
"A3EKKEZ21SGJEC","cs_wg_full_v2_pilot2","3IFS6Q0HJIKI53A5Z2R7ZMWDZ1XSII","33","0","FRIEND","5","6","0","2052","Friend","5","2018-06-30 17:02:08","349634"
"A21E07C6ILD4A","cs_wg_full_v2_pilot2","3NLZY2D53PQ8IO3YS1ZFW294YH6QL5","29","0","COFFEE","1","6","0","2878","COFFEE","1","2018-06-30 17:02:08","349636"
"A2FJUGTKTCIB0","cs_wg_full_v2_pilot2","33UKMF9319L9TH3VIEV1NYU8C1RTTP","27","0","THRONE","2","6","1","1849","throne","2","2018-06-30 17:02:09","349638"
"AGR032RZW1C76","cs_wg_full_v2_pilot2","3FPRZHYEPY8J7S9Q8UPP63EVFNUV3Q","13","0","COFFIN","10","6","0","4630","coffin","10","2018-06-30 17:02:09","349639"
"A2QTFUJ1ON2ZR2","cs_wg_full_v2_pilot2","3VZLGYJEYLBCWALETGLGYPGVAT1XZS","35","0","WALNUT","10","6","0","2166","walnut","10","2018-06-30 17:02:10","349640"
"A1Z0ECR2X12MPW","cs_wg_full_v2_pilot2","3NJM2BJS4W7UF88DFBRRTET7ZC6PCX","22","0","PARENT","12","6","0","1687","parent","12","2018-06-30 17:02:11","349641"
"A342D4DOMDD3Q9","cs_wg_full_v2_pilot2","36WLNQG78ZB78CRHSXFLOIOL3K4BER","28","0","EARDRUM","8","6","0","3822","eardrum","8","2018-06-30 17:02:12","349642"
"A24UUWI8IIJKT6","cs_wg_full_v2_pilot2","34HJIJKLP5X4POSU88U8G861TNQV4B","24","0","MUFFIN","12","6","0","1253","Muffin","12","2018-06-30 17:02:12","349643"
"A3SHZQLYH7L1V4","cs_wg_full_v2_pilot2","3K5TEWLKGVCYXVR9TXWCA9GKY5RVIQ","46","0","COFFIN","4","6","1","1631","coffin","4","2018-06-30 17:02:14","349644"
"A38ENY014WTJHC","cs_wg_full_v2_pilot2","3VNXK88KKCJ5MUY6P3QZXGHHFF4V97","20","0","BUCKET","3","6","0","1625","BUCKET ","3","2018-06-30 17:02:17","349647"
"A2QTFUJ1ON2ZR2","cs_wg_full_v2_pilot2","3VZLGYJEYLBCWALETGLGYPGVAT1XZS","36","0","CARROT","4","6","1","2084","carrot","4","2018-06-30 17:02:19","349649"
"A1Z0ECR2X12MPW","cs_wg_full_v2_pilot2","3NJM2BJS4W7UF88DFBRRTET7ZC6PCX","23","0","HERMIT","7","6","0","3273","hermit","7","2018-06-30 17:02:21","349651"
"A3EKKEZ21SGJEC","cs_wg_full_v2_pilot2","3IFS6Q0HJIKI53A5Z2R7ZMWDZ1XSII","34","0","LIQUID","3","6","1","4099","liquid","3","2018-06-30 17:02:21","349652"
"AGR032RZW1C76","cs_wg_full_v2_pilot2","3FPRZHYEPY8J7S9Q8UPP63EVFNUV3Q","14","0","HERMIT","11","6","0","2719","Hermit","11","2018-06-30 17:02:21","349653"
"A24UUWI8IIJKT6","cs_wg_full_v2_pilot2","34HJIJKLP5X4POSU88U8G861TNQV4B","25","0","BAGPIPE","8","6","0","2026","Bagpipe","8","2018-06-30 17:02:22","349654"
"A3SHZQLYH7L1V4","cs_wg_full_v2_pilot2","3K5TEWLKGVCYXVR9TXWCA9GKY5RVIQ","47","0","PARENT","10","6","0","803","parent","10","2018-06-30 17:02:22","349655"
"A342D4DOMDD3Q9","cs_wg_full_v2_pilot2","36WLNQG78ZB78CRHSXFLOIOL3K4BER","29","0","GIRAFFE","2","6","1","2904","giraffe","2","2018-06-30 17:02:22","349656"
"A2PWUACCQI97J8","cs_wg_full_v2_pilot2","3LKC68YZ3A4L862HH2EDG8VKHNSWOW","5","0","CARROT","5","6","1","4803","carrot","5","2018-06-30 17:02:23","349657"
"A2FJUGTKTCIB0","cs_wg_full_v2_pilot2","33UKMF9319L9TH3VIEV1NYU8C1RTTP","28","0","CHIMNEY","12","6","0","1513","chimney","12","2018-06-30 17:02:24","349658"
"A2QTFUJ1ON2ZR2","cs_wg_full_v2_pilot2","3VZLGYJEYLBCWALETGLGYPGVAT1XZS","37","0","BABOON","1","6","1","2148","baboon","1","2018-06-30 17:02:26","349661"
"A21E07C6ILD4A","cs_wg_full_v2_pilot2","3NLZY2D53PQ8IO3YS1ZFW294YH6QL5","30","0","PICKLE","5","6","0","2931","PICKLE","5","2018-06-30 17:02:27","349662"
"A3SHZQLYH7L1V4","cs_wg_full_v2_pilot2","3K5TEWLKGVCYXVR9TXWCA9GKY5RVIQ","48","0","COFFIN","4","6","1","1403","coffin","4","2018-06-30 17:02:30","349664"
"A1Z0ECR2X12MPW","cs_wg_full_v2_pilot2","3NJM2BJS4W7UF88DFBRRTET7ZC6PCX","24","0","DRAGON","4","6","1","3081","dragon","4","2018-06-30 17:02:30","349665"
"A3EKKEZ21SGJEC","cs_wg_full_v2_pilot2","3IFS6Q0HJIKI53A5Z2R7ZMWDZ1XSII","35","0","WAFFLE","11","6","0","1172","waffle","11","2018-06-30 17:02:31","349666"
"A38ENY014WTJHC","cs_wg_full_v2_pilot2","3VNXK88KKCJ5MUY6P3QZXGHHFF4V97","21","0","BARREL","2","6","0","3162","BARREL ","2","2018-06-30 17:02:32","349667"
"AGR032RZW1C76","cs_wg_full_v2_pilot2","3FPRZHYEPY8J7S9Q8UPP63EVFNUV3Q","15","0","COFFIN","10","6","0","2406","coffin","10","2018-06-30 17:02:32","349668"
"A2QTFUJ1ON2ZR2","cs_wg_full_v2_pilot2","3VZLGYJEYLBCWALETGLGYPGVAT1XZS","38","0","JUNGLE","12","6","0","1759","jungle","12","2018-06-30 17:02:34","349670"
"A342D4DOMDD3Q9","cs_wg_full_v2_pilot2","36WLNQG78ZB78CRHSXFLOIOL3K4BER","30","0","DRAGON","1","6","1","3643","dragon","1","2018-06-30 17:02:36","349672"
"A2FJUGTKTCIB0","cs_wg_full_v2_pilot2","33UKMF9319L9TH3VIEV1NYU8C1RTTP","29","0","GIRAFFE","10","6","0","2162","giraffe","10","2018-06-30 17:02:36","349673"
"A2PWUACCQI97J8","cs_wg_full_v2_pilot2","3LKC68YZ3A4L862HH2EDG8VKHNSWOW","6","0","CARROT","5","6","1","2756","carrot","5
5","2018-06-30 17:02:38","349674"
"A3SHZQLYH7L1V4","cs_wg_full_v2_pilot2","3K5TEWLKGVCYXVR9TXWCA9GKY5RVIQ","49","0","SPIRAL","11","6","0","680","spiral","11","2018-06-30 17:02:38","349675"
"A1Z0ECR2X12MPW","cs_wg_full_v2_pilot2","3NJM2BJS4W7UF88DFBRRTET7ZC6PCX","25","0","SPONGE","5","6","1","2794","sponge","5","2018-06-30 17:02:41","349677"
"A3EKKEZ21SGJEC","cs_wg_full_v2_pilot2","3IFS6Q0HJIKI53A5Z2R7ZMWDZ1XSII","36","0","CHICKEN","1","6","1","2532","chicken","1","2018-06-30 17:02:42","349679"
"A21E07C6ILD4A","cs_wg_full_v2_pilot2","3NLZY2D53PQ8IO3YS1ZFW294YH6QL5","31","0","BEAVER","10","6","0","4164","BEAVER","10","2018-06-30 17:02:44","349681"
"A2QTFUJ1ON2ZR2","cs_wg_full_v2_pilot2","3VZLGYJEYLBCWALETGLGYPGVAT1XZS","39","0","WALNUT","10","6","0","2086","walnut","10","2018-06-30 17:02:45","349683"
"A38ENY014WTJHC","cs_wg_full_v2_pilot2","3VNXK88KKCJ5MUY6P3QZXGHHFF4V97","22","0","JAVELIN","11","6","0","2490","JAVELIN ","11","2018-06-30 17:02:45","349684"
"A3SHZQLYH7L1V4","cs_wg_full_v2_pilot2","3K5TEWLKGVCYXVR9TXWCA9GKY5RVIQ","50","0","ALMOND","8","6","0","2224","almond","8","2018-06-30 17:02:48","349685"
"A2FJUGTKTCIB0","cs_wg_full_v2_pilot2","33UKMF9319L9TH3VIEV1NYU8C1RTTP","30","0","TONGUE","11","6","0","2519","tongue","11","2018-06-30 17:02:48","349686"
"A342D4DOMDD3Q9","cs_wg_full_v2_pilot2","36WLNQG78ZB78CRHSXFLOIOL3K4BER","31","0","BULLET","7","6","0","5031","bullet","7","2018-06-30 17:02:49","349687"
"A2PWUACCQI97J8","cs_wg_full_v2_pilot2","3LKC68YZ3A4L862HH2EDG8VKHNSWOW","7","0","BANQUET","10","6","0","1595","banquet","10","2018-06-30 17:02:49","349688"
"A3EKKEZ21SGJEC","cs_wg_full_v2_pilot2","3IFS6Q0HJIKI53A5Z2R7ZMWDZ1XSII","37","0","CHICKEN","1","6","1","1660","chicken","1","2018-06-30 17:02:52","349691"
"A2QTFUJ1ON2ZR2","cs_wg_full_v2_pilot2","3VZLGYJEYLBCWALETGLGYPGVAT1XZS","40","0","BABOON","1","6","1","1388","baboon","1","2018-06-30 17:02:52","349692"
"A1Z0ECR2X12MPW","cs_wg_full_v2_pilot2","3NJM2BJS4W7UF88DFBRRTET7ZC6PCX","26","0","DOLLAR","9","6","0","2362","dollar","9","2018-06-30 17:02:53","349694"
"A24UUWI8IIJKT6","cs_wg_full_v2_pilot2","34HJIJKLP5X4POSU88U8G861TNQV4B","26","0","CABINET","3","6","0","1627","Cabinet ","3","2018-06-30 17:02:53","349695"
"AGR032RZW1C76","cs_wg_full_v2_pilot2","3FPRZHYEPY8J7S9Q8UPP63EVFNUV3Q","16","0","BUCKET","3","6","1","7679","Bucket","3","2018-06-30 17:02:56","349696"
"A21E07C6ILD4A","cs_wg_full_v2_pilot2","3NLZY2D53PQ8IO3YS1ZFW294YH6QL5","32","0","PLANET","4","6","1","3257","PLANET","4","2018-06-30 17:02:57","349697"
"A2PWUACCQI97J8","cs_wg_full_v2_pilot2","3LKC68YZ3A4L862HH2EDG8VKHNSWOW","8","0","BUDGET","8","6","0","1237","budget","8","2018-06-30 17:02:57","349698"
"A3SHZQLYH7L1V4","cs_wg_full_v2_pilot2","3K5TEWLKGVCYXVR9TXWCA9GKY5RVIQ","51","0","DOMINO","5","6","1","2824","domino","5","2018-06-30 17:02:58","349699"
"A38ENY014WTJHC","cs_wg_full_v2_pilot2","3VNXK88KKCJ5MUY6P3QZXGHHFF4V97","23","0","JAVELIN","11","6","0","2601","JAVELIN ","11","2018-06-30 17:02:59","349701"
"A2FJUGTKTCIB0","cs_wg_full_v2_pilot2","33UKMF9319L9TH3VIEV1NYU8C1RTTP","31","0","GIRAFFE","10","6","0","1601","giraffe","10","2018-06-30 17:03:02","349703"
"A342D4DOMDD3Q9","cs_wg_full_v2_pilot2","36WLNQG78ZB78CRHSXFLOIOL3K4BER","32","0","BATTERY","6","6","1","4921","battery","6","2018-06-30 17:03:02","349704"
"A3EKKEZ21SGJEC","cs_wg_full_v2_pilot2","3IFS6Q0HJIKI53A5Z2R7ZMWDZ1XSII","38","0","HERMIT","9","6","0","1692","hermit","9","2018-06-30 17:03:02","349705"
"A1Z0ECR2X12MPW","cs_wg_full_v2_pilot2","3NJM2BJS4W7UF88DFBRRTET7ZC6PCX","27","0","HERMIT","7","6","0","4229","hermit","7","2018-06-30 17:03:04","349707"
"A24UUWI8IIJKT6","cs_wg_full_v2_pilot2","34HJIJKLP5X4POSU88U8G861TNQV4B","27","0","CHICKEN","6","6","1","1883","Chicken","6","2018-06-30 17:03:04","349708"
"A3SHZQLYH7L1V4","cs_wg_full_v2_pilot2","3K5TEWLKGVCYXVR9TXWCA9GKY5RVIQ","52","0","BULLET","2","6","0","1983","bullet","2","2018-06-30 17:03:06","349710"
"A2PWUACCQI97J8","cs_wg_full_v2_pilot2","3LKC68YZ3A4L862HH2EDG8VKHNSWOW","9","0","THRONE","12","6","0","1470","throne","12","2018-06-30 17:03:07","349711"
"A2QTFUJ1ON2ZR2","cs_wg_full_v2_pilot2","3VZLGYJEYLBCWALETGLGYPGVAT1XZS","41","0","PRIEST","8","6","1","2151","priest","8","2018-06-30 17:03:08","349714"
"A21E07C6ILD4A","cs_wg_full_v2_pilot2","3NLZY2D53PQ8IO3YS1ZFW294YH6QL5","33","0","BEAVER","10","6","0","2401","BEAVER","10","2018-06-30 17:03:12","349716"
"A3EKKEZ21SGJEC","cs_wg_full_v2_pilot2","3IFS6Q0HJIKI53A5Z2R7ZMWDZ1XSII","39","0","WAFFLE","11","6","0","844","waffle","11","2018-06-30 17:03:12","349717"
"A342D4DOMDD3Q9","cs_wg_full_v2_pilot2","36WLNQG78ZB78CRHSXFLOIOL3K4BER","33","0","SMOKER","10","6","0","2808","smoker","10","2018-06-30 17:03:13","349719"
"AGR032RZW1C76","cs_wg_full_v2_pilot2","3FPRZHYEPY8J7S9Q8UPP63EVFNUV3Q","17","0","JUNGLE","4","6","0","6023","Jungle","4","2018-06-30 17:03:13","349720"
"A24UUWI8IIJKT6","cs_wg_full_v2_pilot2","34HJIJKLP5X4POSU88U8G861TNQV4B","28","0","THRONE","4","6","1","2185","Throne ","4","2018-06-30 17:03:14","349721"
"A1Z0ECR2X12MPW","cs_wg_full_v2_pilot2","3NJM2BJS4W7UF88DFBRRTET7ZC6PCX","28","0","CARROT","6","6","0","1398","carrot","6","2018-06-30 17:03:14","349722"
"A3SHZQLYH7L1V4","cs_wg_full_v2_pilot2","3K5TEWLKGVCYXVR9TXWCA9GKY5RVIQ","53","0","DEMON","9","6","0","878","demon","9","2018-06-30 17:03:14","349723"
"A38ENY014WTJHC","cs_wg_full_v2_pilot2","3VNXK88KKCJ5MUY6P3QZXGHHFF4V97","24","0","FIREMAN","5","6","1","3113","FIREMAN ","5","2018-06-30 17:03:15","349725"
"A2PWUACCQI97J8","cs_wg_full_v2_pilot2","3LKC68YZ3A4L862HH2EDG8VKHNSWOW","10","0","BIKINI","4","6","0","1602","bikini","4","2018-06-30 17:03:15","349726"
"A2QTFUJ1ON2ZR2","cs_wg_full_v2_pilot2","3VZLGYJEYLBCWALETGLGYPGVAT1XZS","42","0","PRIEST","8","6","0","1541","priest","8","2018-06-30 17:03:16","349727"
"A2FJUGTKTCIB0","cs_wg_full_v2_pilot2","33UKMF9319L9TH3VIEV1NYU8C1RTTP","32","0","CASINO","1","6","1","2744","casino","1","2018-06-30 17:03:19","349729"
"A3SHZQLYH7L1V4","cs_wg_full_v2_pilot2","3K5TEWLKGVCYXVR9TXWCA9GKY5RVIQ","54","0","BULLET","2","6","1","1623","bullet","2","2018-06-30 17:03:22","349730"
"A3EKKEZ21SGJEC","cs_wg_full_v2_pilot2","3IFS6Q0HJIKI53A5Z2R7ZMWDZ1XSII","40","0","FRIEND","5","6","1","2467","friend","5","2018-06-30 17:03:23","349731"
"A342D4DOMDD3Q9","cs_wg_full_v2_pilot2","36WLNQG78ZB78CRHSXFLOIOL3K4BER","34","0","GIRAFFE","2","6","1","1965","giraffe","2","2018-06-30 17:03:23","349732"
"A1Z0ECR2X12MPW","cs_wg_full_v2_pilot2","3NJM2BJS4W7UF88DFBRRTET7ZC6PCX","29","0","DRAGON","4","6","1","1533","dragon","4","2018-06-30 17:03:23","349733"
"A2QTFUJ1ON2ZR2","cs_wg_full_v2_pilot2","3VZLGYJEYLBCWALETGLGYPGVAT1XZS","43","0","PENGUIN","11","6","0","1674","penguin","11","2018-06-30 17:03:24","349736"
"A24UUWI8IIJKT6","cs_wg_full_v2_pilot2","34HJIJKLP5X4POSU88U8G861TNQV4B","29","0","BAGPIPE","8","6","0","2574","Bagpipe","8","2018-06-30 17:03:24","349739"
"A2PWUACCQI97J8","cs_wg_full_v2_pilot2","3LKC68YZ3A4L862HH2EDG8VKHNSWOW","11","0","SCIENCE","9","6","0","2211","science","9","2018-06-30 17:03:24","349740"
"A21E07C6ILD4A","cs_wg_full_v2_pilot2","3NLZY2D53PQ8IO3YS1ZFW294YH6QL5","34","0","COSTUME","6","6","1","3600","COSTUME","6","2018-06-30 17:03:26","349741"
"AGR032RZW1C76","cs_wg_full_v2_pilot2","3FPRZHYEPY8J7S9Q8UPP63EVFNUV3Q","18","0","LIQUID","1","6","1","4779","liquid","1","2018-06-30 17:03:29","349742"
"A2FJUGTKTCIB0","cs_wg_full_v2_pilot2","33UKMF9319L9TH3VIEV1NYU8C1RTTP","33","0","THRONE","2","6","1","2109","throne","2","2018-06-30 17:03:29","349743"
"A3SHZQLYH7L1V4","cs_wg_full_v2_pilot2","3K5TEWLKGVCYXVR9TXWCA9GKY5RVIQ","55","0","ALMOND","8","6","0","804","almond","8","2018-06-30 17:03:30","349745"
"A1Z0ECR2X12MPW","cs_wg_full_v2_pilot2","3NJM2BJS4W7UF88DFBRRTET7ZC6PCX","30","0","DOLLAR","9","6","0","1218","dollar","9","2018-06-30 17:03:32","349747"
"A38ENY014WTJHC","cs_wg_full_v2_pilot2","3VNXK88KKCJ5MUY6P3QZXGHHFF4V97","25","0","CAMERA","10","6","0","3626","CAMERA ","10","2018-06-30 17:03:33","349748"
"A2PWUACCQI97J8","cs_wg_full_v2_pilot2","3LKC68YZ3A4L862HH2EDG8VKHNSWOW","12","0","FIREFLY","3","6","0","1080","firefly","3","2018-06-30 17:03:34","349749"
"A24UUWI8IIJKT6","cs_wg_full_v2_pilot2","34HJIJKLP5X4POSU88U8G861TNQV4B","30","0","ROYALTY","5","6","1","1624","Royalty","5","2018-06-30 17:03:34","349750"
"A3EKKEZ21SGJEC","cs_wg_full_v2_pilot2","3IFS6Q0HJIKI53A5Z2R7ZMWDZ1XSII","41","0","JUNGLE","6","6","0","2299","jungle","6","2018-06-30 17:03:35","349753"
"A342D4DOMDD3Q9","cs_wg_full_v2_pilot2","36WLNQG78ZB78CRHSXFLOIOL3K4BER","35","0","PEACOCK","9","6","0","3032","peacock","9","2018-06-30 17:03:37","349754"
"A2FJUGTKTCIB0","cs_wg_full_v2_pilot2","33UKMF9319L9TH3VIEV1NYU8C1RTTP","34","0","ANIMAL","6","6","0","1333","animal","6","2018-06-30 17:03:39","349755"
"A3SHZQLYH7L1V4","cs_wg_full_v2_pilot2","3K5TEWLKGVCYXVR9TXWCA9GKY5RVIQ","56","0","PARENT","10","6","0","1787","parent","10","2018-06-30 17:03:42","349757"
"AGR032RZW1C76","cs_wg_full_v2_pilot2","3FPRZHYEPY8J7S9Q8UPP63EVFNUV3Q","19","0","COFFIN","10","6","0","3948","coffin","10","2018-06-30 17:03:42","349758"
"A21E07C6ILD4A","cs_wg_full_v2_pilot2","3NLZY2D53PQ8IO3YS1ZFW294YH6QL5","35","0","EARDRUM","11","6","0","3795","EARDRUM","11","2018-06-30 17:03:43","349759"
"A2PWUACCQI97J8","cs_wg_full_v2_pilot2","3LKC68YZ3A4L862HH2EDG8VKHNSWOW","13","0","BANQUET","10","6","0","1886","banquet","10","2018-06-30 17:03:43","349760"
"A2QTFUJ1ON2ZR2","cs_wg_full_v2_pilot2","3VZLGYJEYLBCWALETGLGYPGVAT1XZS","44","0","MONKEY","5","6","0","4736","monkey","5","2018-06-30 17:03:44","349763"
"A38ENY014WTJHC","cs_wg_full_v2_pilot2","3VNXK88KKCJ5MUY6P3QZXGHHFF4V97","26","0","CASINO","7","6","0","1970","CASINO ","7","2018-06-30 17:03:47","349764"
"A1Z0ECR2X12MPW","cs_wg_full_v2_pilot2","3NJM2BJS4W7UF88DFBRRTET7ZC6PCX","31","0","BEAVER","1","6","0","3556","beaver","1","2018-06-30 17:03:48","349767"
"A342D4DOMDD3Q9","cs_wg_full_v2_pilot2","36WLNQG78ZB78CRHSXFLOIOL3K4BER","36","0","BULLET","7","6","0","3687","bullet","7","2018-06-30 17:03:49","349768"
"A3SHZQLYH7L1V4","cs_wg_full_v2_pilot2","3K5TEWLKGVCYXVR9TXWCA9GKY5RVIQ","57","0","DEMON","9","6","0","976","demon","9","2018-06-30 17:03:49","349770"
"A3EKKEZ21SGJEC","cs_wg_full_v2_pilot2","3IFS6Q0HJIKI53A5Z2R7ZMWDZ1XSII","42","0","BAPTISM","7","6","0","2835","baptism","7","2018-06-30 17:03:50","349771"
"A2FJUGTKTCIB0","cs_wg_full_v2_pilot2","33UKMF9319L9TH3VIEV1NYU8C1RTTP","35","0","CHORUS","9","6","1","3460","chorus","9","2018-06-30 17:03:51","349773"
"AGR032RZW1C76","cs_wg_full_v2_pilot2","3FPRZHYEPY8J7S9Q8UPP63EVFNUV3Q","20","0","LIQUID","1","6","1","2919","liquid","1","2018-06-30 17:03:54","349776"
"A2QTFUJ1ON2ZR2","cs_wg_full_v2_pilot2","3VZLGYJEYLBCWALETGLGYPGVAT1XZS","45","0","JUNGLE","12","6","0","2932","jungle","12","2018-06-30 17:03:54","349777"
"A21E07C6ILD4A","cs_wg_full_v2_pilot2","3NLZY2D53PQ8IO3YS1ZFW294YH6QL5","36","0","ALMOND","2","6","1","3056","ALMOND","2","2018-06-30 17:03:56","349778"
"A2PWUACCQI97J8","cs_wg_full_v2_pilot2","3LKC68YZ3A4L862HH2EDG8VKHNSWOW","14","0","PILLAR","2","6","1","5865","pillar","2","2018-06-30 17:03:56","349779"
"A342D4DOMDD3Q9","cs_wg_full_v2_pilot2","36WLNQG78ZB78CRHSXFLOIOL3K4BER","37","0","PEANUT","5","6","1","3252","peanut","5","2018-06-30 17:04:01","349782"
"A3EKKEZ21SGJEC","cs_wg_full_v2_pilot2","3IFS6Q0HJIKI53A5Z2R7ZMWDZ1XSII","43","0","KIDNEY","2","6","1","1738","kidney","2","2018-06-30 17:04:01","349783"
"A2FJUGTKTCIB0","cs_wg_full_v2_pilot2","33UKMF9319L9TH3VIEV1NYU8C1RTTP","36","0","CHIMNEY","12","6","0","1756","chimney","12","2018-06-30 17:04:01","349784"
"A3SHZQLYH7L1V4","cs_wg_full_v2_pilot2","3K5TEWLKGVCYXVR9TXWCA9GKY5RVIQ","58","0","PICTURE","7","6","0","3709","picture","7","2018-06-30 17:04:02","349785"
"A38ENY014WTJHC","cs_wg_full_v2_pilot2","3VNXK88KKCJ5MUY6P3QZXGHHFF4V97","27","0","BARREL","2","6","1","2953","BARREL ","2","2018-06-30 17:04:02","349787"
"A2QTFUJ1ON2ZR2","cs_wg_full_v2_pilot2","3VZLGYJEYLBCWALETGLGYPGVAT1XZS","46","0","PENGUIN","11","6","0","1750","penguin","11","2018-06-30 17:04:05","349789"
"A2PWUACCQI97J8","cs_wg_full_v2_pilot2","3LKC68YZ3A4L862HH2EDG8VKHNSWOW","15","0","FIREFLY","3","6","1","1722","firefly","3","2018-06-30 17:04:05","349790"
"A1Z0ECR2X12MPW","cs_wg_full_v2_pilot2","3NJM2BJS4W7UF88DFBRRTET7ZC6PCX","32","0","CARROT","6","6","1","1481","carrot","6","2018-06-30 17:04:09","349794"
"A3SHZQLYH7L1V4","cs_wg_full_v2_pilot2","3K5TEWLKGVCYXVR9TXWCA9GKY5RVIQ","59","0","BULLET","2","6","1","1240","bullet","2","2018-06-30 17:04:09","349795"
"A2FJUGTKTCIB0","cs_wg_full_v2_pilot2","33UKMF9319L9TH3VIEV1NYU8C1RTTP","37","0","COSTUME","4","6","0","1443","costume","4","2018-06-30 17:04:11","349798"
"A3EKKEZ21SGJEC","cs_wg_full_v2_pilot2","3IFS6Q0HJIKI53A5Z2R7ZMWDZ1XSII","44","0","LIQUID","3","6","1","2020","liquid","3","2018-06-30 17:04:12","349799"
"AGR032RZW1C76","cs_wg_full_v2_pilot2","3FPRZHYEPY8J7S9Q8UPP63EVFNUV3Q","21","0","BUCKET","3","6","1","6533","bucket","3","2018-06-30 17:04:12","349800"
"A21E07C6ILD4A","cs_wg_full_v2_pilot2","3NLZY2D53PQ8IO3YS1ZFW294YH6QL5","37","0","EARDRUM","11","6","0","3609","EARDRUME","11","2018-06-30 17:04:12","349801"
"A2PWUACCQI97J8","cs_wg_full_v2_pilot2","3LKC68YZ3A4L862HH2EDG8VKHNSWOW","16","0","ABDOMEN","6","6","0","1274","abdomen","6","2018-06-30 17:04:14","349802"
"A342D4DOMDD3Q9","cs_wg_full_v2_pilot2","36WLNQG78ZB78CRHSXFLOIOL3K4BER","38","0","ABDOMEN","3","6","1","4197","abdomen","3","2018-06-30 17:04:14","349804"
"A38ENY014WTJHC","cs_wg_full_v2_pilot2","3VNXK88KKCJ5MUY6P3QZXGHHFF4V97","28","0","DRAGON","8","6","0","1792","DRAGON ","8","2018-06-30 17:04:15","349805"
"A2QTFUJ1ON2ZR2","cs_wg_full_v2_pilot2","3VZLGYJEYLBCWALETGLGYPGVAT1XZS","47","0","CARROT","4","6","1","2183","carrot","4
4","2018-06-30 17:04:16","349806"
"A3SHZQLYH7L1V4","cs_wg_full_v2_pilot2","3K5TEWLKGVCYXVR9TXWCA9GKY5RVIQ","60","0","COFFIN","4","6","1","1953","coffin","4","2018-06-30 17:04:18","349809"
"A1Z0ECR2X12MPW","cs_wg_full_v2_pilot2","3NJM2BJS4W7UF88DFBRRTET7ZC6PCX","33","0","SPONGE","5","6","1","2406","sponge","5","2018-06-30 17:04:18","349810"
"A2FJUGTKTCIB0","cs_wg_full_v2_pilot2","33UKMF9319L9TH3VIEV1NYU8C1RTTP","38","0","CHORUS","9","6","0","1713","chorus","9","2018-06-30 17:04:21","349811"
"A3EKKEZ21SGJEC","cs_wg_full_v2_pilot2","3IFS6Q0HJIKI53A5Z2R7ZMWDZ1XSII","45","0","HERMIT","9","6","0","1344","hermit","9","2018-06-30 17:04:22","349813"
"A2PWUACCQI97J8","cs_wg_full_v2_pilot2","3LKC68YZ3A4L862HH2EDG8VKHNSWOW","17","0","PILLAR","2","6","1","1871","pillar","2","2018-06-30 17:04:24","349814"
"AGR032RZW1C76","cs_wg_full_v2_pilot2","3FPRZHYEPY8J7S9Q8UPP63EVFNUV3Q","22","0","HERMIT","11","6","0","3284","hermit","11","2018-06-30 17:04:25","349815"
"A2QTFUJ1ON2ZR2","cs_wg_full_v2_pilot2","3VZLGYJEYLBCWALETGLGYPGVAT1XZS","48","0","SILVER","7","6","0","3007","silver ","7","2018-06-30 17:04:25","349817"
"A3SHZQLYH7L1V4","cs_wg_full_v2_pilot2","3K5TEWLKGVCYXVR9TXWCA9GKY5RVIQ","61","0","PICTURE","7","6","0","1021","picture","7","2018-06-30 17:04:27","349820"
"A342D4DOMDD3Q9","cs_wg_full_v2_pilot2","36WLNQG78ZB78CRHSXFLOIOL3K4BER","39","0","PEANUT","5","6","1","5246","peanut","5","2018-06-30 17:04:28","349821"
"A21E07C6ILD4A","cs_wg_full_v2_pilot2","3NLZY2D53PQ8IO3YS1ZFW294YH6QL5","38","0","COFFEE","1","6","0","2753","COFFEE","1","2018-06-30 17:04:28","349822"
"A24UUWI8IIJKT6","cs_wg_full_v2_pilot2","34HJIJKLP5X4POSU88U8G861TNQV4B","31","0","LIQUID","9","6","1","1866","Liquid","9","2018-06-30 17:04:29","349823"
"A2FJUGTKTCIB0","cs_wg_full_v2_pilot2","33UKMF9319L9TH3VIEV1NYU8C1RTTP","39","0","THRONE","2","6","1","1806","throne","2","2018-06-30 17:04:32","349826"
"A3EKKEZ21SGJEC","cs_wg_full_v2_pilot2","3IFS6Q0HJIKI53A5Z2R7ZMWDZ1XSII","46","0","BABOON","12","6","0","1123","baboon","12","2018-06-30 17:04:32","349827"
"A2PWUACCQI97J8","cs_wg_full_v2_pilot2","3LKC68YZ3A4L862HH2EDG8VKHNSWOW","18","0","BUDGET","8","6","0","1694","budget","8","2018-06-30 17:04:32","349828"
"A38ENY014WTJHC","cs_wg_full_v2_pilot2","3VNXK88KKCJ5MUY6P3QZXGHHFF4V97","29","0","BUCKET","3","6","0","3073","DRAGON ","3","2018-06-30 17:04:34","349830"
"A3SHZQLYH7L1V4","cs_wg_full_v2_pilot2","3K5TEWLKGVCYXVR9TXWCA9GKY5RVIQ","62","0","DEMON","9","6","0","854","demon","9","2018-06-30 17:04:35","349831"
"A1Z0ECR2X12MPW","cs_wg_full_v2_pilot2","3NJM2BJS4W7UF88DFBRRTET7ZC6PCX","34","0","WAFFLE","3","6","1","5782","waffle","3","2018-06-30 17:04:35","349832"
"A2QTFUJ1ON2ZR2","cs_wg_full_v2_pilot2","3VZLGYJEYLBCWALETGLGYPGVAT1XZS","49","0","ANIMAL","6","6","1","5391","animal","6","2018-06-30 17:04:37","349833"
"A342D4DOMDD3Q9","cs_wg_full_v2_pilot2","36WLNQG78ZB78CRHSXFLOIOL3K4BER","40","0","DRAGON","1","6","1","2580","dragon ","1","2018-06-30 17:04:39","349835"
"A2PWUACCQI97J8","cs_wg_full_v2_pilot2","3LKC68YZ3A4L862HH2EDG8VKHNSWOW","19","0","SCIENCE","9","6","0","1066","science","9","2018-06-30 17:04:40","349837"
"A24UUWI8IIJKT6","cs_wg_full_v2_pilot2","34HJIJKLP5X4POSU88U8G861TNQV4B","32","0","CHICKEN","6","6","1","1621","Chicken ","6","2018-06-30 17:04:40","349838"
"A3EKKEZ21SGJEC","cs_wg_full_v2_pilot2","3IFS6Q0HJIKI53A5Z2R7ZMWDZ1XSII","47","0","CHICKEN","1","6","1","1412","chicken","1","2018-06-30 17:04:42","349839"
"A3SHZQLYH7L1V4","cs_wg_full_v2_pilot2","3K5TEWLKGVCYXVR9TXWCA9GKY5RVIQ","63","0","WALNUT","12","6","0","2000","walnut","12","2018-06-30 17:04:43","349841"
"A2FJUGTKTCIB0","cs_wg_full_v2_pilot2","33UKMF9319L9TH3VIEV1NYU8C1RTTP","40","0","COSTUME","4","6","0","2707","costume","4","2018-06-30 17:04:43","349842"
"AGR032RZW1C76","cs_wg_full_v2_pilot2","3FPRZHYEPY8J7S9Q8UPP63EVFNUV3Q","23","0","PEANUT","12","6","0","3523","peanut","12","2018-06-30 17:04:46","349844"
"A2QTFUJ1ON2ZR2","cs_wg_full_v2_pilot2","3VZLGYJEYLBCWALETGLGYPGVAT1XZS","50","0","SILVER","7","6","0","2716","silver","7","2018-06-30 17:04:47","349845"
"A1Z0ECR2X12MPW","cs_wg_full_v2_pilot2","3NJM2BJS4W7UF88DFBRRTET7ZC6PCX","35","0","BUCKET","8","6","1","3665","bucket","8","2018-06-30 17:04:47","349846"
"A38ENY014WTJHC","cs_wg_full_v2_pilot2","3VNXK88KKCJ5MUY6P3QZXGHHFF4V97","30","0","SHIVER","9","6","0","2952","SHIVER ","9","2018-06-30 17:04:47","349847"
"A2PWUACCQI97J8","cs_wg_full_v2_pilot2","3LKC68YZ3A4L862HH2EDG8VKHNSWOW","20","0","FIREFLY","3","6","1","1548","firefly","3","2018-06-30 17:04:49","349849"
"A3SHZQLYH7L1V4","cs_wg_full_v2_pilot2","3K5TEWLKGVCYXVR9TXWCA9GKY5RVIQ","64","0","TONGUE","1","6","1","1135","tongue","1","2018-06-30 17:04:51","349851"
"A342D4DOMDD3Q9","cs_wg_full_v2_pilot2","36WLNQG78ZB78CRHSXFLOIOL3K4BER","41","0","BATTERY","6","6","1","4372","battery","6","2018-06-30 17:04:51","349852"
"A2FJUGTKTCIB0","cs_wg_full_v2_pilot2","33UKMF9319L9TH3VIEV1NYU8C1RTTP","41","0","CANVAS","5","6","0","1524","canvas","4","2018-06-30 17:04:54","349853"
"A3EKKEZ21SGJEC","cs_wg_full_v2_pilot2","3IFS6Q0HJIKI53A5Z2R7ZMWDZ1XSII","48","0","BAPTISM","7","6","0","3139","baptism","7","2018-06-30 17:04:55","349855"
"A2QTFUJ1ON2ZR2","cs_wg_full_v2_pilot2","3VZLGYJEYLBCWALETGLGYPGVAT1XZS","51","0","ADDICT","9","6","0","2470","addict","9","2018-06-30 17:04:55","349857"
"A1Z0ECR2X12MPW","cs_wg_full_v2_pilot2","3NJM2BJS4W7UF88DFBRRTET7ZC6PCX","36","0","THRONE","2","6","1","1647","throne","2","2018-06-30 17:04:56","349858"
"A2PWUACCQI97J8","cs_wg_full_v2_pilot2","3LKC68YZ3A4L862HH2EDG8VKHNSWOW","21","0","PILLAR","2","6","1","1362","pillar","2","2018-06-30 17:04:57","349859"
"A3SHZQLYH7L1V4","cs_wg_full_v2_pilot2","3K5TEWLKGVCYXVR9TXWCA9GKY5RVIQ","65","0","SPIRAL","11","6","0","1491","spiral","11","2018-06-30 17:05:00","349861"
"AGR032RZW1C76","cs_wg_full_v2_pilot2","3FPRZHYEPY8J7S9Q8UPP63EVFNUV3Q","24","0","JUNGLE","4","6","0","2865","jungle","4","2018-06-30 17:05:01","349863"
"A342D4DOMDD3Q9","cs_wg_full_v2_pilot2","36WLNQG78ZB78CRHSXFLOIOL3K4BER","42","0","BATTERY","6","6","1","3755","battery","6","2018-06-30 17:05:02","349864"
"A2QTFUJ1ON2ZR2","cs_wg_full_v2_pilot2","3VZLGYJEYLBCWALETGLGYPGVAT1XZS","52","0","BABOON","1","6","1","2439","baboon","1","2018-06-30 17:05:04","349866"
"A2FJUGTKTCIB0","cs_wg_full_v2_pilot2","33UKMF9319L9TH3VIEV1NYU8C1RTTP","42","0","THRONE","2","6","1","1727","throne","2","2018-06-30 17:05:04","349867"
"A24UUWI8IIJKT6","cs_wg_full_v2_pilot2","34HJIJKLP5X4POSU88U8G861TNQV4B","33","0","HEAVEN","1","6","0","1131","Heaven ","1","2018-06-30 17:05:04","349868"
"A1Z0ECR2X12MPW","cs_wg_full_v2_pilot2","3NJM2BJS4W7UF88DFBRRTET7ZC6PCX","37","0","WAFFLE","3","6","1","1908","waffle","3","2018-06-30 17:05:05","349869"
"A2PWUACCQI97J8","cs_wg_full_v2_pilot2","3LKC68YZ3A4L862HH2EDG8VKHNSWOW","22","0","BUDGET","8","6","0","1229","budget","8","2018-06-30 17:05:05","349870"
"A3EKKEZ21SGJEC","cs_wg_full_v2_pilot2","3IFS6Q0HJIKI53A5Z2R7ZMWDZ1XSII","49","0","GOGGLES","10","6","0","1532","goggles","10","2018-06-30 17:05:05","349871"
"A38ENY014WTJHC","cs_wg_full_v2_pilot2","3VNXK88KKCJ5MUY6P3QZXGHHFF4V97","31","0","BARREL","2","6","1","2257","BARREL ","2","2018-06-30 17:05:06","349872"
"A3SHZQLYH7L1V4","cs_wg_full_v2_pilot2","3K5TEWLKGVCYXVR9TXWCA9GKY5RVIQ","66","0","PARENT","10","6","0","879","parent","10","2018-06-30 17:05:08","349873"
"A2QTFUJ1ON2ZR2","cs_wg_full_v2_pilot2","3VZLGYJEYLBCWALETGLGYPGVAT1XZS","53","0","CARROT","4","6","1","948","carrot","4","2018-06-30 17:05:12","349876"
"A21E07C6ILD4A","cs_wg_full_v2_pilot2","3NLZY2D53PQ8IO3YS1ZFW294YH6QL5","39","0","DRAGON","8","6","0","28065","DARGON","
12","2018-06-30 17:05:12","349877"
"A2PWUACCQI97J8","cs_wg_full_v2_pilot2","3LKC68YZ3A4L862HH2EDG8VKHNSWOW","23","0","BANQUET","10","6","0","1126","banquet","10","2018-06-30 17:05:14","349880"
"AGR032RZW1C76","cs_wg_full_v2_pilot2","3FPRZHYEPY8J7S9Q8UPP63EVFNUV3Q","25","0","WALRUS","6","6","1","3412","walrus","6","2018-06-30 17:05:14","349881"
"A2FJUGTKTCIB0","cs_wg_full_v2_pilot2","33UKMF9319L9TH3VIEV1NYU8C1RTTP","43","0","CASINO","1","6","0","1395","casino","1","2018-06-30 17:05:15","349882"
"A3EKKEZ21SGJEC","cs_wg_full_v2_pilot2","3IFS6Q0HJIKI53A5Z2R7ZMWDZ1XSII","50","0","GOGGLES","10","6","0","1355","goggles","10","2018-06-30 17:05:16","349883"
"A24UUWI8IIJKT6","cs_wg_full_v2_pilot2","34HJIJKLP5X4POSU88U8G861TNQV4B","34","0","DEMON","10","6","0","5008","Demon","10","2018-06-30 17:05:18","349884"
"A342D4DOMDD3Q9","cs_wg_full_v2_pilot2","36WLNQG78ZB78CRHSXFLOIOL3K4BER","43","0","DOMINO","4","6","1","7112","domino","4","2018-06-30 17:05:18","349885"
"A3SHZQLYH7L1V4","cs_wg_full_v2_pilot2","3K5TEWLKGVCYXVR9TXWCA9GKY5RVIQ","67","0","PICKLE","6","6","1","3032","pickle","6","2018-06-30 17:05:18","349886"
"A2QTFUJ1ON2ZR2","cs_wg_full_v2_pilot2","3VZLGYJEYLBCWALETGLGYPGVAT1XZS","54","0","BABOON","1","6","1","1122","baboon","1","2018-06-30 17:05:19","349887"
"A1Z0ECR2X12MPW","cs_wg_full_v2_pilot2","3NJM2BJS4W7UF88DFBRRTET7ZC6PCX","38","0","DRAGON","4","6","1","7003","dragon","4","2018-06-30 17:05:19","349889"
"A2PWUACCQI97J8","cs_wg_full_v2_pilot2","3LKC68YZ3A4L862HH2EDG8VKHNSWOW","24","0","ABDOMEN","6","6","0","1600","abdomen","6","2018-06-30 17:05:23","349893"
"A2FJUGTKTCIB0","cs_wg_full_v2_pilot2","33UKMF9319L9TH3VIEV1NYU8C1RTTP","44","0","COSTUME","4","6","1","2063","costume","4","2018-06-30 17:05:26","349894"
"AGR032RZW1C76","cs_wg_full_v2_pilot2","3FPRZHYEPY8J7S9Q8UPP63EVFNUV3Q","26","0","WALRUS","6","6","0","2206","walrus","6","2018-06-30 17:05:26","349896"
"A38ENY014WTJHC","cs_wg_full_v2_pilot2","3VNXK88KKCJ5MUY6P3QZXGHHFF4V97","32","0","CASINO","7","6","0","5120","CASINO","7","2018-06-30 17:05:27","349898"
"A3EKKEZ21SGJEC","cs_wg_full_v2_pilot2","3IFS6Q0HJIKI53A5Z2R7ZMWDZ1XSII","51","0","JUNGLE","6","6","0","2162","jungle","6","2018-06-30 17:05:27","349899"
"A21E07C6ILD4A","cs_wg_full_v2_pilot2","3NLZY2D53PQ8IO3YS1ZFW294YH6QL5","40","0","PLANET","4","6","1","2199","PLANET","4","2018-06-30 17:05:27","349900"
"A2QTFUJ1ON2ZR2","cs_wg_full_v2_pilot2","3VZLGYJEYLBCWALETGLGYPGVAT1XZS","55","0","SILVER","7","6","0","2448","silver","7","2018-06-30 17:05:28","349901"
"A342D4DOMDD3Q9","cs_wg_full_v2_pilot2","36WLNQG78ZB78CRHSXFLOIOL3K4BER","44","0","BATTERY","6","6","1","1847","battery","6","2018-06-30 17:05:28","349902"
"A24UUWI8IIJKT6","cs_wg_full_v2_pilot2","34HJIJKLP5X4POSU88U8G861TNQV4B","35","0","BAGPIPE","8","6","0","1730","Bagpipe","8","2018-06-30 17:05:29","349903"
"A1Z0ECR2X12MPW","cs_wg_full_v2_pilot2","3NJM2BJS4W7UF88DFBRRTET7ZC6PCX","39","0","WAFFLE","3","6","1","1528","waffle","3","2018-06-30 17:05:29","349904"
"A3SHZQLYH7L1V4","cs_wg_full_v2_pilot2","3K5TEWLKGVCYXVR9TXWCA9GKY5RVIQ","68","0","DOMINO","5","6","1","4221","domino","5","2018-06-30 17:05:30","349908"
"A2PWUACCQI97J8","cs_wg_full_v2_pilot2","3LKC68YZ3A4L862HH2EDG8VKHNSWOW","25","0","TURKEY","7","6","0","1014","turkey","7","2018-06-30 17:05:31","349909"
"A2FJUGTKTCIB0","cs_wg_full_v2_pilot2","33UKMF9319L9TH3VIEV1NYU8C1RTTP","45","0","PILLAR","3","6","0","2373","pillar","3","2018-06-30 17:05:36","349911"
"A2QTFUJ1ON2ZR2","cs_wg_full_v2_pilot2","3VZLGYJEYLBCWALETGLGYPGVAT1XZS","56","0","WALNUT","10","6","0","2018","walnut","10","2018-06-30 17:05:37","349913"
"A1Z0ECR2X12MPW","cs_wg_full_v2_pilot2","3NJM2BJS4W7UF88DFBRRTET7ZC6PCX","40","0","SPONGE","5","6","1","1566","sponge","5","2018-06-30 17:05:37","349914"
"A3EKKEZ21SGJEC","cs_wg_full_v2_pilot2","3IFS6Q0HJIKI53A5Z2R7ZMWDZ1XSII","52","0","JUNGLE","6","6","0","1387","jungle","6","2018-06-30 17:05:38","349915"
"A3SHZQLYH7L1V4","cs_wg_full_v2_pilot2","3K5TEWLKGVCYXVR9TXWCA9GKY5RVIQ","69","0","TONGUE","1","6","1","1346","tongue","1","2018-06-30 17:05:39","349916"
"AGR032RZW1C76","cs_wg_full_v2_pilot2","3FPRZHYEPY8J7S9Q8UPP63EVFNUV3Q","27","0","BUCKET","3","6","1","2957","bucket","3","2018-06-30 17:05:39","349917"
"A342D4DOMDD3Q9","cs_wg_full_v2_pilot2","36WLNQG78ZB78CRHSXFLOIOL3K4BER","45","0","CANVAS","11","6","0","3204","canvas","11","2018-06-30 17:05:39","349918"
"A2PWUACCQI97J8","cs_wg_full_v2_pilot2","3LKC68YZ3A4L862HH2EDG8VKHNSWOW","26","0","SCIENCE","9","6","0","920","science","9","2018-06-30 17:05:40","349920"
"A24UUWI8IIJKT6","cs_wg_full_v2_pilot2","34HJIJKLP5X4POSU88U8G861TNQV4B","36","0","ROYALTY","5","6","1","2724","Royalty","5","2018-06-30 17:05:40","349921"
"A21E07C6ILD4A","cs_wg_full_v2_pilot2","3NLZY2D53PQ8IO3YS1ZFW294YH6QL5","41","0","FIREMAN","7","6","0","3044","FIREMAN","7","2018-06-30 17:05:41","349922"
"A38ENY014WTJHC","cs_wg_full_v2_pilot2","3VNXK88KKCJ5MUY6P3QZXGHHFF4V97","33","0","JAVELIN","11","6","0","3305","JAVELIN ","11","2018-06-30 17:05:42","349924"
"A2QTFUJ1ON2ZR2","cs_wg_full_v2_pilot2","3VZLGYJEYLBCWALETGLGYPGVAT1XZS","57","0","WALNUT","10","6","0","1481","walnut","10","2018-06-30 17:05:45","349926"
"A1Z0ECR2X12MPW","cs_wg_full_v2_pilot2","3NJM2BJS4W7UF88DFBRRTET7ZC6PCX","41","0","WAFFLE","3","6","1","1340","waffle","3","2018-06-30 17:05:46","349927"
"A2FJUGTKTCIB0","cs_wg_full_v2_pilot2","33UKMF9319L9TH3VIEV1NYU8C1RTTP","46","0","SMOKER","8","6","0","1648","smoker","8","2018-06-30 17:05:46","349928"
"A3SHZQLYH7L1V4","cs_wg_full_v2_pilot2","3K5TEWLKGVCYXVR9TXWCA9GKY5RVIQ","70","0","PICKLE","6","6","1","1722","pickle","6","2018-06-30 17:05:48","349929"
"A24UUWI8IIJKT6","cs_wg_full_v2_pilot2","34HJIJKLP5X4POSU88U8G861TNQV4B","37","0","DRAGON","11","6","0","1352","Dragon","11","2018-06-30 17:05:49","349931"
"A3EKKEZ21SGJEC","cs_wg_full_v2_pilot2","3IFS6Q0HJIKI53A5Z2R7ZMWDZ1XSII","53","0","LIQUID","3","6","1","2122","liquid","3","2018-06-30 17:05:50","349932"
"A2PWUACCQI97J8","cs_wg_full_v2_pilot2","3LKC68YZ3A4L862HH2EDG8VKHNSWOW","27","0","TURKEY","7","6","0","1362","turkey","7","2018-06-30 17:05:51","349933"
"A342D4DOMDD3Q9","cs_wg_full_v2_pilot2","36WLNQG78ZB78CRHSXFLOIOL3K4BER","46","0","DRAGON","1","6","1","2636","dragon","1","2018-06-30 17:05:51","349934"
"A2QTFUJ1ON2ZR2","cs_wg_full_v2_pilot2","3VZLGYJEYLBCWALETGLGYPGVAT1XZS","58","0","COFFIN","3","6","1","2322","coffin","3","2018-06-30 17:05:53","349936"
"A1Z0ECR2X12MPW","cs_wg_full_v2_pilot2","3NJM2BJS4W7UF88DFBRRTET7ZC6PCX","42","0","WAFFLE","3","6","1","1178","waffle","3","2018-06-30 17:05:56","349938"
"A21E07C6ILD4A","cs_wg_full_v2_pilot2","3NLZY2D53PQ8IO3YS1ZFW294YH6QL5","42","0","DRAGON","8","6","0","2905","DRAGON","8","2018-06-30 17:05:56","349939"
"A2FJUGTKTCIB0","cs_wg_full_v2_pilot2","33UKMF9319L9TH3VIEV1NYU8C1RTTP","47","0","CANVAS","5","6","1","1763","canvas","5","2018-06-30 17:05:56","349940"
"A3SHZQLYH7L1V4","cs_wg_full_v2_pilot2","3K5TEWLKGVCYXVR9TXWCA9GKY5RVIQ","71","0","DOMINO","5","6","1","1419","domino","5","2018-06-30 17:05:57","349943"
"AGR032RZW1C76","cs_wg_full_v2_pilot2","3FPRZHYEPY8J7S9Q8UPP63EVFNUV3Q","28","0","SHIVER","2","6","1","5843","shiver","2","2018-06-30 17:05:58","349944"
"A2PWUACCQI97J8","cs_wg_full_v2_pilot2","3LKC68YZ3A4L862HH2EDG8VKHNSWOW","28","0","SCIENCE","9","6","0","965","science","9","2018-06-30 17:05:59","349945"
"A24UUWI8IIJKT6","cs_wg_full_v2_pilot2","34HJIJKLP5X4POSU88U8G861TNQV4B","38","0","BAGPIPE","8","6","0","1617","Bagpipe","8","2018-06-30 17:05:59","349946"
"A3EKKEZ21SGJEC","cs_wg_full_v2_pilot2","3IFS6Q0HJIKI53A5Z2R7ZMWDZ1XSII","54","0","CHICKEN","1","6","1","1666","chicken","1","2018-06-30 17:06:01","349948"
"A2QTFUJ1ON2ZR2","cs_wg_full_v2_pilot2","3VZLGYJEYLBCWALETGLGYPGVAT1XZS","59","0","ADDICT","9","6","0","2360","addict","9","2018-06-30 17:06:01","349949"
"A38ENY014WTJHC","cs_wg_full_v2_pilot2","3VNXK88KKCJ5MUY6P3QZXGHHFF4V97","34","0","CABINET","6","6","0","5546","CABINET ","6","2018-06-30 17:06:02","349950"
"A1Z0ECR2X12MPW","cs_wg_full_v2_pilot2","3NJM2BJS4W7UF88DFBRRTET7ZC6PCX","43","0","PARENT","12","6","0","1535","parent","12","2018-06-30 17:06:04","349951"
"A342D4DOMDD3Q9","cs_wg_full_v2_pilot2","36WLNQG78ZB78CRHSXFLOIOL3K4BER","47","0","GIRAFFE","2","6","1","1964","giraffe","2","2018-06-30 17:06:05","349952"
"A3SHZQLYH7L1V4","cs_wg_full_v2_pilot2","3K5TEWLKGVCYXVR9TXWCA9GKY5RVIQ","72","0","PARENT","10","6","0","1702","parent","10","2018-06-30 17:06:06","349954"
"A2FJUGTKTCIB0","cs_wg_full_v2_pilot2","33UKMF9319L9TH3VIEV1NYU8C1RTTP","48","0","GIRAFFE","10","6","0","1511","giraffe","10","2018-06-30 17:06:07","349955"
"A2PWUACCQI97J8","cs_wg_full_v2_pilot2","3LKC68YZ3A4L862HH2EDG8VKHNSWOW","29","0","HEAVEN","11","6","0","1114","heaven","11","2018-06-30 17:06:08","349956"
"A2QTFUJ1ON2ZR2","cs_wg_full_v2_pilot2","3VZLGYJEYLBCWALETGLGYPGVAT1XZS","60","0","MONKEY","5","6","1","2822","monkey","5","2018-06-30 17:06:10","349959"
"A24UUWI8IIJKT6","cs_wg_full_v2_pilot2","34HJIJKLP5X4POSU88U8G861TNQV4B","39","0","HEAVEN","1","6","1","2337","Heaven","1","2018-06-30 17:06:11","349960"
"AGR032RZW1C76","cs_wg_full_v2_pilot2","3FPRZHYEPY8J7S9Q8UPP63EVFNUV3Q","29","0","BUCKET","3","6","1","3456","bucket","3","2018-06-30 17:06:11","349961"
"A3EKKEZ21SGJEC","cs_wg_full_v2_pilot2","3IFS6Q0HJIKI53A5Z2R7ZMWDZ1XSII","55","0","BAPTISM","7","6","0","2131","baptism","7","2018-06-30 17:06:12","349962"
"A21E07C6ILD4A","cs_wg_full_v2_pilot2","3NLZY2D53PQ8IO3YS1ZFW294YH6QL5","43","0","BULLET","3","6","0","7046","BULLET","3","2018-06-30 17:06:13","349963"
"A1Z0ECR2X12MPW","cs_wg_full_v2_pilot2","3NJM2BJS4W7UF88DFBRRTET7ZC6PCX","44","0","SUNBURN","11","6","0","3607","sunburn","11","2018-06-30 17:06:15","349964"
"A2PWUACCQI97J8","cs_wg_full_v2_pilot2","3LKC68YZ3A4L862HH2EDG8VKHNSWOW","30","0","SCIENCE","9","6","0","909","science","9","2018-06-30 17:06:15","349965"
"A3SHZQLYH7L1V4","cs_wg_full_v2_pilot2","3K5TEWLKGVCYXVR9TXWCA9GKY5RVIQ","73","0","PICKLE","6","6","0","2479","pickle","6","2018-06-30 17:06:16","349966"
"A342D4DOMDD3Q9","cs_wg_full_v2_pilot2","36WLNQG78ZB78CRHSXFLOIOL3K4BER","48","0","PEACOCK","9","6","0","4045","peacock","9","2018-06-30 17:06:17","349967"
"A38ENY014WTJHC","cs_wg_full_v2_pilot2","3VNXK88KKCJ5MUY6P3QZXGHHFF4V97","35","0","BUCKET","3","6","1","4245","BUCKET ","3","2018-06-30 17:06:17","349968"
"A2FJUGTKTCIB0","cs_wg_full_v2_pilot2","33UKMF9319L9TH3VIEV1NYU8C1RTTP","49","0","CANVAS","5","6","1","1749","canvas","5","2018-06-30 17:06:18","349969"
"A2QTFUJ1ON2ZR2","cs_wg_full_v2_pilot2","3VZLGYJEYLBCWALETGLGYPGVAT1XZS","61","0","COFFIN","3","6","1","1940","coffin","3","2018-06-30 17:06:18","349970"
"A24UUWI8IIJKT6","cs_wg_full_v2_pilot2","34HJIJKLP5X4POSU88U8G861TNQV4B","40","0","DRAGON","11","6","0","1417","Dragon","11","2018-06-30 17:06:20","349974"
"A3EKKEZ21SGJEC","cs_wg_full_v2_pilot2","3IFS6Q0HJIKI53A5Z2R7ZMWDZ1XSII","56","0","JUNGLE","6","6","0","1416","jungle","6","2018-06-30 17:06:23","349976"
"A2PWUACCQI97J8","cs_wg_full_v2_pilot2","3LKC68YZ3A4L862HH2EDG8VKHNSWOW","31","0","FORGERY","1","6","0","1165","forgery","1","2018-06-30 17:06:23","349977"
"A3SHZQLYH7L1V4","cs_wg_full_v2_pilot2","3K5TEWLKGVCYXVR9TXWCA9GKY5RVIQ","74","0","BULLET","2","6","1","1481","bullet","2","2018-06-30 17:06:24","349978"
"A21E07C6ILD4A","cs_wg_full_v2_pilot2","3NLZY2D53PQ8IO3YS1ZFW294YH6QL5","44","0","PLANET","4","6","1","2963","PLANET","4","2018-06-30 17:06:26","349979"
"A1Z0ECR2X12MPW","cs_wg_full_v2_pilot2","3NJM2BJS4W7UF88DFBRRTET7ZC6PCX","45","0","THRONE","2","6","1","1349","throne","2","2018-06-30 17:06:26","349980"
"AGR032RZW1C76","cs_wg_full_v2_pilot2","3FPRZHYEPY8J7S9Q8UPP63EVFNUV3Q","30","0","JUNGLE","4","6","1","5302","jungle","4","2018-06-30 17:06:27","349981"
"A342D4DOMDD3Q9","cs_wg_full_v2_pilot2","36WLNQG78ZB78CRHSXFLOIOL3K4BER","49","0","BULLET","7","6","0","3155","bullet","7","2018-06-30 17:06:29","349985"
"A2QTFUJ1ON2ZR2","cs_wg_full_v2_pilot2","3VZLGYJEYLBCWALETGLGYPGVAT1XZS","62","0","ROYALTY","2","6","1","2894","royalty","2","2018-06-30 17:06:29","349986"
"A24UUWI8IIJKT6","cs_wg_full_v2_pilot2","34HJIJKLP5X4POSU88U8G861TNQV4B","41","0","CHORUS","7","6","1","1955","Chorus","7","2018-06-30 17:06:30","349988"
"A2FJUGTKTCIB0","cs_wg_full_v2_pilot2","33UKMF9319L9TH3VIEV1NYU8C1RTTP","50","0","CELERY","7","6","0","4622","celery","7","2018-06-30 17:06:31","349989"
"A3SHZQLYH7L1V4","cs_wg_full_v2_pilot2","3K5TEWLKGVCYXVR9TXWCA9GKY5RVIQ","75","0","SPIRAL","11","6","0","745","spiral","11","2018-06-30 17:06:31","349990"
"A3EKKEZ21SGJEC","cs_wg_full_v2_pilot2","3IFS6Q0HJIKI53A5Z2R7ZMWDZ1XSII","57","0","BARREL","8","6","0","1459","barrel","8","2018-06-30 17:06:34","349991"
"A38ENY014WTJHC","cs_wg_full_v2_pilot2","3VNXK88KKCJ5MUY6P3QZXGHHFF4V97","36","0","BARREL","2","6","1","4216","BARREL ","2","2018-06-30 17:06:34","349992"
"A2PWUACCQI97J8","cs_wg_full_v2_pilot2","3LKC68YZ3A4L862HH2EDG8VKHNSWOW","32","0","ABDOMEN","6","6","0","1886","abdomen","6","2018-06-30 17:06:34","349993"
"A1Z0ECR2X12MPW","cs_wg_full_v2_pilot2","3NJM2BJS4W7UF88DFBRRTET7ZC6PCX","46","0","ADDICT","10","6","0","3274","addict","10","2018-06-30 17:06:37","349995"
"A3SHZQLYH7L1V4","cs_wg_full_v2_pilot2","3K5TEWLKGVCYXVR9TXWCA9GKY5RVIQ","76","0","PICKLE","6","6","0","1278","pickle","6","2018-06-30 17:06:39","349997"
"A342D4DOMDD3Q9","cs_wg_full_v2_pilot2","36WLNQG78ZB78CRHSXFLOIOL3K4BER","50","0","BULLET","7","6","0","2613","bullet","7","2018-06-30 17:06:39","349998"
"A2QTFUJ1ON2ZR2","cs_wg_full_v2_pilot2","3VZLGYJEYLBCWALETGLGYPGVAT1XZS","63","0","WALNUT","10","6","0","2428","walnut","10","2018-06-30 17:06:40","349999"
"A24UUWI8IIJKT6","cs_wg_full_v2_pilot2","34HJIJKLP5X4POSU88U8G861TNQV4B","42","0","CABINET","3","6","1","2338","Cabinet ","3","2018-06-30 17:06:40","350000"
"AGR032RZW1C76","cs_wg_full_v2_pilot2","3FPRZHYEPY8J7S9Q8UPP63EVFNUV3Q","31","0","WALRUS","6","6","1","3354","walrus","6","2018-06-30 17:06:40","350001"
"A2FJUGTKTCIB0","cs_wg_full_v2_pilot2","33UKMF9319L9TH3VIEV1NYU8C1RTTP","51","0","CELERY","7","6","0","1826","celery","7","2018-06-30 17:06:41","350002"
"A2PWUACCQI97J8","cs_wg_full_v2_pilot2","3LKC68YZ3A4L862HH2EDG8VKHNSWOW","33","0","CARROT","5","6","1","2884","carrot","5","2018-06-30 17:06:44","350003"
"A3EKKEZ21SGJEC","cs_wg_full_v2_pilot2","3IFS6Q0HJIKI53A5Z2R7ZMWDZ1XSII","58","0","BABOON","12","6","0","1315","baboon","12","2018-06-30 17:06:45","350006"
"A3SHZQLYH7L1V4","cs_wg_full_v2_pilot2","3K5TEWLKGVCYXVR9TXWCA9GKY5RVIQ","77","0","TONGUE","1","6","1","1047","tongue","1","2018-06-30 17:06:46","350008"
"A342D4DOMDD3Q9","cs_wg_full_v2_pilot2","36WLNQG78ZB78CRHSXFLOIOL3K4BER","51","0","BULLET","7","6","0","1681","bullet","7","2018-06-30 17:06:49","350009"
"A2QTFUJ1ON2ZR2","cs_wg_full_v2_pilot2","3VZLGYJEYLBCWALETGLGYPGVAT1XZS","64","0","JUNGLE","12","6","0","3275","jungle","12","2018-06-30 17:06:49","350010"
"A24UUWI8IIJKT6","cs_wg_full_v2_pilot2","34HJIJKLP5X4POSU88U8G861TNQV4B","43","0","THRONE","4","6","1","1661","Throne ","4","2018-06-30 17:06:49","350011"
"A1Z0ECR2X12MPW","cs_wg_full_v2_pilot2","3NJM2BJS4W7UF88DFBRRTET7ZC6PCX","47","0","ADDICT","10","6","0","4388","addict","10","2018-06-30 17:06:50","350012"
"A21E07C6ILD4A","cs_wg_full_v2_pilot2","3NLZY2D53PQ8IO3YS1ZFW294YH6QL5","45","0","PICKLE","5","6","1","5576","PICKLE","5","2018-06-30 17:06:50","350013"
"A38ENY014WTJHC","cs_wg_full_v2_pilot2","3VNXK88KKCJ5MUY6P3QZXGHHFF4V97","37","0","BUCKET","3","6","1","3755","BUCKET ","3","2018-06-30 17:06:50","350014"
"A2FJUGTKTCIB0","cs_wg_full_v2_pilot2","33UKMF9319L9TH3VIEV1NYU8C1RTTP","52","0","COSTUME","4","6","1","1348","costume","4","2018-06-30 17:06:51","350015"
"A3SHZQLYH7L1V4","cs_wg_full_v2_pilot2","3K5TEWLKGVCYXVR9TXWCA9GKY5RVIQ","78","0","COFFIN","4","6","1","1378","coffin","4","2018-06-30 17:06:55","350019"
"A3EKKEZ21SGJEC","cs_wg_full_v2_pilot2","3IFS6Q0HJIKI53A5Z2R7ZMWDZ1XSII","59","0","GOGGLES","10","6","0","1281","goggles","10","2018-06-30 17:06:56","350020"
"A2PWUACCQI97J8","cs_wg_full_v2_pilot2","3LKC68YZ3A4L862HH2EDG8VKHNSWOW","34","0","BIKINI","4","6","1","5695","bikini","4","2018-06-30 17:06:56","350021"
"A2QTFUJ1ON2ZR2","cs_wg_full_v2_pilot2","3VZLGYJEYLBCWALETGLGYPGVAT1XZS","65","0","COFFIN","3","6","1","1782","coffin","3","2018-06-30 17:06:58","350022"
"AGR032RZW1C76","cs_wg_full_v2_pilot2","3FPRZHYEPY8J7S9Q8UPP63EVFNUV3Q","32","0","PRIEST","9","6","0","2945","priest","9","2018-06-30 17:06:59","350023"
"A24UUWI8IIJKT6","cs_wg_full_v2_pilot2","34HJIJKLP5X4POSU88U8G861TNQV4B","44","0","PRIEST","2","6","0","2809","Priest","2","2018-06-30 17:06:59","350024"
"A342D4DOMDD3Q9","cs_wg_full_v2_pilot2","36WLNQG78ZB78CRHSXFLOIOL3K4BER","52","0","ABDOMEN","3","6","1","2586","abdomen","3","2018-06-30 17:07:00","350025"
"A1Z0ECR2X12MPW","cs_wg_full_v2_pilot2","3NJM2BJS4W7UF88DFBRRTET7ZC6PCX","48","0","BUCKET","8","6","0","3297","bucket","8","2018-06-30 17:07:00","350026"
"A2FJUGTKTCIB0","cs_wg_full_v2_pilot2","33UKMF9319L9TH3VIEV1NYU8C1RTTP","53","0","CHORUS","9","6","0","2531","chorus","9","2018-06-30 17:07:03","350030"
"A2PWUACCQI97J8","cs_wg_full_v2_pilot2","3LKC68YZ3A4L862HH2EDG8VKHNSWOW","35","0","BUDGET","8","6","0","1423","budget","8","2018-06-30 17:07:04","350032"
"A38ENY014WTJHC","cs_wg_full_v2_pilot2","3VNXK88KKCJ5MUY6P3QZXGHHFF4V97","38","0","CASINO","7","6","0","3420","CASINO ","7","2018-06-30 17:07:05","350033"
"A3SHZQLYH7L1V4","cs_wg_full_v2_pilot2","3K5TEWLKGVCYXVR9TXWCA9GKY5RVIQ","79","0","BEAVER","3","6","1","3251","beaver","3","2018-06-30 17:07:05","350034"
"A2QTFUJ1ON2ZR2","cs_wg_full_v2_pilot2","3VZLGYJEYLBCWALETGLGYPGVAT1XZS","66","0","SILVER","7","6","0","2450","silver","7","2018-06-30 17:07:06","350036"
"A24UUWI8IIJKT6","cs_wg_full_v2_pilot2","34HJIJKLP5X4POSU88U8G861TNQV4B","45","0","BAGPIPE","8","6","0","973","Bagpipe","8","2018-06-30 17:07:08","350037"
"A21E07C6ILD4A","cs_wg_full_v2_pilot2","3NLZY2D53PQ8IO3YS1ZFW294YH6QL5","46","0","FIREMAN","7","6","0","6767","FIREMAN","7","2018-06-30 17:07:08","350038"
"A3EKKEZ21SGJEC","cs_wg_full_v2_pilot2","3IFS6Q0HJIKI53A5Z2R7ZMWDZ1XSII","60","0","GOGGLES","10","6","0","1476","goggles","10","2018-06-30 17:07:09","350040"
"A1Z0ECR2X12MPW","cs_wg_full_v2_pilot2","3NJM2BJS4W7UF88DFBRRTET7ZC6PCX","49","0","HERMIT","7","6","0","2721","hermit","7","2018-06-30 17:07:09","350041"
"A342D4DOMDD3Q9","cs_wg_full_v2_pilot2","36WLNQG78ZB78CRHSXFLOIOL3K4BER","53","0","BULLET","7","6","0","2602","bullet","7","2018-06-30 17:07:11","350043"
"A2PWUACCQI97J8","cs_wg_full_v2_pilot2","3LKC68YZ3A4L862HH2EDG8VKHNSWOW","36","0","THRONE","12","6","0","1275","throne","12","2018-06-30 17:07:12","350044"
"A2FJUGTKTCIB0","cs_wg_full_v2_pilot2","33UKMF9319L9TH3VIEV1NYU8C1RTTP","54","0","COSTUME","4","6","0","1767","costume","4","2018-06-30 17:07:13","350045"
"A3SHZQLYH7L1V4","cs_wg_full_v2_pilot2","3K5TEWLKGVCYXVR9TXWCA9GKY5RVIQ","80","0","BEAVER","3","6","1","1620","beaver","3","2018-06-30 17:07:14","350048"
"AGR032RZW1C76","cs_wg_full_v2_pilot2","3FPRZHYEPY8J7S9Q8UPP63EVFNUV3Q","33","0","BULLET","7","6","0","4122","Bullet","7","2018-06-30 17:07:14","350049"
"A2QTFUJ1ON2ZR2","cs_wg_full_v2_pilot2","3VZLGYJEYLBCWALETGLGYPGVAT1XZS","67","0","MONKEY","5","6","1","2047","monkey","5","2018-06-30 17:07:16","350050"
"A24UUWI8IIJKT6","cs_wg_full_v2_pilot2","34HJIJKLP5X4POSU88U8G861TNQV4B","46","0","DRAGON","11","6","0","828","Dragon","11","2018-06-30 17:07:16","350051"
"A1Z0ECR2X12MPW","cs_wg_full_v2_pilot2","3NJM2BJS4W7UF88DFBRRTET7ZC6PCX","50","0","DOLLAR","9","6","0","1209","dollar","9","2018-06-30 17:07:17","350052"
"A38ENY014WTJHC","cs_wg_full_v2_pilot2","3VNXK88KKCJ5MUY6P3QZXGHHFF4V97","39","0","GIRAFFE","1","6","0","1188","GIRAFFE ","1","2018-06-30 17:07:18","350053"
"A3EKKEZ21SGJEC","cs_wg_full_v2_pilot2","3IFS6Q0HJIKI53A5Z2R7ZMWDZ1XSII","61","0","BAPTISM","7","6","0","1180","baptism","7","2018-06-30 17:07:19","350055"
"A21E07C6ILD4A","cs_wg_full_v2_pilot2","3NLZY2D53PQ8IO3YS1ZFW294YH6QL5","47","0","COFFEE","1","6","1","2400","COFFEE","1","2018-06-30 17:07:20","350058"
"A2PWUACCQI97J8","cs_wg_full_v2_pilot2","3LKC68YZ3A4L862HH2EDG8VKHNSWOW","37","0","HEAVEN","11","6","0","971","heaven","11","2018-06-30 17:07:20","350059"
"A3SHZQLYH7L1V4","cs_wg_full_v2_pilot2","3K5TEWLKGVCYXVR9TXWCA9GKY5RVIQ","81","0","DEMON","9","6","0","749","demon","9","2018-06-30 17:07:22","350060"
"A2FJUGTKTCIB0","cs_wg_full_v2_pilot2","33UKMF9319L9TH3VIEV1NYU8C1RTTP","55","0","SMOKER","8","6","0","1107","smoker","8","2018-06-30 17:07:22","350061"
"A2QTFUJ1ON2ZR2","cs_wg_full_v2_pilot2","3VZLGYJEYLBCWALETGLGYPGVAT1XZS","68","0","SILVER","7","6","0","2026","silver","7","2018-06-30 17:07:24","350062"
"A24UUWI8IIJKT6","cs_wg_full_v2_pilot2","34HJIJKLP5X4POSU88U8G861TNQV4B","47","0","ROYALTY","5","6","1","1372","Royalty","5","2018-06-30 17:07:25","350063"
"A342D4DOMDD3Q9","cs_wg_full_v2_pilot2","36WLNQG78ZB78CRHSXFLOIOL3K4BER","54","0","GIRAFFE","2","6","1","5528","giraffe","2","2018-06-30 17:07:25","350064"
"A1Z0ECR2X12MPW","cs_wg_full_v2_pilot2","3NJM2BJS4W7UF88DFBRRTET7ZC6PCX","51","0","DRAGON","4","6","1","1674","dragon","4","2018-06-30 17:07:26","350066"
"A2PWUACCQI97J8","cs_wg_full_v2_pilot2","3LKC68YZ3A4L862HH2EDG8VKHNSWOW","38","0","BIKINI","4","6","1","1362","bikini","4","2018-06-30 17:07:30","350070"
"A3EKKEZ21SGJEC","cs_wg_full_v2_pilot2","3IFS6Q0HJIKI53A5Z2R7ZMWDZ1XSII","62","0","HEAVEN","4","6","1","1667","heaven","4","2018-06-30 17:07:30","350072"
"AGR032RZW1C76","cs_wg_full_v2_pilot2","3FPRZHYEPY8J7S9Q8UPP63EVFNUV3Q","34","0","JUNGLE","4","6","0","2015","jungle","4","2018-06-30 17:07:30","350073"
"A3SHZQLYH7L1V4","cs_wg_full_v2_pilot2","3K5TEWLKGVCYXVR9TXWCA9GKY5RVIQ","82","0","WALNUT","12","6","0","1224","walnut","12","2018-06-30 17:07:31","350074"
"A38ENY014WTJHC","cs_wg_full_v2_pilot2","3VNXK88KKCJ5MUY6P3QZXGHHFF4V97","40","0","PEACOCK","12","6","0","1258","PEACOCK ","12","2018-06-30 17:07:32","350076"
"A2QTFUJ1ON2ZR2","cs_wg_full_v2_pilot2","3VZLGYJEYLBCWALETGLGYPGVAT1XZS","69","0","ROYALTY","2","6","1","1424","royalty","2","2018-06-30 17:07:33","350077"
"A2FJUGTKTCIB0","cs_wg_full_v2_pilot2","33UKMF9319L9TH3VIEV1NYU8C1RTTP","56","0","CHORUS","9","6","1","2546","chorus","9","2018-06-30 17:07:34","350078"
"A1Z0ECR2X12MPW","cs_wg_full_v2_pilot2","3NJM2BJS4W7UF88DFBRRTET7ZC6PCX","52","0","DOLLAR","9","6","0","1038","dollar","9","2018-06-30 17:07:35","350080"
"A2PWUACCQI97J8","cs_wg_full_v2_pilot2","3LKC68YZ3A4L862HH2EDG8VKHNSWOW","39","0","BUDGET","8","6","0","894","budget","8","2018-06-30 17:07:38","350083"
"A24UUWI8IIJKT6","cs_wg_full_v2_pilot2","34HJIJKLP5X4POSU88U8G861TNQV4B","48","0","CABINET","3","6","1","1702","Cabinet","3","2018-06-30 17:07:38","350084"
"A342D4DOMDD3Q9","cs_wg_full_v2_pilot2","36WLNQG78ZB78CRHSXFLOIOL3K4BER","55","0","DOMINO","4","6","1","2929","domino","4","2018-06-30 17:07:38","350085"
"A3SHZQLYH7L1V4","cs_wg_full_v2_pilot2","3K5TEWLKGVCYXVR9TXWCA9GKY5RVIQ","83","0","DOMINO","5","6","1","1477","domino","5","2018-06-30 17:07:40","350086"
"A21E07C6ILD4A","cs_wg_full_v2_pilot2","3NLZY2D53PQ8IO3YS1ZFW294YH6QL5","48","0","BAPTISM","12","6","0","4711","BAPTISM","12","2018-06-30 17:07:40","350087"
"A3EKKEZ21SGJEC","cs_wg_full_v2_pilot2","3IFS6Q0HJIKI53A5Z2R7ZMWDZ1XSII","63","0","FRIEND","5","6","1","3003","friend","5","2018-06-30 17:07:41","350088"
"A2QTFUJ1ON2ZR2","cs_wg_full_v2_pilot2","3VZLGYJEYLBCWALETGLGYPGVAT1XZS","70","0","PRIEST","8","6","0","4057","priest","8","2018-06-30 17:07:44","350092"
"A2FJUGTKTCIB0","cs_wg_full_v2_pilot2","33UKMF9319L9TH3VIEV1NYU8C1RTTP","57","0","CHIMNEY","12","6","0","1588","chimney","12","2018-06-30 17:07:44","350093"
"AGR032RZW1C76","cs_wg_full_v2_pilot2","3FPRZHYEPY8J7S9Q8UPP63EVFNUV3Q","35","0","PEANUT","12","6","0","2516","peanut","12","2018-06-30 17:07:44","350094"
"A2PWUACCQI97J8","cs_wg_full_v2_pilot2","3LKC68YZ3A4L862HH2EDG8VKHNSWOW","40","0","HEAVEN","11","6","0","986","heaven","11","2018-06-30 17:07:46","350096"
"A1Z0ECR2X12MPW","cs_wg_full_v2_pilot2","3NJM2BJS4W7UF88DFBRRTET7ZC6PCX","53","0","BUCKET","8","6","0","4776","bucket","8","2018-06-30 17:07:46","350097"
"A3D2LSOC5L4FFV","cs_wg_full_v2_pilot2","333U7HK6I9G8YPBTKUHIGOPDBDDDJM","0","0","BLANKET","10","6","0","14357","blacknet","10","2018-06-30 17:07:46","350098"
"A24UUWI8IIJKT6","cs_wg_full_v2_pilot2","34HJIJKLP5X4POSU88U8G861TNQV4B","49","0","THRONE","4","6","1","2676","Throne","4","2018-06-30 17:07:49","350100"
"A3SHZQLYH7L1V4","cs_wg_full_v2_pilot2","3K5TEWLKGVCYXVR9TXWCA9GKY5RVIQ","84","0","COFFIN","4","6","1","1407","coffin","4","2018-06-30 17:07:49","350102"
"A38ENY014WTJHC","cs_wg_full_v2_pilot2","3VNXK88KKCJ5MUY6P3QZXGHHFF4V97","41","0","BARREL","2","6","1","3215","BARREL ","3","2018-06-30 17:07:50","350103"
"A3EKKEZ21SGJEC","cs_wg_full_v2_pilot2","3IFS6Q0HJIKI53A5Z2R7ZMWDZ1XSII","64","0","JUNGLE","6","6","0","1324","jungle","6","2018-06-30 17:07:51","350105"
"A342D4DOMDD3Q9","cs_wg_full_v2_pilot2","36WLNQG78ZB78CRHSXFLOIOL3K4BER","56","0","EARDRUM","8","6","0","4364","eardrum","8","2018-06-30 17:07:52","350106"
"A2FJUGTKTCIB0","cs_wg_full_v2_pilot2","33UKMF9319L9TH3VIEV1NYU8C1RTTP","58","0","ANIMAL","6","6","0","1601","animal","6","2018-06-30 17:07:53","350107"
"A1Z0ECR2X12MPW","cs_wg_full_v2_pilot2","3NJM2BJS4W7UF88DFBRRTET7ZC6PCX","54","0","HERMIT","7","6","0","1794","hermit","7","2018-06-30 17:07:54","350108"
"A2PWUACCQI97J8","cs_wg_full_v2_pilot2","3LKC68YZ3A4L862HH2EDG8VKHNSWOW","41","0","BIKINI","4","6","1","1398","bikini","4","2018-06-30 17:07:55","350111"
"A21E07C6ILD4A","cs_wg_full_v2_pilot2","3NLZY2D53PQ8IO3YS1ZFW294YH6QL5","49","0","ALMOND","2","6","0","2461","ALMOND","2","2018-06-30 17:07:56","350112"
"A2QTFUJ1ON2ZR2","cs_wg_full_v2_pilot2","3VZLGYJEYLBCWALETGLGYPGVAT1XZS","71","0","PENGUIN","11","6","0","2027","penguin","11","2018-06-30 17:07:57","350113"
"AGR032RZW1C76","cs_wg_full_v2_pilot2","3FPRZHYEPY8J7S9Q8UPP63EVFNUV3Q","36","0","ADDICT","8","6","0","3569","addict","8","2018-06-30 17:07:57","350116"
"A3SHZQLYH7L1V4","cs_wg_full_v2_pilot2","3K5TEWLKGVCYXVR9TXWCA9GKY5RVIQ","85","0","DOMINO","5","6","1","1702","domino","5","2018-06-30 17:07:57","350117"
"A24UUWI8IIJKT6","cs_wg_full_v2_pilot2","34HJIJKLP5X4POSU88U8G861TNQV4B","50","0","ROYALTY","5","6","1","1486","Royalty ","5","2018-06-30 17:07:58","350118"
"A342D4DOMDD3Q9","cs_wg_full_v2_pilot2","36WLNQG78ZB78CRHSXFLOIOL3K4BER","57","0","EARDRUM","8","6","0","1651","eardrum","8","2018-06-30 17:08:02","350121"
"A1Z0ECR2X12MPW","cs_wg_full_v2_pilot2","3NJM2BJS4W7UF88DFBRRTET7ZC6PCX","55","0","ADDICT","10","6","0","1032","addict","10","2018-06-30 17:08:02","350122"
"A3EKKEZ21SGJEC","cs_wg_full_v2_pilot2","3IFS6Q0HJIKI53A5Z2R7ZMWDZ1XSII","65","0","KIDNEY","2","6","1","1564","kidney","2","2018-06-30 17:08:04","350123"
"A2PWUACCQI97J8","cs_wg_full_v2_pilot2","3LKC68YZ3A4L862HH2EDG8VKHNSWOW","42","0","SCIENCE","9","6","0","1271","science","9","2018-06-30 17:08:04","350124"
"A2FJUGTKTCIB0","cs_wg_full_v2_pilot2","33UKMF9319L9TH3VIEV1NYU8C1RTTP","59","0","CELERY","7","6","0","1181","celery","7","2018-06-30 17:08:06","350128"
"A3SHZQLYH7L1V4","cs_wg_full_v2_pilot2","3K5TEWLKGVCYXVR9TXWCA9GKY5RVIQ","86","0","PICTURE","7","6","0","1625","picture","7","2018-06-30 17:08:07","350129"
"A24UUWI8IIJKT6","cs_wg_full_v2_pilot2","34HJIJKLP5X4POSU88U8G861TNQV4B","51","0","ROYALTY","5","6","1","1228","Royalty","5","2018-06-30 17:08:07","350130"
